ExperimentName,Subject,Session,Clock.Information,DataFile.Basename,Display.RefreshRate,ExperimentVersion,Group,RandomSeed,RuntimeCapabilities,RuntimeVersion,RuntimeVersionExpected,SessionDate,SessionStartDateTimeUtc,SessionTime,StudioVersion,Block,BlockList,BlockList.Cycle,BlockList.Sample,PostTestQ1.RESP,PostTestQ1CJ.RESP,PostTestQ2.RESP,PostTestQ2CJ.RESP,PostTestQ3.RESP,PostTestQ3CJ.RESP,PostTestSlide.RESP,Procedure[Block],Running[Block],Trial,CorrectResponse,Distractor,DistractorList,Fixation.ACC,Fixation.CRESP,Fixation.DurationError,Fixation.OnsetDelay,Fixation.OnsetTime,Fixation.OnsetToOnsetTime,Fixation.RESP,Fixation.RT,Fixation.RTTime,ItemColor,Jitter,JitterList,JitterTime,Lime0List,Orientation,Pos1Color,Pos1Item,Pos2Color,Pos2Item,Pos3Color,Pos3Item,Pos4Color,Pos4Item,Pos5Color,Pos5Item,Pos6Color,Pos6Item,PracticeTrialList,PracticeTrialList.Cycle,PracticeTrialList.Sample,Procedure[Trial],Red0List,Running[Trial],Stimulus.ACC,Stimulus.CRESP,Stimulus.DurationError,Stimulus.OnsetDelay,Stimulus.OnsetTime,Stimulus.OnsetToOnsetTime,Stimulus.RESP,Stimulus.RT,Stimulus.RTTime,Target,TargetColor,TargetList,TestTrialList,TestTrialList.Cycle,TestTrialList.Sample,TrainingTrialList,TrainingTrialList.Cycle,TrainingTrialList.Sample
KW_Experiment5A,50,1,"<?xml version=""1.0""?>\n<Clock xmlns:dt=""urn:schemas-microsoft-com:datatypes""><Description dt:dt=""string"">E-Prime Primary Realtime Clock</Description><StartTime><Timestamp dt:dt=""int"">0</Timestamp><DateUtc dt:dt=""string"">2018-10-29T17:44:29Z</DateUtc></StartTime><FrequencyChanges><FrequencyChange><Frequency dt:dt=""r8"">3215273</Frequency><Timestamp dt:dt=""r8"">2694996947266</Timestamp><Current dt:dt=""r8"">0</Current><DateUtc dt:dt=""string"">2018-10-29T17:44:29Z</DateUtc></FrequencyChange></FrequencyChanges></Clock>\n",KW_Experiment5A-50-1,59.944,1.0.0.105,1,2053058930,Professional,2.0.10.353,2.0.10.353,10/29/2018,10/29/2018 17:44,13:44:29,2.0.10.248,1,1,1,1,,,,,,,,PracticeProc,BlockList,1,2,Distractor2.bmp,2,0,,1,70,1101577,501,,0,0,lime,500,2,500,,horizontal,purple,Distractor2.bmp,cyan,Distractor2.bmp,blue,Distractor2.bmp,yellow,Distractor1.bmp,lime,Distractor1.bmp,red,Target2.bmp,6,1,1,TrialProc,6,PracticeTrialList,1,2,-999999,1,1102078,0,2,2516,1104594,Target2.bmp,red,2,,,,,,
KW_Experiment5A,50,1,"<?xml version=""1.0""?>\n<Clock xmlns:dt=""urn:schemas-microsoft-com:datatypes""><Description dt:dt=""string"">E-Prime Primary Realtime Clock</Description><StartTime><Timestamp dt:dt=""int"">0</Timestamp><DateUtc dt:dt=""string"">2018-10-29T17:44:29Z</DateUtc></StartTime><FrequencyChanges><FrequencyChange><Frequency dt:dt=""r8"">3215273</Frequency><Timestamp dt:dt=""r8"">2694996947266</Timestamp><Current dt:dt=""r8"">0</Current><DateUtc dt:dt=""string"">2018-10-29T17:44:29Z</DateUtc></FrequencyChange></FrequencyChanges></Clock>\n",KW_Experiment5A-50-1,59.944,1.0.0.105,1,2053058930,Professional,2.0.10.353,2.0.10.353,10/29/2018,10/29/2018 17:44,13:44:29,2.0.10.248,1,1,1,1,,,,,,,,PracticeProc,BlockList,2,2,Distractor2.bmp,2,0,,0,0,1105614,401,,0,0,blue,400,1,400,3,horizontal,red,Distractor2.bmp,blue,Distractor1.bmp,lime,Target2.bmp,yellow,Distractor2.bmp,cyan,Distractor1.bmp,purple,Distractor1.bmp,3,1,2,TrialProc,,PracticeTrialList,1,2,-999999,1,1106015,0,2,1491,1107506,Target2.bmp,lime,2,,,,,,
KW_Experiment5A,50,1,"<?xml version=""1.0""?>\n<Clock xmlns:dt=""urn:schemas-microsoft-com:datatypes""><Description dt:dt=""string"">E-Prime Primary Realtime Clock</Description><StartTime><Timestamp dt:dt=""int"">0</Timestamp><DateUtc dt:dt=""string"">2018-10-29T17:44:29Z</DateUtc></StartTime><FrequencyChanges><FrequencyChange><Frequency dt:dt=""r8"">3215273</Frequency><Timestamp dt:dt=""r8"">2694996947266</Timestamp><Current dt:dt=""r8"">0</Current><DateUtc dt:dt=""string"">2018-10-29T17:44:29Z</DateUtc></FrequencyChange></FrequencyChanges></Clock>\n",KW_Experiment5A-50-1,59.944,1.0.0.105,1,2053058930,Professional,2.0.10.353,2.0.10.353,10/29/2018,10/29/2018 17:44,13:44:29,2.0.10.248,1,1,1,1,,,,,,,,PracticeProc,BlockList,3,1,Distractor2.bmp,2,0,,0,1,1108517,400,,0,0,blue,400,1,400,3,vertical,lime,Target1.bmp,cyan,Distractor2.bmp,purple,Distractor1.bmp,red,Distractor2.bmp,yellow,Distractor1.bmp,blue,Distractor2.bmp,1,1,3,TrialProc,,PracticeTrialList,1,1,-999999,0,1108917,0,1,765,1109682,Target1.bmp,lime,1,,,,,,
KW_Experiment5A,50,1,"<?xml version=""1.0""?>\n<Clock xmlns:dt=""urn:schemas-microsoft-com:datatypes""><Description dt:dt=""string"">E-Prime Primary Realtime Clock</Description><StartTime><Timestamp dt:dt=""int"">0</Timestamp><DateUtc dt:dt=""string"">2018-10-29T17:44:29Z</DateUtc></StartTime><FrequencyChanges><FrequencyChange><Frequency dt:dt=""r8"">3215273</Frequency><Timestamp dt:dt=""r8"">2694996947266</Timestamp><Current dt:dt=""r8"">0</Current><DateUtc dt:dt=""string"">2018-10-29T17:44:29Z</DateUtc></FrequencyChange></FrequencyChanges></Clock>\n",KW_Experiment5A-50-1,59.944,1.0.0.105,1,2053058930,Professional,2.0.10.353,2.0.10.353,10/29/2018,10/29/2018 17:44,13:44:29,2.0.10.248,1,1,1,1,,,,,,,,PracticeProc,BlockList,4,2,Distractor2.bmp,2,0,,0,1,1110702,401,,0,0,yellow,400,1,400,,horizontal,cyan,Distractor1.bmp,blue,Distractor1.bmp,yellow,Distractor2.bmp,red,Target2.bmp,lime,Distractor2.bmp,purple,Distractor1.bmp,4,1,4,TrialProc,2,PracticeTrialList,0,2,-999999,1,1111103,0,1,1195,1112298,Target2.bmp,red,2,,,,,,
KW_Experiment5A,50,1,"<?xml version=""1.0""?>\n<Clock xmlns:dt=""urn:schemas-microsoft-com:datatypes""><Description dt:dt=""string"">E-Prime Primary Realtime Clock</Description><StartTime><Timestamp dt:dt=""int"">0</Timestamp><DateUtc dt:dt=""string"">2018-10-29T17:44:29Z</DateUtc></StartTime><FrequencyChanges><FrequencyChange><Frequency dt:dt=""r8"">3215273</Frequency><Timestamp dt:dt=""r8"">2694996947266</Timestamp><Current dt:dt=""r8"">0</Current><DateUtc dt:dt=""string"">2018-10-29T17:44:29Z</DateUtc></FrequencyChange></FrequencyChanges></Clock>\n",KW_Experiment5A-50-1,59.944,1.0.0.105,1,2053058930,Professional,2.0.10.353,2.0.10.353,10/29/2018,10/29/2018 17:44,13:44:29,2.0.10.248,1,1,1,1,,,,,,,,PracticeProc,BlockList,5,2,Distractor1.bmp,1,0,,1,0,1113321,401,,0,0,cyan,400,1,400,,horizontal,cyan,Distractor1.bmp,red,Target2.bmp,yellow,Distractor1.bmp,blue,Distractor1.bmp,purple,Distractor2.bmp,lime,Distractor2.bmp,2,1,5,TrialProc,4,PracticeTrialList,1,2,-999999,1,1113722,0,2,1296,1115018,Target2.bmp,red,2,,,,,,
KW_Experiment5A,50,1,"<?xml version=""1.0""?>\n<Clock xmlns:dt=""urn:schemas-microsoft-com:datatypes""><Description dt:dt=""string"">E-Prime Primary Realtime Clock</Description><StartTime><Timestamp dt:dt=""int"">0</Timestamp><DateUtc dt:dt=""string"">2018-10-29T17:44:29Z</DateUtc></StartTime><FrequencyChanges><FrequencyChange><Frequency dt:dt=""r8"">3215273</Frequency><Timestamp dt:dt=""r8"">2694996947266</Timestamp><Current dt:dt=""r8"">0</Current><DateUtc dt:dt=""string"">2018-10-29T17:44:29Z</DateUtc></FrequencyChange></FrequencyChanges></Clock>\n",KW_Experiment5A-50-1,59.944,1.0.0.105,1,2053058930,Professional,2.0.10.353,2.0.10.353,10/29/2018,10/29/2018 17:44,13:44:29,2.0.10.248,1,1,1,1,,,,,,,,PracticeProc,BlockList,6,1,Distractor1.bmp,1,0,,0,1,1116041,600,,0,0,cyan,600,3,600,4,vertical,blue,Distractor2.bmp,purple,Distractor2.bmp,yellow,Distractor2.bmp,cyan,Distractor1.bmp,lime,Target1.bmp,red,Distractor1.bmp,5,1,6,TrialProc,,PracticeTrialList,1,1,-999999,0,1116641,0,1,881,1117522,Target1.bmp,lime,1,,,,,,
KW_Experiment5A,50,1,"<?xml version=""1.0""?>\n<Clock xmlns:dt=""urn:schemas-microsoft-com:datatypes""><Description dt:dt=""string"">E-Prime Primary Realtime Clock</Description><StartTime><Timestamp dt:dt=""int"">0</Timestamp><DateUtc dt:dt=""string"">2018-10-29T17:44:29Z</DateUtc></StartTime><FrequencyChanges><FrequencyChange><Frequency dt:dt=""r8"">3215273</Frequency><Timestamp dt:dt=""r8"">2694996947266</Timestamp><Current dt:dt=""r8"">0</Current><DateUtc dt:dt=""string"">2018-10-29T17:44:29Z</DateUtc></FrequencyChange></FrequencyChanges></Clock>\n",KW_Experiment5A-50-1,59.944,1.0.0.105,1,2053058930,Professional,2.0.10.353,2.0.10.353,10/29/2018,10/29/2018 17:44,13:44:29,2.0.10.248,2,2,1,2,,,,,,,,TrainingProc,BlockList,1,2,Distractor1.bmp,1,0,,0,30,1132656,400,,0,0,yellow,400,1,400,2,horizontal,yellow,Distractor2.bmp,red,Distractor2.bmp,lime,Target2.bmp,cyan,Distractor1.bmp,purple,Distractor2.bmp,blue,Distractor2.bmp,,,,TrialProc,,TrainingTrialList,1,2,-999999,0,1133056,0,2,1018,1134074,Target2.bmp,lime,2,,,,3,1,1
KW_Experiment5A,50,1,"<?xml version=""1.0""?>\n<Clock xmlns:dt=""urn:schemas-microsoft-com:datatypes""><Description dt:dt=""string"">E-Prime Primary Realtime Clock</Description><StartTime><Timestamp dt:dt=""int"">0</Timestamp><DateUtc dt:dt=""string"">2018-10-29T17:44:29Z</DateUtc></StartTime><FrequencyChanges><FrequencyChange><Frequency dt:dt=""r8"">3215273</Frequency><Timestamp dt:dt=""r8"">2694996947266</Timestamp><Current dt:dt=""r8"">0</Current><DateUtc dt:dt=""string"">2018-10-29T17:44:29Z</DateUtc></FrequencyChange></FrequencyChanges></Clock>\n",KW_Experiment5A-50-1,59.944,1.0.0.105,1,2053058930,Professional,2.0.10.353,2.0.10.353,10/29/2018,10/29/2018 17:44,13:44:29,2.0.10.248,2,2,1,2,,,,,,,,TrainingProc,BlockList,2,2,Distractor2.bmp,2,0,,0,1,1135091,401,,0,0,blue,400,1,400,3,horizontal,blue,Distractor2.bmp,yellow,Distractor2.bmp,red,Distractor1.bmp,lime,Target2.bmp,purple,Distractor2.bmp,cyan,Distractor2.bmp,,,,TrialProc,,TrainingTrialList,0,2,-999999,1,1135492,0,1,862,1136354,Target2.bmp,lime,2,,,,4,1,2
KW_Experiment5A,50,1,"<?xml version=""1.0""?>\n<Clock xmlns:dt=""urn:schemas-microsoft-com:datatypes""><Description dt:dt=""string"">E-Prime Primary Realtime Clock</Description><StartTime><Timestamp dt:dt=""int"">0</Timestamp><DateUtc dt:dt=""string"">2018-10-29T17:44:29Z</DateUtc></StartTime><FrequencyChanges><FrequencyChange><Frequency dt:dt=""r8"">3215273</Frequency><Timestamp dt:dt=""r8"">2694996947266</Timestamp><Current dt:dt=""r8"">0</Current><DateUtc dt:dt=""string"">2018-10-29T17:44:29Z</DateUtc></FrequencyChange></FrequencyChanges></Clock>\n",KW_Experiment5A-50-1,59.944,1.0.0.105,1,2053058930,Professional,2.0.10.353,2.0.10.353,10/29/2018,10/29/2018 17:44,13:44:29,2.0.10.248,2,2,1,2,,,,,,,,TrainingProc,BlockList,3,1,Distractor1.bmp,1,0,,0,1,1137377,500,,0,0,blue,500,2,500,3,vertical,blue,Distractor2.bmp,purple,Distractor2.bmp,yellow,Distractor2.bmp,lime,Target1.bmp,red,Distractor1.bmp,cyan,Distractor1.bmp,,,,TrialProc,,TrainingTrialList,1,1,-999999,0,1137877,0,1,997,1138874,Target1.bmp,lime,1,,,,4,1,3
KW_Experiment5A,50,1,"<?xml version=""1.0""?>\n<Clock xmlns:dt=""urn:schemas-microsoft-com:datatypes""><Description dt:dt=""string"">E-Prime Primary Realtime Clock</Description><StartTime><Timestamp dt:dt=""int"">0</Timestamp><DateUtc dt:dt=""string"">2018-10-29T17:44:29Z</DateUtc></StartTime><FrequencyChanges><FrequencyChange><Frequency dt:dt=""r8"">3215273</Frequency><Timestamp dt:dt=""r8"">2694996947266</Timestamp><Current dt:dt=""r8"">0</Current><DateUtc dt:dt=""string"">2018-10-29T17:44:29Z</DateUtc></FrequencyChange></FrequencyChanges></Clock>\n",KW_Experiment5A-50-1,59.944,1.0.0.105,1,2053058930,Professional,2.0.10.353,2.0.10.353,10/29/2018,10/29/2018 17:44,13:44:29,2.0.10.248,2,2,1,2,,,,,,,,TrainingProc,BlockList,4,1,Distractor2.bmp,2,0,,0,1,1139896,500,,0,0,yellow,500,2,500,2,vertical,yellow,Distractor1.bmp,lime,Target1.bmp,blue,Distractor2.bmp,red,Distractor1.bmp,purple,Distractor1.bmp,cyan,Distractor2.bmp,,,,TrialProc,,TrainingTrialList,0,1,-999999,0,1140396,0,2,1030,1141426,Target1.bmp,lime,1,,,,2,1,4
KW_Experiment5A,50,1,"<?xml version=""1.0""?>\n<Clock xmlns:dt=""urn:schemas-microsoft-com:datatypes""><Description dt:dt=""string"">E-Prime Primary Realtime Clock</Description><StartTime><Timestamp dt:dt=""int"">0</Timestamp><DateUtc dt:dt=""string"">2018-10-29T17:44:29Z</DateUtc></StartTime><FrequencyChanges><FrequencyChange><Frequency dt:dt=""r8"">3215273</Frequency><Timestamp dt:dt=""r8"">2694996947266</Timestamp><Current dt:dt=""r8"">0</Current><DateUtc dt:dt=""string"">2018-10-29T17:44:29Z</DateUtc></FrequencyChange></FrequencyChanges></Clock>\n",KW_Experiment5A-50-1,59.944,1.0.0.105,1,2053058930,Professional,2.0.10.353,2.0.10.353,10/29/2018,10/29/2018 17:44,13:44:29,2.0.10.248,2,2,1,2,,,,,,,,TrainingProc,BlockList,5,1,Distractor1.bmp,1,0,,0,1,1142448,501,,0,0,blue,500,2,500,3,vertical,blue,Distractor2.bmp,cyan,Distractor1.bmp,purple,Distractor1.bmp,yellow,Distractor1.bmp,lime,Target1.bmp,red,Distractor1.bmp,,,,TrialProc,,TrainingTrialList,1,1,-999999,1,1142949,0,1,861,1143810,Target1.bmp,lime,1,,,,5,1,5
KW_Experiment5A,50,1,"<?xml version=""1.0""?>\n<Clock xmlns:dt=""urn:schemas-microsoft-com:datatypes""><Description dt:dt=""string"">E-Prime Primary Realtime Clock</Description><StartTime><Timestamp dt:dt=""int"">0</Timestamp><DateUtc dt:dt=""string"">2018-10-29T17:44:29Z</DateUtc></StartTime><FrequencyChanges><FrequencyChange><Frequency dt:dt=""r8"">3215273</Frequency><Timestamp dt:dt=""r8"">2694996947266</Timestamp><Current dt:dt=""r8"">0</Current><DateUtc dt:dt=""string"">2018-10-29T17:44:29Z</DateUtc></FrequencyChange></FrequencyChanges></Clock>\n",KW_Experiment5A-50-1,59.944,1.0.0.105,1,2053058930,Professional,2.0.10.353,2.0.10.353,10/29/2018,10/29/2018 17:44,13:44:29,2.0.10.248,2,2,1,2,,,,,,,,TrainingProc,BlockList,6,1,Distractor1.bmp,1,0,,0,1,1144834,400,,0,0,yellow,400,1,400,2,vertical,lime,Target1.bmp,yellow,Distractor1.bmp,blue,Distractor1.bmp,cyan,Distractor2.bmp,red,Distractor1.bmp,purple,Distractor1.bmp,,,,TrialProc,,TrainingTrialList,1,1,-999999,0,1145234,0,1,816,1146050,Target1.bmp,lime,1,,,,1,1,6
KW_Experiment5A,50,1,"<?xml version=""1.0""?>\n<Clock xmlns:dt=""urn:schemas-microsoft-com:datatypes""><Description dt:dt=""string"">E-Prime Primary Realtime Clock</Description><StartTime><Timestamp dt:dt=""int"">0</Timestamp><DateUtc dt:dt=""string"">2018-10-29T17:44:29Z</DateUtc></StartTime><FrequencyChanges><FrequencyChange><Frequency dt:dt=""r8"">3215273</Frequency><Timestamp dt:dt=""r8"">2694996947266</Timestamp><Current dt:dt=""r8"">0</Current><DateUtc dt:dt=""string"">2018-10-29T17:44:29Z</DateUtc></FrequencyChange></FrequencyChanges></Clock>\n",KW_Experiment5A-50-1,59.944,1.0.0.105,1,2053058930,Professional,2.0.10.353,2.0.10.353,10/29/2018,10/29/2018 17:44,13:44:29,2.0.10.248,2,2,1,2,,,,,,,,TrainingProc,BlockList,7,2,Distractor2.bmp,2,0,,0,1,1147069,601,,0,0,cyan,600,3,600,4,horizontal,cyan,Distractor2.bmp,yellow,Distractor2.bmp,purple,Distractor2.bmp,lime,Target2.bmp,red,Distractor2.bmp,blue,Distractor1.bmp,,,,TrialProc,,TrainingTrialList,1,2,-999999,1,1147670,0,2,692,1148362,Target2.bmp,lime,2,,,,4,1,7
KW_Experiment5A,50,1,"<?xml version=""1.0""?>\n<Clock xmlns:dt=""urn:schemas-microsoft-com:datatypes""><Description dt:dt=""string"">E-Prime Primary Realtime Clock</Description><StartTime><Timestamp dt:dt=""int"">0</Timestamp><DateUtc dt:dt=""string"">2018-10-29T17:44:29Z</DateUtc></StartTime><FrequencyChanges><FrequencyChange><Frequency dt:dt=""r8"">3215273</Frequency><Timestamp dt:dt=""r8"">2694996947266</Timestamp><Current dt:dt=""r8"">0</Current><DateUtc dt:dt=""string"">2018-10-29T17:44:29Z</DateUtc></FrequencyChange></FrequencyChanges></Clock>\n",KW_Experiment5A-50-1,59.944,1.0.0.105,1,2053058930,Professional,2.0.10.353,2.0.10.353,10/29/2018,10/29/2018 17:44,13:44:29,2.0.10.248,2,2,1,2,,,,,,,,TrainingProc,BlockList,8,2,Distractor2.bmp,2,0,,0,1,1149371,400,,0,0,yellow,400,1,400,2,horizontal,yellow,Distractor2.bmp,lime,Target2.bmp,cyan,Distractor2.bmp,purple,Distractor2.bmp,blue,Distractor1.bmp,red,Distractor1.bmp,,,,TrialProc,,TrainingTrialList,1,2,-999999,0,1149771,0,2,855,1150626,Target2.bmp,lime,2,,,,2,1,8
KW_Experiment5A,50,1,"<?xml version=""1.0""?>\n<Clock xmlns:dt=""urn:schemas-microsoft-com:datatypes""><Description dt:dt=""string"">E-Prime Primary Realtime Clock</Description><StartTime><Timestamp dt:dt=""int"">0</Timestamp><DateUtc dt:dt=""string"">2018-10-29T17:44:29Z</DateUtc></StartTime><FrequencyChanges><FrequencyChange><Frequency dt:dt=""r8"">3215273</Frequency><Timestamp dt:dt=""r8"">2694996947266</Timestamp><Current dt:dt=""r8"">0</Current><DateUtc dt:dt=""string"">2018-10-29T17:44:29Z</DateUtc></FrequencyChange></FrequencyChanges></Clock>\n",KW_Experiment5A-50-1,59.944,1.0.0.105,1,2053058930,Professional,2.0.10.353,2.0.10.353,10/29/2018,10/29/2018 17:44,13:44:29,2.0.10.248,2,2,1,2,,,,,,,,TrainingProc,BlockList,9,2,Distractor1.bmp,1,0,,0,1,1151640,500,,0,0,blue,500,2,500,,horizontal,blue,Distractor2.bmp,lime,Distractor2.bmp,purple,Distractor2.bmp,red,Target2.bmp,cyan,Distractor1.bmp,yellow,Distractor2.bmp,,,,TrialProc,3,TrainingTrialList,1,2,-999999,0,1152140,0,2,1222,1153362,Target2.bmp,red,2,,,,10,1,9
KW_Experiment5A,50,1,"<?xml version=""1.0""?>\n<Clock xmlns:dt=""urn:schemas-microsoft-com:datatypes""><Description dt:dt=""string"">E-Prime Primary Realtime Clock</Description><StartTime><Timestamp dt:dt=""int"">0</Timestamp><DateUtc dt:dt=""string"">2018-10-29T17:44:29Z</DateUtc></StartTime><FrequencyChanges><FrequencyChange><Frequency dt:dt=""r8"">3215273</Frequency><Timestamp dt:dt=""r8"">2694996947266</Timestamp><Current dt:dt=""r8"">0</Current><DateUtc dt:dt=""string"">2018-10-29T17:44:29Z</DateUtc></FrequencyChange></FrequencyChanges></Clock>\n",KW_Experiment5A-50-1,59.944,1.0.0.105,1,2053058930,Professional,2.0.10.353,2.0.10.353,10/29/2018,10/29/2018 17:44,13:44:29,2.0.10.248,2,2,1,2,,,,,,,,TrainingProc,BlockList,10,1,Distractor1.bmp,1,0,,0,1,1154376,500,,0,0,blue,500,2,500,3,vertical,blue,Distractor1.bmp,cyan,Distractor1.bmp,lime,Target1.bmp,red,Distractor1.bmp,purple,Distractor2.bmp,yellow,Distractor2.bmp,,,,TrialProc,,TrainingTrialList,0,1,-999999,0,1154876,0,2,958,1155834,Target1.bmp,lime,1,,,,3,1,10
KW_Experiment5A,50,1,"<?xml version=""1.0""?>\n<Clock xmlns:dt=""urn:schemas-microsoft-com:datatypes""><Description dt:dt=""string"">E-Prime Primary Realtime Clock</Description><StartTime><Timestamp dt:dt=""int"">0</Timestamp><DateUtc dt:dt=""string"">2018-10-29T17:44:29Z</DateUtc></StartTime><FrequencyChanges><FrequencyChange><Frequency dt:dt=""r8"">3215273</Frequency><Timestamp dt:dt=""r8"">2694996947266</Timestamp><Current dt:dt=""r8"">0</Current><DateUtc dt:dt=""string"">2018-10-29T17:44:29Z</DateUtc></FrequencyChange></FrequencyChanges></Clock>\n",KW_Experiment5A-50-1,59.944,1.0.0.105,1,2053058930,Professional,2.0.10.353,2.0.10.353,10/29/2018,10/29/2018 17:44,13:44:29,2.0.10.248,2,2,1,2,,,,,,,,TrainingProc,BlockList,11,1,Distractor2.bmp,2,0,,0,1,1156845,400,,0,0,lime,400,1,400,,vertical,red,Target1.bmp,cyan,Distractor2.bmp,blue,Distractor1.bmp,purple,Distractor1.bmp,yellow,Distractor2.bmp,lime,Distractor1.bmp,,,,TrialProc,6,TrainingTrialList,1,1,-999999,0,1157245,0,1,572,1157817,Target1.bmp,red,1,,,,7,1,11
KW_Experiment5A,50,1,"<?xml version=""1.0""?>\n<Clock xmlns:dt=""urn:schemas-microsoft-com:datatypes""><Description dt:dt=""string"">E-Prime Primary Realtime Clock</Description><StartTime><Timestamp dt:dt=""int"">0</Timestamp><DateUtc dt:dt=""string"">2018-10-29T17:44:29Z</DateUtc></StartTime><FrequencyChanges><FrequencyChange><Frequency dt:dt=""r8"">3215273</Frequency><Timestamp dt:dt=""r8"">2694996947266</Timestamp><Current dt:dt=""r8"">0</Current><DateUtc dt:dt=""string"">2018-10-29T17:44:29Z</DateUtc></FrequencyChange></FrequencyChanges></Clock>\n",KW_Experiment5A-50-1,59.944,1.0.0.105,1,2053058930,Professional,2.0.10.353,2.0.10.353,10/29/2018,10/29/2018 17:44,13:44:29,2.0.10.248,2,2,1,2,,,,,,,,TrainingProc,BlockList,12,1,Distractor1.bmp,1,0,,0,1,1158830,500,,0,0,red,500,2,500,1,vertical,red,Distractor1.bmp,yellow,Distractor1.bmp,blue,Distractor1.bmp,purple,Distractor1.bmp,cyan,Distractor2.bmp,lime,Target1.bmp,,,,TrialProc,,TrainingTrialList,1,1,-999999,0,1159330,0,1,1583,1160913,Target1.bmp,lime,1,,,,6,1,12
KW_Experiment5A,50,1,"<?xml version=""1.0""?>\n<Clock xmlns:dt=""urn:schemas-microsoft-com:datatypes""><Description dt:dt=""string"">E-Prime Primary Realtime Clock</Description><StartTime><Timestamp dt:dt=""int"">0</Timestamp><DateUtc dt:dt=""string"">2018-10-29T17:44:29Z</DateUtc></StartTime><FrequencyChanges><FrequencyChange><Frequency dt:dt=""r8"">3215273</Frequency><Timestamp dt:dt=""r8"">2694996947266</Timestamp><Current dt:dt=""r8"">0</Current><DateUtc dt:dt=""string"">2018-10-29T17:44:29Z</DateUtc></FrequencyChange></FrequencyChanges></Clock>\n",KW_Experiment5A-50-1,59.944,1.0.0.105,1,2053058930,Professional,2.0.10.353,2.0.10.353,10/29/2018,10/29/2018 17:44,13:44:29,2.0.10.248,2,2,1,2,,,,,,,,TrainingProc,BlockList,13,1,Distractor1.bmp,1,0,,0,1,1161933,500,,0,0,blue,500,2,500,,vertical,blue,Distractor1.bmp,cyan,Distractor1.bmp,yellow,Distractor1.bmp,lime,Distractor1.bmp,purple,Distractor1.bmp,red,Target1.bmp,,,,TrialProc,3,TrainingTrialList,1,1,-999999,0,1162433,0,1,640,1163073,Target1.bmp,red,1,,,,12,1,13
KW_Experiment5A,50,1,"<?xml version=""1.0""?>\n<Clock xmlns:dt=""urn:schemas-microsoft-com:datatypes""><Description dt:dt=""string"">E-Prime Primary Realtime Clock</Description><StartTime><Timestamp dt:dt=""int"">0</Timestamp><DateUtc dt:dt=""string"">2018-10-29T17:44:29Z</DateUtc></StartTime><FrequencyChanges><FrequencyChange><Frequency dt:dt=""r8"">3215273</Frequency><Timestamp dt:dt=""r8"">2694996947266</Timestamp><Current dt:dt=""r8"">0</Current><DateUtc dt:dt=""string"">2018-10-29T17:44:29Z</DateUtc></FrequencyChange></FrequencyChanges></Clock>\n",KW_Experiment5A-50-1,59.944,1.0.0.105,1,2053058930,Professional,2.0.10.353,2.0.10.353,10/29/2018,10/29/2018 17:44,13:44:29,2.0.10.248,2,2,1,2,,,,,,,,TrainingProc,BlockList,14,1,Distractor2.bmp,2,0,,0,1,1164085,600,,0,0,cyan,600,3,600,4,vertical,lime,Target1.bmp,cyan,Distractor2.bmp,purple,Distractor2.bmp,blue,Distractor2.bmp,yellow,Distractor1.bmp,red,Distractor2.bmp,,,,TrialProc,,TrainingTrialList,1,1,-999999,0,1164685,0,1,612,1165297,Target1.bmp,lime,1,,,,1,1,14
KW_Experiment5A,50,1,"<?xml version=""1.0""?>\n<Clock xmlns:dt=""urn:schemas-microsoft-com:datatypes""><Description dt:dt=""string"">E-Prime Primary Realtime Clock</Description><StartTime><Timestamp dt:dt=""int"">0</Timestamp><DateUtc dt:dt=""string"">2018-10-29T17:44:29Z</DateUtc></StartTime><FrequencyChanges><FrequencyChange><Frequency dt:dt=""r8"">3215273</Frequency><Timestamp dt:dt=""r8"">2694996947266</Timestamp><Current dt:dt=""r8"">0</Current><DateUtc dt:dt=""string"">2018-10-29T17:44:29Z</DateUtc></FrequencyChange></FrequencyChanges></Clock>\n",KW_Experiment5A-50-1,59.944,1.0.0.105,1,2053058930,Professional,2.0.10.353,2.0.10.353,10/29/2018,10/29/2018 17:44,13:44:29,2.0.10.248,2,2,1,2,,,,,,,,TrainingProc,BlockList,15,1,Distractor1.bmp,1,0,,0,1,1166320,500,,0,0,purple,500,2,500,5,vertical,lime,Target1.bmp,purple,Distractor1.bmp,cyan,Distractor1.bmp,blue,Distractor2.bmp,red,Distractor2.bmp,yellow,Distractor1.bmp,,,,TrialProc,,TrainingTrialList,1,1,-999999,0,1166820,0,1,605,1167425,Target1.bmp,lime,1,,,,1,1,15
KW_Experiment5A,50,1,"<?xml version=""1.0""?>\n<Clock xmlns:dt=""urn:schemas-microsoft-com:datatypes""><Description dt:dt=""string"">E-Prime Primary Realtime Clock</Description><StartTime><Timestamp dt:dt=""int"">0</Timestamp><DateUtc dt:dt=""string"">2018-10-29T17:44:29Z</DateUtc></StartTime><FrequencyChanges><FrequencyChange><Frequency dt:dt=""r8"">3215273</Frequency><Timestamp dt:dt=""r8"">2694996947266</Timestamp><Current dt:dt=""r8"">0</Current><DateUtc dt:dt=""string"">2018-10-29T17:44:29Z</DateUtc></FrequencyChange></FrequencyChanges></Clock>\n",KW_Experiment5A-50-1,59.944,1.0.0.105,1,2053058930,Professional,2.0.10.353,2.0.10.353,10/29/2018,10/29/2018 17:44,13:44:29,2.0.10.248,2,2,1,2,,,,,,,,TrainingProc,BlockList,16,2,Distractor2.bmp,2,0,,0,1,1168439,500,,0,0,cyan,500,2,500,4,horizontal,cyan,Distractor1.bmp,blue,Distractor1.bmp,lime,Target2.bmp,yellow,Distractor2.bmp,purple,Distractor2.bmp,red,Distractor2.bmp,,,,TrialProc,,TrainingTrialList,1,2,-999999,0,1168939,0,2,646,1169585,Target2.bmp,lime,2,,,,3,1,16
KW_Experiment5A,50,1,"<?xml version=""1.0""?>\n<Clock xmlns:dt=""urn:schemas-microsoft-com:datatypes""><Description dt:dt=""string"">E-Prime Primary Realtime Clock</Description><StartTime><Timestamp dt:dt=""int"">0</Timestamp><DateUtc dt:dt=""string"">2018-10-29T17:44:29Z</DateUtc></StartTime><FrequencyChanges><FrequencyChange><Frequency dt:dt=""r8"">3215273</Frequency><Timestamp dt:dt=""r8"">2694996947266</Timestamp><Current dt:dt=""r8"">0</Current><DateUtc dt:dt=""string"">2018-10-29T17:44:29Z</DateUtc></FrequencyChange></FrequencyChanges></Clock>\n",KW_Experiment5A-50-1,59.944,1.0.0.105,1,2053058930,Professional,2.0.10.353,2.0.10.353,10/29/2018,10/29/2018 17:44,13:44:29,2.0.10.248,2,2,1,2,,,,,,,,TrainingProc,BlockList,17,1,Distractor1.bmp,1,0,,0,1,1170607,601,,0,0,purple,600,3,600,5,vertical,purple,Distractor1.bmp,blue,Distractor2.bmp,red,Distractor2.bmp,yellow,Distractor2.bmp,cyan,Distractor2.bmp,lime,Target1.bmp,,,,TrialProc,,TrainingTrialList,1,1,-999999,1,1171208,0,1,697,1171905,Target1.bmp,lime,1,,,,6,1,17
KW_Experiment5A,50,1,"<?xml version=""1.0""?>\n<Clock xmlns:dt=""urn:schemas-microsoft-com:datatypes""><Description dt:dt=""string"">E-Prime Primary Realtime Clock</Description><StartTime><Timestamp dt:dt=""int"">0</Timestamp><DateUtc dt:dt=""string"">2018-10-29T17:44:29Z</DateUtc></StartTime><FrequencyChanges><FrequencyChange><Frequency dt:dt=""r8"">3215273</Frequency><Timestamp dt:dt=""r8"">2694996947266</Timestamp><Current dt:dt=""r8"">0</Current><DateUtc dt:dt=""string"">2018-10-29T17:44:29Z</DateUtc></FrequencyChange></FrequencyChanges></Clock>\n",KW_Experiment5A-50-1,59.944,1.0.0.105,1,2053058930,Professional,2.0.10.353,2.0.10.353,10/29/2018,10/29/2018 17:44,13:44:29,2.0.10.248,2,2,1,2,,,,,,,,TrainingProc,BlockList,18,1,Distractor1.bmp,1,0,,0,1,1172926,400,,0,0,blue,400,1,400,,vertical,blue,Distractor1.bmp,lime,Distractor2.bmp,red,Target1.bmp,cyan,Distractor1.bmp,purple,Distractor1.bmp,yellow,Distractor2.bmp,,,,TrialProc,3,TrainingTrialList,1,1,-999999,0,1173326,0,1,947,1174273,Target1.bmp,red,1,,,,9,1,18
KW_Experiment5A,50,1,"<?xml version=""1.0""?>\n<Clock xmlns:dt=""urn:schemas-microsoft-com:datatypes""><Description dt:dt=""string"">E-Prime Primary Realtime Clock</Description><StartTime><Timestamp dt:dt=""int"">0</Timestamp><DateUtc dt:dt=""string"">2018-10-29T17:44:29Z</DateUtc></StartTime><FrequencyChanges><FrequencyChange><Frequency dt:dt=""r8"">3215273</Frequency><Timestamp dt:dt=""r8"">2694996947266</Timestamp><Current dt:dt=""r8"">0</Current><DateUtc dt:dt=""string"">2018-10-29T17:44:29Z</DateUtc></FrequencyChange></FrequencyChanges></Clock>\n",KW_Experiment5A-50-1,59.944,1.0.0.105,1,2053058930,Professional,2.0.10.353,2.0.10.353,10/29/2018,10/29/2018 17:44,13:44:29,2.0.10.248,2,2,1,2,,,,,,,,TrainingProc,BlockList,19,2,Distractor1.bmp,1,0,,0,1,1175295,600,,0,0,cyan,600,3,600,,horizontal,cyan,Distractor2.bmp,blue,Distractor2.bmp,lime,Distractor1.bmp,purple,Distractor1.bmp,red,Target2.bmp,yellow,Distractor1.bmp,,,,TrialProc,4,TrainingTrialList,1,2,-999999,0,1175895,0,2,794,1176689,Target2.bmp,red,2,,,,11,1,19
KW_Experiment5A,50,1,"<?xml version=""1.0""?>\n<Clock xmlns:dt=""urn:schemas-microsoft-com:datatypes""><Description dt:dt=""string"">E-Prime Primary Realtime Clock</Description><StartTime><Timestamp dt:dt=""int"">0</Timestamp><DateUtc dt:dt=""string"">2018-10-29T17:44:29Z</DateUtc></StartTime><FrequencyChanges><FrequencyChange><Frequency dt:dt=""r8"">3215273</Frequency><Timestamp dt:dt=""r8"">2694996947266</Timestamp><Current dt:dt=""r8"">0</Current><DateUtc dt:dt=""string"">2018-10-29T17:44:29Z</DateUtc></FrequencyChange></FrequencyChanges></Clock>\n",KW_Experiment5A-50-1,59.944,1.0.0.105,1,2053058930,Professional,2.0.10.353,2.0.10.353,10/29/2018,10/29/2018 17:44,13:44:29,2.0.10.248,2,2,1,2,,,,,,,,TrainingProc,BlockList,20,1,Distractor1.bmp,1,0,,0,1,1177714,500,,0,0,red,500,2,500,1,vertical,red,Distractor1.bmp,lime,Target1.bmp,yellow,Distractor1.bmp,blue,Distractor1.bmp,purple,Distractor2.bmp,cyan,Distractor2.bmp,,,,TrialProc,,TrainingTrialList,1,1,-999999,0,1178214,0,1,755,1178969,Target1.bmp,lime,1,,,,2,1,20
KW_Experiment5A,50,1,"<?xml version=""1.0""?>\n<Clock xmlns:dt=""urn:schemas-microsoft-com:datatypes""><Description dt:dt=""string"">E-Prime Primary Realtime Clock</Description><StartTime><Timestamp dt:dt=""int"">0</Timestamp><DateUtc dt:dt=""string"">2018-10-29T17:44:29Z</DateUtc></StartTime><FrequencyChanges><FrequencyChange><Frequency dt:dt=""r8"">3215273</Frequency><Timestamp dt:dt=""r8"">2694996947266</Timestamp><Current dt:dt=""r8"">0</Current><DateUtc dt:dt=""string"">2018-10-29T17:44:29Z</DateUtc></FrequencyChange></FrequencyChanges></Clock>\n",KW_Experiment5A-50-1,59.944,1.0.0.105,1,2053058930,Professional,2.0.10.353,2.0.10.353,10/29/2018,10/29/2018 17:44,13:44:29,2.0.10.248,2,2,1,2,,,,,,,,TrainingProc,BlockList,21,1,Distractor1.bmp,1,0,,0,0,1179982,401,,0,0,cyan,400,1,400,4,vertical,cyan,Distractor2.bmp,red,Distractor2.bmp,purple,Distractor2.bmp,blue,Distractor1.bmp,lime,Target1.bmp,yellow,Distractor1.bmp,,,,TrialProc,,TrainingTrialList,1,1,-999999,1,1180383,0,1,730,1181113,Target1.bmp,lime,1,,,,5,1,21
KW_Experiment5A,50,1,"<?xml version=""1.0""?>\n<Clock xmlns:dt=""urn:schemas-microsoft-com:datatypes""><Description dt:dt=""string"">E-Prime Primary Realtime Clock</Description><StartTime><Timestamp dt:dt=""int"">0</Timestamp><DateUtc dt:dt=""string"">2018-10-29T17:44:29Z</DateUtc></StartTime><FrequencyChanges><FrequencyChange><Frequency dt:dt=""r8"">3215273</Frequency><Timestamp dt:dt=""r8"">2694996947266</Timestamp><Current dt:dt=""r8"">0</Current><DateUtc dt:dt=""string"">2018-10-29T17:44:29Z</DateUtc></FrequencyChange></FrequencyChanges></Clock>\n",KW_Experiment5A-50-1,59.944,1.0.0.105,1,2053058930,Professional,2.0.10.353,2.0.10.353,10/29/2018,10/29/2018 17:44,13:44:29,2.0.10.248,2,2,1,2,,,,,,,,TrainingProc,BlockList,22,1,Distractor1.bmp,1,0,,1,0,1182134,401,,0,0,cyan,400,1,400,4,vertical,cyan,Distractor1.bmp,red,Distractor2.bmp,blue,Distractor1.bmp,yellow,Distractor1.bmp,lime,Target1.bmp,purple,Distractor1.bmp,,,,TrialProc,,TrainingTrialList,1,1,-999999,1,1182535,0,1,554,1183089,Target1.bmp,lime,1,,,,5,1,22
KW_Experiment5A,50,1,"<?xml version=""1.0""?>\n<Clock xmlns:dt=""urn:schemas-microsoft-com:datatypes""><Description dt:dt=""string"">E-Prime Primary Realtime Clock</Description><StartTime><Timestamp dt:dt=""int"">0</Timestamp><DateUtc dt:dt=""string"">2018-10-29T17:44:29Z</DateUtc></StartTime><FrequencyChanges><FrequencyChange><Frequency dt:dt=""r8"">3215273</Frequency><Timestamp dt:dt=""r8"">2694996947266</Timestamp><Current dt:dt=""r8"">0</Current><DateUtc dt:dt=""string"">2018-10-29T17:44:29Z</DateUtc></FrequencyChange></FrequencyChanges></Clock>\n",KW_Experiment5A-50-1,59.944,1.0.0.105,1,2053058930,Professional,2.0.10.353,2.0.10.353,10/29/2018,10/29/2018 17:44,13:44:29,2.0.10.248,2,2,1,2,,,,,,,,TrainingProc,BlockList,23,1,Distractor1.bmp,1,0,,0,1,1184103,500,,0,0,purple,500,2,500,,vertical,purple,Distractor1.bmp,red,Target1.bmp,cyan,Distractor1.bmp,blue,Distractor1.bmp,lime,Distractor2.bmp,yellow,Distractor2.bmp,,,,TrialProc,5,TrainingTrialList,0,1,-999999,0,1184603,0,2,1126,1185729,Target1.bmp,red,1,,,,8,1,23
KW_Experiment5A,50,1,"<?xml version=""1.0""?>\n<Clock xmlns:dt=""urn:schemas-microsoft-com:datatypes""><Description dt:dt=""string"">E-Prime Primary Realtime Clock</Description><StartTime><Timestamp dt:dt=""int"">0</Timestamp><DateUtc dt:dt=""string"">2018-10-29T17:44:29Z</DateUtc></StartTime><FrequencyChanges><FrequencyChange><Frequency dt:dt=""r8"">3215273</Frequency><Timestamp dt:dt=""r8"">2694996947266</Timestamp><Current dt:dt=""r8"">0</Current><DateUtc dt:dt=""string"">2018-10-29T17:44:29Z</DateUtc></FrequencyChange></FrequencyChanges></Clock>\n",KW_Experiment5A-50-1,59.944,1.0.0.105,1,2053058930,Professional,2.0.10.353,2.0.10.353,10/29/2018,10/29/2018 17:44,13:44:29,2.0.10.248,2,2,1,2,,,,,,,,TrainingProc,BlockList,24,1,Distractor1.bmp,1,0,,0,1,1186755,601,,0,0,blue,600,3,600,3,vertical,blue,Distractor1.bmp,yellow,Distractor2.bmp,red,Distractor2.bmp,purple,Distractor2.bmp,cyan,Distractor2.bmp,lime,Target1.bmp,,,,TrialProc,,TrainingTrialList,0,1,-999999,1,1187356,0,2,813,1188169,Target1.bmp,lime,1,,,,6,1,24
KW_Experiment5A,50,1,"<?xml version=""1.0""?>\n<Clock xmlns:dt=""urn:schemas-microsoft-com:datatypes""><Description dt:dt=""string"">E-Prime Primary Realtime Clock</Description><StartTime><Timestamp dt:dt=""int"">0</Timestamp><DateUtc dt:dt=""string"">2018-10-29T17:44:29Z</DateUtc></StartTime><FrequencyChanges><FrequencyChange><Frequency dt:dt=""r8"">3215273</Frequency><Timestamp dt:dt=""r8"">2694996947266</Timestamp><Current dt:dt=""r8"">0</Current><DateUtc dt:dt=""string"">2018-10-29T17:44:29Z</DateUtc></FrequencyChange></FrequencyChanges></Clock>\n",KW_Experiment5A-50-1,59.944,1.0.0.105,1,2053058930,Professional,2.0.10.353,2.0.10.353,10/29/2018,10/29/2018 17:44,13:44:29,2.0.10.248,2,2,1,2,,,,,,,,TrainingProc,BlockList,25,2,Distractor1.bmp,1,0,,0,1,1189191,500,,0,0,yellow,500,2,500,,horizontal,yellow,Distractor2.bmp,blue,Distractor2.bmp,purple,Distractor1.bmp,cyan,Distractor1.bmp,red,Target2.bmp,lime,Distractor1.bmp,,,,TrialProc,2,TrainingTrialList,0,2,-999999,0,1189691,0,1,1838,1191529,Target2.bmp,red,2,,,,11,2,25
KW_Experiment5A,50,1,"<?xml version=""1.0""?>\n<Clock xmlns:dt=""urn:schemas-microsoft-com:datatypes""><Description dt:dt=""string"">E-Prime Primary Realtime Clock</Description><StartTime><Timestamp dt:dt=""int"">0</Timestamp><DateUtc dt:dt=""string"">2018-10-29T17:44:29Z</DateUtc></StartTime><FrequencyChanges><FrequencyChange><Frequency dt:dt=""r8"">3215273</Frequency><Timestamp dt:dt=""r8"">2694996947266</Timestamp><Current dt:dt=""r8"">0</Current><DateUtc dt:dt=""string"">2018-10-29T17:44:29Z</DateUtc></FrequencyChange></FrequencyChanges></Clock>\n",KW_Experiment5A-50-1,59.944,1.0.0.105,1,2053058930,Professional,2.0.10.353,2.0.10.353,10/29/2018,10/29/2018 17:44,13:44:29,2.0.10.248,2,2,1,2,,,,,,,,TrainingProc,BlockList,26,2,Distractor1.bmp,1,0,,0,1,1192544,600,,0,0,purple,600,3,600,5,horizontal,purple,Distractor1.bmp,lime,Target2.bmp,blue,Distractor1.bmp,red,Distractor2.bmp,yellow,Distractor1.bmp,cyan,Distractor2.bmp,,,,TrialProc,,TrainingTrialList,0,2,-999999,0,1193144,0,1,953,1194097,Target2.bmp,lime,2,,,,2,2,26
KW_Experiment5A,50,1,"<?xml version=""1.0""?>\n<Clock xmlns:dt=""urn:schemas-microsoft-com:datatypes""><Description dt:dt=""string"">E-Prime Primary Realtime Clock</Description><StartTime><Timestamp dt:dt=""int"">0</Timestamp><DateUtc dt:dt=""string"">2018-10-29T17:44:29Z</DateUtc></StartTime><FrequencyChanges><FrequencyChange><Frequency dt:dt=""r8"">3215273</Frequency><Timestamp dt:dt=""r8"">2694996947266</Timestamp><Current dt:dt=""r8"">0</Current><DateUtc dt:dt=""string"">2018-10-29T17:44:29Z</DateUtc></FrequencyChange></FrequencyChanges></Clock>\n",KW_Experiment5A-50-1,59.944,1.0.0.105,1,2053058930,Professional,2.0.10.353,2.0.10.353,10/29/2018,10/29/2018 17:44,13:44:29,2.0.10.248,2,2,1,2,,,,,,,,TrainingProc,BlockList,27,1,Distractor1.bmp,1,0,,0,1,1195113,500,,0,0,blue,500,2,500,,vertical,blue,Distractor2.bmp,red,Target1.bmp,lime,Distractor1.bmp,purple,Distractor2.bmp,cyan,Distractor2.bmp,yellow,Distractor2.bmp,,,,TrialProc,3,TrainingTrialList,0,1,-999999,0,1195613,0,2,1292,1196905,Target1.bmp,red,1,,,,8,2,27
KW_Experiment5A,50,1,"<?xml version=""1.0""?>\n<Clock xmlns:dt=""urn:schemas-microsoft-com:datatypes""><Description dt:dt=""string"">E-Prime Primary Realtime Clock</Description><StartTime><Timestamp dt:dt=""int"">0</Timestamp><DateUtc dt:dt=""string"">2018-10-29T17:44:29Z</DateUtc></StartTime><FrequencyChanges><FrequencyChange><Frequency dt:dt=""r8"">3215273</Frequency><Timestamp dt:dt=""r8"">2694996947266</Timestamp><Current dt:dt=""r8"">0</Current><DateUtc dt:dt=""string"">2018-10-29T17:44:29Z</DateUtc></FrequencyChange></FrequencyChanges></Clock>\n",KW_Experiment5A-50-1,59.944,1.0.0.105,1,2053058930,Professional,2.0.10.353,2.0.10.353,10/29/2018,10/29/2018 17:44,13:44:29,2.0.10.248,2,2,1,2,,,,,,,,TrainingProc,BlockList,28,1,Distractor2.bmp,2,0,,0,1,1197932,401,,0,0,lime,400,1,400,,vertical,red,Target1.bmp,blue,Distractor2.bmp,yellow,Distractor1.bmp,purple,Distractor2.bmp,cyan,Distractor1.bmp,lime,Distractor1.bmp,,,,TrialProc,6,TrainingTrialList,1,1,-999999,1,1198333,0,1,876,1199209,Target1.bmp,red,1,,,,7,2,28
KW_Experiment5A,50,1,"<?xml version=""1.0""?>\n<Clock xmlns:dt=""urn:schemas-microsoft-com:datatypes""><Description dt:dt=""string"">E-Prime Primary Realtime Clock</Description><StartTime><Timestamp dt:dt=""int"">0</Timestamp><DateUtc dt:dt=""string"">2018-10-29T17:44:29Z</DateUtc></StartTime><FrequencyChanges><FrequencyChange><Frequency dt:dt=""r8"">3215273</Frequency><Timestamp dt:dt=""r8"">2694996947266</Timestamp><Current dt:dt=""r8"">0</Current><DateUtc dt:dt=""string"">2018-10-29T17:44:29Z</DateUtc></FrequencyChange></FrequencyChanges></Clock>\n",KW_Experiment5A-50-1,59.944,1.0.0.105,1,2053058930,Professional,2.0.10.353,2.0.10.353,10/29/2018,10/29/2018 17:44,13:44:29,2.0.10.248,2,2,1,2,,,,,,,,TrainingProc,BlockList,29,1,Distractor1.bmp,1,0,,0,1,1200234,501,,0,0,blue,500,2,500,3,vertical,blue,Distractor1.bmp,yellow,Distractor2.bmp,red,Distractor1.bmp,cyan,Distractor1.bmp,purple,Distractor2.bmp,lime,Target1.bmp,,,,TrialProc,,TrainingTrialList,1,1,-999999,1,1200735,0,1,594,1201329,Target1.bmp,lime,1,,,,6,2,29
KW_Experiment5A,50,1,"<?xml version=""1.0""?>\n<Clock xmlns:dt=""urn:schemas-microsoft-com:datatypes""><Description dt:dt=""string"">E-Prime Primary Realtime Clock</Description><StartTime><Timestamp dt:dt=""int"">0</Timestamp><DateUtc dt:dt=""string"">2018-10-29T17:44:29Z</DateUtc></StartTime><FrequencyChanges><FrequencyChange><Frequency dt:dt=""r8"">3215273</Frequency><Timestamp dt:dt=""r8"">2694996947266</Timestamp><Current dt:dt=""r8"">0</Current><DateUtc dt:dt=""string"">2018-10-29T17:44:29Z</DateUtc></FrequencyChange></FrequencyChanges></Clock>\n",KW_Experiment5A-50-1,59.944,1.0.0.105,1,2053058930,Professional,2.0.10.353,2.0.10.353,10/29/2018,10/29/2018 17:44,13:44:29,2.0.10.248,2,2,1,2,,,,,,,,TrainingProc,BlockList,30,2,Distractor2.bmp,2,0,,0,1,1202353,400,,0,0,cyan,400,1,400,4,horizontal,cyan,Distractor1.bmp,red,Distractor2.bmp,yellow,Distractor1.bmp,lime,Target2.bmp,purple,Distractor2.bmp,blue,Distractor1.bmp,,,,TrialProc,,TrainingTrialList,1,2,-999999,0,1202753,0,2,872,1203625,Target2.bmp,lime,2,,,,4,2,30
KW_Experiment5A,50,1,"<?xml version=""1.0""?>\n<Clock xmlns:dt=""urn:schemas-microsoft-com:datatypes""><Description dt:dt=""string"">E-Prime Primary Realtime Clock</Description><StartTime><Timestamp dt:dt=""int"">0</Timestamp><DateUtc dt:dt=""string"">2018-10-29T17:44:29Z</DateUtc></StartTime><FrequencyChanges><FrequencyChange><Frequency dt:dt=""r8"">3215273</Frequency><Timestamp dt:dt=""r8"">2694996947266</Timestamp><Current dt:dt=""r8"">0</Current><DateUtc dt:dt=""string"">2018-10-29T17:44:29Z</DateUtc></FrequencyChange></FrequencyChanges></Clock>\n",KW_Experiment5A-50-1,59.944,1.0.0.105,1,2053058930,Professional,2.0.10.353,2.0.10.353,10/29/2018,10/29/2018 17:44,13:44:29,2.0.10.248,2,2,1,2,,,,,,,,TrainingProc,BlockList,31,1,Distractor1.bmp,1,0,,0,1,1204638,601,,0,0,cyan,600,3,600,4,vertical,cyan,Distractor1.bmp,blue,Distractor1.bmp,red,Distractor2.bmp,purple,Distractor2.bmp,yellow,Distractor2.bmp,lime,Target1.bmp,,,,TrialProc,,TrainingTrialList,1,1,-999999,1,1205239,0,1,482,1205721,Target1.bmp,lime,1,,,,6,2,31
KW_Experiment5A,50,1,"<?xml version=""1.0""?>\n<Clock xmlns:dt=""urn:schemas-microsoft-com:datatypes""><Description dt:dt=""string"">E-Prime Primary Realtime Clock</Description><StartTime><Timestamp dt:dt=""int"">0</Timestamp><DateUtc dt:dt=""string"">2018-10-29T17:44:29Z</DateUtc></StartTime><FrequencyChanges><FrequencyChange><Frequency dt:dt=""r8"">3215273</Frequency><Timestamp dt:dt=""r8"">2694996947266</Timestamp><Current dt:dt=""r8"">0</Current><DateUtc dt:dt=""string"">2018-10-29T17:44:29Z</DateUtc></FrequencyChange></FrequencyChanges></Clock>\n",KW_Experiment5A-50-1,59.944,1.0.0.105,1,2053058930,Professional,2.0.10.353,2.0.10.353,10/29/2018,10/29/2018 17:44,13:44:29,2.0.10.248,2,2,1,2,,,,,,,,TrainingProc,BlockList,32,2,Distractor2.bmp,2,0,,0,1,1206740,501,,0,0,yellow,500,2,500,,horizontal,yellow,Distractor1.bmp,purple,Distractor2.bmp,red,Target2.bmp,blue,Distractor2.bmp,lime,Distractor1.bmp,cyan,Distractor2.bmp,,,,TrialProc,2,TrainingTrialList,1,2,-999999,1,1207241,0,2,712,1207953,Target2.bmp,red,2,,,,9,2,32
KW_Experiment5A,50,1,"<?xml version=""1.0""?>\n<Clock xmlns:dt=""urn:schemas-microsoft-com:datatypes""><Description dt:dt=""string"">E-Prime Primary Realtime Clock</Description><StartTime><Timestamp dt:dt=""int"">0</Timestamp><DateUtc dt:dt=""string"">2018-10-29T17:44:29Z</DateUtc></StartTime><FrequencyChanges><FrequencyChange><Frequency dt:dt=""r8"">3215273</Frequency><Timestamp dt:dt=""r8"">2694996947266</Timestamp><Current dt:dt=""r8"">0</Current><DateUtc dt:dt=""string"">2018-10-29T17:44:29Z</DateUtc></FrequencyChange></FrequencyChanges></Clock>\n",KW_Experiment5A-50-1,59.944,1.0.0.105,1,2053058930,Professional,2.0.10.353,2.0.10.353,10/29/2018,10/29/2018 17:44,13:44:29,2.0.10.248,2,2,1,2,,,,,,,,TrainingProc,BlockList,33,2,Distractor1.bmp,1,0,,0,1,1208976,600,,0,0,lime,600,3,600,,horizontal,lime,Distractor2.bmp,purple,Distractor1.bmp,cyan,Distractor1.bmp,red,Target2.bmp,blue,Distractor1.bmp,yellow,Distractor1.bmp,,,,TrialProc,6,TrainingTrialList,1,2,-999999,0,1209576,0,2,1080,1210656,Target2.bmp,red,2,,,,10,2,33
KW_Experiment5A,50,1,"<?xml version=""1.0""?>\n<Clock xmlns:dt=""urn:schemas-microsoft-com:datatypes""><Description dt:dt=""string"">E-Prime Primary Realtime Clock</Description><StartTime><Timestamp dt:dt=""int"">0</Timestamp><DateUtc dt:dt=""string"">2018-10-29T17:44:29Z</DateUtc></StartTime><FrequencyChanges><FrequencyChange><Frequency dt:dt=""r8"">3215273</Frequency><Timestamp dt:dt=""r8"">2694996947266</Timestamp><Current dt:dt=""r8"">0</Current><DateUtc dt:dt=""string"">2018-10-29T17:44:29Z</DateUtc></FrequencyChange></FrequencyChanges></Clock>\n",KW_Experiment5A-50-1,59.944,1.0.0.105,1,2053058930,Professional,2.0.10.353,2.0.10.353,10/29/2018,10/29/2018 17:44,13:44:29,2.0.10.248,2,2,1,2,,,,,,,,TrainingProc,BlockList,34,2,Distractor1.bmp,1,0,,0,1,1211678,501,,0,0,purple,500,2,500,5,horizontal,purple,Distractor1.bmp,red,Distractor1.bmp,cyan,Distractor1.bmp,yellow,Distractor1.bmp,blue,Distractor1.bmp,lime,Target2.bmp,,,,TrialProc,,TrainingTrialList,1,2,-999999,1,1212179,0,2,525,1212704,Target2.bmp,lime,2,,,,6,2,34
KW_Experiment5A,50,1,"<?xml version=""1.0""?>\n<Clock xmlns:dt=""urn:schemas-microsoft-com:datatypes""><Description dt:dt=""string"">E-Prime Primary Realtime Clock</Description><StartTime><Timestamp dt:dt=""int"">0</Timestamp><DateUtc dt:dt=""string"">2018-10-29T17:44:29Z</DateUtc></StartTime><FrequencyChanges><FrequencyChange><Frequency dt:dt=""r8"">3215273</Frequency><Timestamp dt:dt=""r8"">2694996947266</Timestamp><Current dt:dt=""r8"">0</Current><DateUtc dt:dt=""string"">2018-10-29T17:44:29Z</DateUtc></FrequencyChange></FrequencyChanges></Clock>\n",KW_Experiment5A-50-1,59.944,1.0.0.105,1,2053058930,Professional,2.0.10.353,2.0.10.353,10/29/2018,10/29/2018 17:44,13:44:29,2.0.10.248,2,2,1,2,,,,,,,,TrainingProc,BlockList,35,1,Distractor2.bmp,2,0,,0,1,1213730,600,,0,0,yellow,600,3,600,2,vertical,yellow,Distractor2.bmp,lime,Target1.bmp,purple,Distractor2.bmp,cyan,Distractor2.bmp,blue,Distractor2.bmp,red,Distractor2.bmp,,,,TrialProc,,TrainingTrialList,1,1,-999999,0,1214330,0,1,958,1215288,Target1.bmp,lime,1,,,,2,2,35
KW_Experiment5A,50,1,"<?xml version=""1.0""?>\n<Clock xmlns:dt=""urn:schemas-microsoft-com:datatypes""><Description dt:dt=""string"">E-Prime Primary Realtime Clock</Description><StartTime><Timestamp dt:dt=""int"">0</Timestamp><DateUtc dt:dt=""string"">2018-10-29T17:44:29Z</DateUtc></StartTime><FrequencyChanges><FrequencyChange><Frequency dt:dt=""r8"">3215273</Frequency><Timestamp dt:dt=""r8"">2694996947266</Timestamp><Current dt:dt=""r8"">0</Current><DateUtc dt:dt=""string"">2018-10-29T17:44:29Z</DateUtc></FrequencyChange></FrequencyChanges></Clock>\n",KW_Experiment5A-50-1,59.944,1.0.0.105,1,2053058930,Professional,2.0.10.353,2.0.10.353,10/29/2018,10/29/2018 17:44,13:44:29,2.0.10.248,2,2,1,2,,,,,,,,TrainingProc,BlockList,36,1,Distractor1.bmp,1,0,,0,1,1216299,601,,0,0,blue,600,3,600,3,vertical,blue,Distractor2.bmp,red,Distractor1.bmp,lime,Target1.bmp,yellow,Distractor1.bmp,purple,Distractor2.bmp,cyan,Distractor2.bmp,,,,TrialProc,,TrainingTrialList,0,1,-999999,1,1216900,0,2,724,1217624,Target1.bmp,lime,1,,,,3,2,36
KW_Experiment5A,50,1,"<?xml version=""1.0""?>\n<Clock xmlns:dt=""urn:schemas-microsoft-com:datatypes""><Description dt:dt=""string"">E-Prime Primary Realtime Clock</Description><StartTime><Timestamp dt:dt=""int"">0</Timestamp><DateUtc dt:dt=""string"">2018-10-29T17:44:29Z</DateUtc></StartTime><FrequencyChanges><FrequencyChange><Frequency dt:dt=""r8"">3215273</Frequency><Timestamp dt:dt=""r8"">2694996947266</Timestamp><Current dt:dt=""r8"">0</Current><DateUtc dt:dt=""string"">2018-10-29T17:44:29Z</DateUtc></FrequencyChange></FrequencyChanges></Clock>\n",KW_Experiment5A-50-1,59.944,1.0.0.105,1,2053058930,Professional,2.0.10.353,2.0.10.353,10/29/2018,10/29/2018 17:44,13:44:29,2.0.10.248,2,2,1,2,,,,,,,,TrainingProc,BlockList,37,1,Distractor1.bmp,1,0,,0,1,1218651,601,,0,0,blue,600,3,600,3,vertical,blue,Distractor1.bmp,cyan,Distractor1.bmp,purple,Distractor2.bmp,red,Distractor1.bmp,lime,Target1.bmp,yellow,Distractor1.bmp,,,,TrialProc,,TrainingTrialList,1,1,-999999,1,1219252,0,1,588,1219840,Target1.bmp,lime,1,,,,5,2,37
KW_Experiment5A,50,1,"<?xml version=""1.0""?>\n<Clock xmlns:dt=""urn:schemas-microsoft-com:datatypes""><Description dt:dt=""string"">E-Prime Primary Realtime Clock</Description><StartTime><Timestamp dt:dt=""int"">0</Timestamp><DateUtc dt:dt=""string"">2018-10-29T17:44:29Z</DateUtc></StartTime><FrequencyChanges><FrequencyChange><Frequency dt:dt=""r8"">3215273</Frequency><Timestamp dt:dt=""r8"">2694996947266</Timestamp><Current dt:dt=""r8"">0</Current><DateUtc dt:dt=""string"">2018-10-29T17:44:29Z</DateUtc></FrequencyChange></FrequencyChanges></Clock>\n",KW_Experiment5A-50-1,59.944,1.0.0.105,1,2053058930,Professional,2.0.10.353,2.0.10.353,10/29/2018,10/29/2018 17:44,13:44:29,2.0.10.248,2,2,1,2,,,,,,,,TrainingProc,BlockList,38,2,Distractor1.bmp,1,0,,0,1,1220853,501,,0,0,yellow,500,2,500,2,horizontal,lime,Target2.bmp,yellow,Distractor1.bmp,purple,Distractor2.bmp,red,Distractor2.bmp,blue,Distractor2.bmp,cyan,Distractor1.bmp,,,,TrialProc,,TrainingTrialList,1,2,-999999,1,1221354,0,2,574,1221928,Target2.bmp,lime,2,,,,1,2,38
KW_Experiment5A,50,1,"<?xml version=""1.0""?>\n<Clock xmlns:dt=""urn:schemas-microsoft-com:datatypes""><Description dt:dt=""string"">E-Prime Primary Realtime Clock</Description><StartTime><Timestamp dt:dt=""int"">0</Timestamp><DateUtc dt:dt=""string"">2018-10-29T17:44:29Z</DateUtc></StartTime><FrequencyChanges><FrequencyChange><Frequency dt:dt=""r8"">3215273</Frequency><Timestamp dt:dt=""r8"">2694996947266</Timestamp><Current dt:dt=""r8"">0</Current><DateUtc dt:dt=""string"">2018-10-29T17:44:29Z</DateUtc></FrequencyChange></FrequencyChanges></Clock>\n",KW_Experiment5A-50-1,59.944,1.0.0.105,1,2053058930,Professional,2.0.10.353,2.0.10.353,10/29/2018,10/29/2018 17:44,13:44:29,2.0.10.248,2,2,1,2,,,,,,,,TrainingProc,BlockList,39,1,Distractor1.bmp,1,0,,0,1,1222938,401,,0,0,blue,400,1,400,3,vertical,blue,Distractor1.bmp,yellow,Distractor1.bmp,lime,Target1.bmp,red,Distractor1.bmp,cyan,Distractor1.bmp,purple,Distractor1.bmp,,,,TrialProc,,TrainingTrialList,0,1,-999999,1,1223339,0,2,621,1223960,Target1.bmp,lime,1,,,,3,2,39
KW_Experiment5A,50,1,"<?xml version=""1.0""?>\n<Clock xmlns:dt=""urn:schemas-microsoft-com:datatypes""><Description dt:dt=""string"">E-Prime Primary Realtime Clock</Description><StartTime><Timestamp dt:dt=""int"">0</Timestamp><DateUtc dt:dt=""string"">2018-10-29T17:44:29Z</DateUtc></StartTime><FrequencyChanges><FrequencyChange><Frequency dt:dt=""r8"">3215273</Frequency><Timestamp dt:dt=""r8"">2694996947266</Timestamp><Current dt:dt=""r8"">0</Current><DateUtc dt:dt=""string"">2018-10-29T17:44:29Z</DateUtc></FrequencyChange></FrequencyChanges></Clock>\n",KW_Experiment5A-50-1,59.944,1.0.0.105,1,2053058930,Professional,2.0.10.353,2.0.10.353,10/29/2018,10/29/2018 17:44,13:44:29,2.0.10.248,2,2,1,2,,,,,,,,TrainingProc,BlockList,40,2,Distractor1.bmp,1,0,,0,1,1224974,600,,0,0,yellow,600,3,600,2,horizontal,lime,Target2.bmp,yellow,Distractor1.bmp,cyan,Distractor2.bmp,red,Distractor2.bmp,blue,Distractor1.bmp,purple,Distractor2.bmp,,,,TrialProc,,TrainingTrialList,1,2,-999999,0,1225574,0,2,706,1226280,Target2.bmp,lime,2,,,,1,2,40
KW_Experiment5A,50,1,"<?xml version=""1.0""?>\n<Clock xmlns:dt=""urn:schemas-microsoft-com:datatypes""><Description dt:dt=""string"">E-Prime Primary Realtime Clock</Description><StartTime><Timestamp dt:dt=""int"">0</Timestamp><DateUtc dt:dt=""string"">2018-10-29T17:44:29Z</DateUtc></StartTime><FrequencyChanges><FrequencyChange><Frequency dt:dt=""r8"">3215273</Frequency><Timestamp dt:dt=""r8"">2694996947266</Timestamp><Current dt:dt=""r8"">0</Current><DateUtc dt:dt=""string"">2018-10-29T17:44:29Z</DateUtc></FrequencyChange></FrequencyChanges></Clock>\n",KW_Experiment5A-50-1,59.944,1.0.0.105,1,2053058930,Professional,2.0.10.353,2.0.10.353,10/29/2018,10/29/2018 17:44,13:44:29,2.0.10.248,2,2,1,2,,,,,,,,TrainingProc,BlockList,41,1,Distractor2.bmp,2,0,,0,1,1227292,601,,0,0,blue,600,3,600,,vertical,blue,Distractor2.bmp,yellow,Distractor2.bmp,cyan,Distractor2.bmp,purple,Distractor1.bmp,lime,Distractor1.bmp,red,Target1.bmp,,,,TrialProc,3,TrainingTrialList,1,1,-999999,1,1227893,0,1,923,1228816,Target1.bmp,red,1,,,,12,2,41
KW_Experiment5A,50,1,"<?xml version=""1.0""?>\n<Clock xmlns:dt=""urn:schemas-microsoft-com:datatypes""><Description dt:dt=""string"">E-Prime Primary Realtime Clock</Description><StartTime><Timestamp dt:dt=""int"">0</Timestamp><DateUtc dt:dt=""string"">2018-10-29T17:44:29Z</DateUtc></StartTime><FrequencyChanges><FrequencyChange><Frequency dt:dt=""r8"">3215273</Frequency><Timestamp dt:dt=""r8"">2694996947266</Timestamp><Current dt:dt=""r8"">0</Current><DateUtc dt:dt=""string"">2018-10-29T17:44:29Z</DateUtc></FrequencyChange></FrequencyChanges></Clock>\n",KW_Experiment5A-50-1,59.944,1.0.0.105,1,2053058930,Professional,2.0.10.353,2.0.10.353,10/29/2018,10/29/2018 17:44,13:44:29,2.0.10.248,2,2,1,2,,,,,,,,TrainingProc,BlockList,42,1,Distractor1.bmp,1,0,,0,1,1229828,601,,0,0,purple,600,3,600,5,vertical,purple,Distractor2.bmp,cyan,Distractor1.bmp,red,Distractor1.bmp,lime,Target1.bmp,blue,Distractor1.bmp,yellow,Distractor1.bmp,,,,TrialProc,,TrainingTrialList,1,1,-999999,1,1230429,0,1,691,1231120,Target1.bmp,lime,1,,,,4,2,42
KW_Experiment5A,50,1,"<?xml version=""1.0""?>\n<Clock xmlns:dt=""urn:schemas-microsoft-com:datatypes""><Description dt:dt=""string"">E-Prime Primary Realtime Clock</Description><StartTime><Timestamp dt:dt=""int"">0</Timestamp><DateUtc dt:dt=""string"">2018-10-29T17:44:29Z</DateUtc></StartTime><FrequencyChanges><FrequencyChange><Frequency dt:dt=""r8"">3215273</Frequency><Timestamp dt:dt=""r8"">2694996947266</Timestamp><Current dt:dt=""r8"">0</Current><DateUtc dt:dt=""string"">2018-10-29T17:44:29Z</DateUtc></FrequencyChange></FrequencyChanges></Clock>\n",KW_Experiment5A-50-1,59.944,1.0.0.105,1,2053058930,Professional,2.0.10.353,2.0.10.353,10/29/2018,10/29/2018 17:44,13:44:29,2.0.10.248,2,2,1,2,,,,,,,,TrainingProc,BlockList,43,1,Distractor2.bmp,2,0,,0,1,1232130,501,,0,0,red,500,2,500,1,vertical,red,Distractor1.bmp,purple,Distractor2.bmp,lime,Target1.bmp,blue,Distractor2.bmp,yellow,Distractor2.bmp,cyan,Distractor2.bmp,,,,TrialProc,,TrainingTrialList,1,1,-999999,1,1232631,0,1,681,1233312,Target1.bmp,lime,1,,,,3,2,43
KW_Experiment5A,50,1,"<?xml version=""1.0""?>\n<Clock xmlns:dt=""urn:schemas-microsoft-com:datatypes""><Description dt:dt=""string"">E-Prime Primary Realtime Clock</Description><StartTime><Timestamp dt:dt=""int"">0</Timestamp><DateUtc dt:dt=""string"">2018-10-29T17:44:29Z</DateUtc></StartTime><FrequencyChanges><FrequencyChange><Frequency dt:dt=""r8"">3215273</Frequency><Timestamp dt:dt=""r8"">2694996947266</Timestamp><Current dt:dt=""r8"">0</Current><DateUtc dt:dt=""string"">2018-10-29T17:44:29Z</DateUtc></FrequencyChange></FrequencyChanges></Clock>\n",KW_Experiment5A-50-1,59.944,1.0.0.105,1,2053058930,Professional,2.0.10.353,2.0.10.353,10/29/2018,10/29/2018 17:44,13:44:29,2.0.10.248,2,2,1,2,,,,,,,,TrainingProc,BlockList,44,1,Distractor2.bmp,2,0,,0,1,1234332,601,,0,0,blue,600,3,600,3,vertical,blue,Distractor1.bmp,lime,Target1.bmp,yellow,Distractor2.bmp,red,Distractor1.bmp,cyan,Distractor1.bmp,purple,Distractor2.bmp,,,,TrialProc,,TrainingTrialList,1,1,-999999,1,1234933,0,1,643,1235576,Target1.bmp,lime,1,,,,2,2,44
KW_Experiment5A,50,1,"<?xml version=""1.0""?>\n<Clock xmlns:dt=""urn:schemas-microsoft-com:datatypes""><Description dt:dt=""string"">E-Prime Primary Realtime Clock</Description><StartTime><Timestamp dt:dt=""int"">0</Timestamp><DateUtc dt:dt=""string"">2018-10-29T17:44:29Z</DateUtc></StartTime><FrequencyChanges><FrequencyChange><Frequency dt:dt=""r8"">3215273</Frequency><Timestamp dt:dt=""r8"">2694996947266</Timestamp><Current dt:dt=""r8"">0</Current><DateUtc dt:dt=""string"">2018-10-29T17:44:29Z</DateUtc></FrequencyChange></FrequencyChanges></Clock>\n",KW_Experiment5A-50-1,59.944,1.0.0.105,1,2053058930,Professional,2.0.10.353,2.0.10.353,10/29/2018,10/29/2018 17:44,13:44:29,2.0.10.248,2,2,1,2,,,,,,,,TrainingProc,BlockList,45,2,Distractor1.bmp,1,0,,0,1,1236601,500,,0,0,yellow,500,2,500,2,horizontal,yellow,Distractor1.bmp,cyan,Distractor1.bmp,red,Distractor1.bmp,purple,Distractor1.bmp,lime,Target2.bmp,blue,Distractor1.bmp,,,,TrialProc,,TrainingTrialList,1,2,-999999,0,1237101,0,2,635,1237736,Target2.bmp,lime,2,,,,5,2,45
KW_Experiment5A,50,1,"<?xml version=""1.0""?>\n<Clock xmlns:dt=""urn:schemas-microsoft-com:datatypes""><Description dt:dt=""string"">E-Prime Primary Realtime Clock</Description><StartTime><Timestamp dt:dt=""int"">0</Timestamp><DateUtc dt:dt=""string"">2018-10-29T17:44:29Z</DateUtc></StartTime><FrequencyChanges><FrequencyChange><Frequency dt:dt=""r8"">3215273</Frequency><Timestamp dt:dt=""r8"">2694996947266</Timestamp><Current dt:dt=""r8"">0</Current><DateUtc dt:dt=""string"">2018-10-29T17:44:29Z</DateUtc></FrequencyChange></FrequencyChanges></Clock>\n",KW_Experiment5A-50-1,59.944,1.0.0.105,1,2053058930,Professional,2.0.10.353,2.0.10.353,10/29/2018,10/29/2018 17:44,13:44:29,2.0.10.248,2,2,1,2,,,,,,,,TrainingProc,BlockList,46,1,Distractor1.bmp,1,0,,0,1,1238753,500,,0,0,yellow,500,2,500,2,vertical,yellow,Distractor2.bmp,red,Distractor2.bmp,cyan,Distractor1.bmp,lime,Target1.bmp,purple,Distractor1.bmp,blue,Distractor2.bmp,,,,TrialProc,,TrainingTrialList,1,1,-999999,0,1239253,0,1,1155,1240408,Target1.bmp,lime,1,,,,4,2,46
KW_Experiment5A,50,1,"<?xml version=""1.0""?>\n<Clock xmlns:dt=""urn:schemas-microsoft-com:datatypes""><Description dt:dt=""string"">E-Prime Primary Realtime Clock</Description><StartTime><Timestamp dt:dt=""int"">0</Timestamp><DateUtc dt:dt=""string"">2018-10-29T17:44:29Z</DateUtc></StartTime><FrequencyChanges><FrequencyChange><Frequency dt:dt=""r8"">3215273</Frequency><Timestamp dt:dt=""r8"">2694996947266</Timestamp><Current dt:dt=""r8"">0</Current><DateUtc dt:dt=""string"">2018-10-29T17:44:29Z</DateUtc></FrequencyChange></FrequencyChanges></Clock>\n",KW_Experiment5A-50-1,59.944,1.0.0.105,1,2053058930,Professional,2.0.10.353,2.0.10.353,10/29/2018,10/29/2018 17:44,13:44:29,2.0.10.248,2,2,1,2,,,,,,,,TrainingProc,BlockList,47,1,Distractor2.bmp,2,0,,0,1,1241422,601,,0,0,yellow,600,3,600,2,vertical,lime,Target1.bmp,yellow,Distractor2.bmp,blue,Distractor1.bmp,cyan,Distractor1.bmp,red,Distractor1.bmp,purple,Distractor2.bmp,,,,TrialProc,,TrainingTrialList,1,1,-999999,1,1242023,0,1,505,1242528,Target1.bmp,lime,1,,,,1,2,47
KW_Experiment5A,50,1,"<?xml version=""1.0""?>\n<Clock xmlns:dt=""urn:schemas-microsoft-com:datatypes""><Description dt:dt=""string"">E-Prime Primary Realtime Clock</Description><StartTime><Timestamp dt:dt=""int"">0</Timestamp><DateUtc dt:dt=""string"">2018-10-29T17:44:29Z</DateUtc></StartTime><FrequencyChanges><FrequencyChange><Frequency dt:dt=""r8"">3215273</Frequency><Timestamp dt:dt=""r8"">2694996947266</Timestamp><Current dt:dt=""r8"">0</Current><DateUtc dt:dt=""string"">2018-10-29T17:44:29Z</DateUtc></FrequencyChange></FrequencyChanges></Clock>\n",KW_Experiment5A-50-1,59.944,1.0.0.105,1,2053058930,Professional,2.0.10.353,2.0.10.353,10/29/2018,10/29/2018 17:44,13:44:29,2.0.10.248,2,2,1,2,,,,,,,,TrainingProc,BlockList,48,1,Distractor2.bmp,2,0,,0,1,1243541,400,,0,0,red,400,1,400,1,vertical,red,Distractor2.bmp,yellow,Distractor2.bmp,blue,Distractor2.bmp,cyan,Distractor1.bmp,lime,Target1.bmp,purple,Distractor2.bmp,,,,TrialProc,,TrainingTrialList,1,1,-999999,0,1243941,0,1,483,1244424,Target1.bmp,lime,1,,,,5,2,48
KW_Experiment5A,50,1,"<?xml version=""1.0""?>\n<Clock xmlns:dt=""urn:schemas-microsoft-com:datatypes""><Description dt:dt=""string"">E-Prime Primary Realtime Clock</Description><StartTime><Timestamp dt:dt=""int"">0</Timestamp><DateUtc dt:dt=""string"">2018-10-29T17:44:29Z</DateUtc></StartTime><FrequencyChanges><FrequencyChange><Frequency dt:dt=""r8"">3215273</Frequency><Timestamp dt:dt=""r8"">2694996947266</Timestamp><Current dt:dt=""r8"">0</Current><DateUtc dt:dt=""string"">2018-10-29T17:44:29Z</DateUtc></FrequencyChange></FrequencyChanges></Clock>\n",KW_Experiment5A-50-1,59.944,1.0.0.105,1,2053058930,Professional,2.0.10.353,2.0.10.353,10/29/2018,10/29/2018 17:44,13:44:29,2.0.10.248,3,2,1,3,,,,,,,,TrainingProc,BlockList,1,1,Distractor2.bmp,2,0,,0,28,1249212,501,,0,0,yellow,500,2,500,2,vertical,yellow,Distractor2.bmp,red,Distractor2.bmp,cyan,Distractor2.bmp,lime,Target1.bmp,blue,Distractor2.bmp,purple,Distractor1.bmp,,,,TrialProc,,TrainingTrialList,0,1,-999999,1,1249713,0,2,679,1250392,Target1.bmp,lime,1,,,,4,3,49
KW_Experiment5A,50,1,"<?xml version=""1.0""?>\n<Clock xmlns:dt=""urn:schemas-microsoft-com:datatypes""><Description dt:dt=""string"">E-Prime Primary Realtime Clock</Description><StartTime><Timestamp dt:dt=""int"">0</Timestamp><DateUtc dt:dt=""string"">2018-10-29T17:44:29Z</DateUtc></StartTime><FrequencyChanges><FrequencyChange><Frequency dt:dt=""r8"">3215273</Frequency><Timestamp dt:dt=""r8"">2694996947266</Timestamp><Current dt:dt=""r8"">0</Current><DateUtc dt:dt=""string"">2018-10-29T17:44:29Z</DateUtc></FrequencyChange></FrequencyChanges></Clock>\n",KW_Experiment5A-50-1,59.944,1.0.0.105,1,2053058930,Professional,2.0.10.353,2.0.10.353,10/29/2018,10/29/2018 17:44,13:44:29,2.0.10.248,3,2,1,3,,,,,,,,TrainingProc,BlockList,2,1,Distractor2.bmp,2,0,,1,0,1251414,601,,0,0,cyan,600,3,600,4,vertical,cyan,Distractor1.bmp,lime,Target1.bmp,purple,Distractor2.bmp,red,Distractor1.bmp,blue,Distractor1.bmp,yellow,Distractor1.bmp,,,,TrialProc,,TrainingTrialList,1,1,-999999,1,1252015,0,1,521,1252536,Target1.bmp,lime,1,,,,2,3,50
KW_Experiment5A,50,1,"<?xml version=""1.0""?>\n<Clock xmlns:dt=""urn:schemas-microsoft-com:datatypes""><Description dt:dt=""string"">E-Prime Primary Realtime Clock</Description><StartTime><Timestamp dt:dt=""int"">0</Timestamp><DateUtc dt:dt=""string"">2018-10-29T17:44:29Z</DateUtc></StartTime><FrequencyChanges><FrequencyChange><Frequency dt:dt=""r8"">3215273</Frequency><Timestamp dt:dt=""r8"">2694996947266</Timestamp><Current dt:dt=""r8"">0</Current><DateUtc dt:dt=""string"">2018-10-29T17:44:29Z</DateUtc></FrequencyChange></FrequencyChanges></Clock>\n",KW_Experiment5A-50-1,59.944,1.0.0.105,1,2053058930,Professional,2.0.10.353,2.0.10.353,10/29/2018,10/29/2018 17:44,13:44:29,2.0.10.248,3,2,1,3,,,,,,,,TrainingProc,BlockList,3,2,Distractor1.bmp,1,0,,0,1,1253550,600,,0,0,lime,600,3,600,,horizontal,lime,Distractor1.bmp,blue,Distractor2.bmp,purple,Distractor2.bmp,cyan,Distractor1.bmp,yellow,Distractor1.bmp,red,Target2.bmp,,,,TrialProc,6,TrainingTrialList,1,2,-999999,0,1254150,0,2,690,1254840,Target2.bmp,red,2,,,,12,3,51
KW_Experiment5A,50,1,"<?xml version=""1.0""?>\n<Clock xmlns:dt=""urn:schemas-microsoft-com:datatypes""><Description dt:dt=""string"">E-Prime Primary Realtime Clock</Description><StartTime><Timestamp dt:dt=""int"">0</Timestamp><DateUtc dt:dt=""string"">2018-10-29T17:44:29Z</DateUtc></StartTime><FrequencyChanges><FrequencyChange><Frequency dt:dt=""r8"">3215273</Frequency><Timestamp dt:dt=""r8"">2694996947266</Timestamp><Current dt:dt=""r8"">0</Current><DateUtc dt:dt=""string"">2018-10-29T17:44:29Z</DateUtc></FrequencyChange></FrequencyChanges></Clock>\n",KW_Experiment5A-50-1,59.944,1.0.0.105,1,2053058930,Professional,2.0.10.353,2.0.10.353,10/29/2018,10/29/2018 17:44,13:44:29,2.0.10.248,3,2,1,3,,,,,,,,TrainingProc,BlockList,4,1,Distractor2.bmp,2,0,,0,1,1255852,600,,0,0,cyan,600,3,600,4,vertical,cyan,Distractor1.bmp,lime,Target1.bmp,purple,Distractor2.bmp,red,Distractor2.bmp,yellow,Distractor2.bmp,blue,Distractor2.bmp,,,,TrialProc,,TrainingTrialList,1,1,-999999,0,1256452,0,1,908,1257360,Target1.bmp,lime,1,,,,2,3,52
KW_Experiment5A,50,1,"<?xml version=""1.0""?>\n<Clock xmlns:dt=""urn:schemas-microsoft-com:datatypes""><Description dt:dt=""string"">E-Prime Primary Realtime Clock</Description><StartTime><Timestamp dt:dt=""int"">0</Timestamp><DateUtc dt:dt=""string"">2018-10-29T17:44:29Z</DateUtc></StartTime><FrequencyChanges><FrequencyChange><Frequency dt:dt=""r8"">3215273</Frequency><Timestamp dt:dt=""r8"">2694996947266</Timestamp><Current dt:dt=""r8"">0</Current><DateUtc dt:dt=""string"">2018-10-29T17:44:29Z</DateUtc></FrequencyChange></FrequencyChanges></Clock>\n",KW_Experiment5A-50-1,59.944,1.0.0.105,1,2053058930,Professional,2.0.10.353,2.0.10.353,10/29/2018,10/29/2018 17:44,13:44:29,2.0.10.248,3,2,1,3,,,,,,,,TrainingProc,BlockList,5,1,Distractor2.bmp,2,0,,0,1,1258371,500,,0,0,cyan,500,2,500,4,vertical,cyan,Distractor2.bmp,yellow,Distractor2.bmp,blue,Distractor2.bmp,lime,Target1.bmp,purple,Distractor2.bmp,red,Distractor1.bmp,,,,TrialProc,,TrainingTrialList,1,1,-999999,0,1258871,0,1,753,1259624,Target1.bmp,lime,1,,,,4,3,53
KW_Experiment5A,50,1,"<?xml version=""1.0""?>\n<Clock xmlns:dt=""urn:schemas-microsoft-com:datatypes""><Description dt:dt=""string"">E-Prime Primary Realtime Clock</Description><StartTime><Timestamp dt:dt=""int"">0</Timestamp><DateUtc dt:dt=""string"">2018-10-29T17:44:29Z</DateUtc></StartTime><FrequencyChanges><FrequencyChange><Frequency dt:dt=""r8"">3215273</Frequency><Timestamp dt:dt=""r8"">2694996947266</Timestamp><Current dt:dt=""r8"">0</Current><DateUtc dt:dt=""string"">2018-10-29T17:44:29Z</DateUtc></FrequencyChange></FrequencyChanges></Clock>\n",KW_Experiment5A-50-1,59.944,1.0.0.105,1,2053058930,Professional,2.0.10.353,2.0.10.353,10/29/2018,10/29/2018 17:44,13:44:29,2.0.10.248,3,2,1,3,,,,,,,,TrainingProc,BlockList,6,1,Distractor2.bmp,2,0,,0,1,1260640,600,,0,0,blue,600,3,600,3,vertical,blue,Distractor2.bmp,yellow,Distractor1.bmp,red,Distractor1.bmp,purple,Distractor1.bmp,cyan,Distractor2.bmp,lime,Target1.bmp,,,,TrialProc,,TrainingTrialList,1,1,-999999,0,1261240,0,1,448,1261688,Target1.bmp,lime,1,,,,6,3,54
KW_Experiment5A,50,1,"<?xml version=""1.0""?>\n<Clock xmlns:dt=""urn:schemas-microsoft-com:datatypes""><Description dt:dt=""string"">E-Prime Primary Realtime Clock</Description><StartTime><Timestamp dt:dt=""int"">0</Timestamp><DateUtc dt:dt=""string"">2018-10-29T17:44:29Z</DateUtc></StartTime><FrequencyChanges><FrequencyChange><Frequency dt:dt=""r8"">3215273</Frequency><Timestamp dt:dt=""r8"">2694996947266</Timestamp><Current dt:dt=""r8"">0</Current><DateUtc dt:dt=""string"">2018-10-29T17:44:29Z</DateUtc></FrequencyChange></FrequencyChanges></Clock>\n",KW_Experiment5A-50-1,59.944,1.0.0.105,1,2053058930,Professional,2.0.10.353,2.0.10.353,10/29/2018,10/29/2018 17:44,13:44:29,2.0.10.248,3,2,1,3,,,,,,,,TrainingProc,BlockList,7,2,Distractor1.bmp,1,0,,0,1,1262708,400,,0,0,red,400,1,400,1,horizontal,red,Distractor2.bmp,purple,Distractor1.bmp,yellow,Distractor2.bmp,cyan,Distractor2.bmp,lime,Target2.bmp,blue,Distractor1.bmp,,,,TrialProc,,TrainingTrialList,1,2,-999999,0,1263108,0,2,563,1263671,Target2.bmp,lime,2,,,,5,3,55
KW_Experiment5A,50,1,"<?xml version=""1.0""?>\n<Clock xmlns:dt=""urn:schemas-microsoft-com:datatypes""><Description dt:dt=""string"">E-Prime Primary Realtime Clock</Description><StartTime><Timestamp dt:dt=""int"">0</Timestamp><DateUtc dt:dt=""string"">2018-10-29T17:44:29Z</DateUtc></StartTime><FrequencyChanges><FrequencyChange><Frequency dt:dt=""r8"">3215273</Frequency><Timestamp dt:dt=""r8"">2694996947266</Timestamp><Current dt:dt=""r8"">0</Current><DateUtc dt:dt=""string"">2018-10-29T17:44:29Z</DateUtc></FrequencyChange></FrequencyChanges></Clock>\n",KW_Experiment5A-50-1,59.944,1.0.0.105,1,2053058930,Professional,2.0.10.353,2.0.10.353,10/29/2018,10/29/2018 17:44,13:44:29,2.0.10.248,3,2,1,3,,,,,,,,TrainingProc,BlockList,8,2,Distractor1.bmp,1,0,,0,1,1264693,601,,0,0,blue,600,3,600,,horizontal,blue,Distractor2.bmp,yellow,Distractor1.bmp,red,Target2.bmp,lime,Distractor1.bmp,purple,Distractor2.bmp,cyan,Distractor2.bmp,,,,TrialProc,3,TrainingTrialList,1,2,-999999,1,1265294,0,2,1177,1266471,Target2.bmp,red,2,,,,9,3,56
KW_Experiment5A,50,1,"<?xml version=""1.0""?>\n<Clock xmlns:dt=""urn:schemas-microsoft-com:datatypes""><Description dt:dt=""string"">E-Prime Primary Realtime Clock</Description><StartTime><Timestamp dt:dt=""int"">0</Timestamp><DateUtc dt:dt=""string"">2018-10-29T17:44:29Z</DateUtc></StartTime><FrequencyChanges><FrequencyChange><Frequency dt:dt=""r8"">3215273</Frequency><Timestamp dt:dt=""r8"">2694996947266</Timestamp><Current dt:dt=""r8"">0</Current><DateUtc dt:dt=""string"">2018-10-29T17:44:29Z</DateUtc></FrequencyChange></FrequencyChanges></Clock>\n",KW_Experiment5A-50-1,59.944,1.0.0.105,1,2053058930,Professional,2.0.10.353,2.0.10.353,10/29/2018,10/29/2018 17:44,13:44:29,2.0.10.248,3,2,1,3,,,,,,,,TrainingProc,BlockList,9,1,Distractor1.bmp,1,0,,0,1,1267496,400,,0,0,blue,400,1,400,,vertical,blue,Distractor1.bmp,red,Target1.bmp,yellow,Distractor1.bmp,cyan,Distractor2.bmp,lime,Distractor1.bmp,purple,Distractor1.bmp,,,,TrialProc,3,TrainingTrialList,1,1,-999999,0,1267896,0,1,783,1268679,Target1.bmp,red,1,,,,8,3,57
KW_Experiment5A,50,1,"<?xml version=""1.0""?>\n<Clock xmlns:dt=""urn:schemas-microsoft-com:datatypes""><Description dt:dt=""string"">E-Prime Primary Realtime Clock</Description><StartTime><Timestamp dt:dt=""int"">0</Timestamp><DateUtc dt:dt=""string"">2018-10-29T17:44:29Z</DateUtc></StartTime><FrequencyChanges><FrequencyChange><Frequency dt:dt=""r8"">3215273</Frequency><Timestamp dt:dt=""r8"">2694996947266</Timestamp><Current dt:dt=""r8"">0</Current><DateUtc dt:dt=""string"">2018-10-29T17:44:29Z</DateUtc></FrequencyChange></FrequencyChanges></Clock>\n",KW_Experiment5A-50-1,59.944,1.0.0.105,1,2053058930,Professional,2.0.10.353,2.0.10.353,10/29/2018,10/29/2018 17:44,13:44:29,2.0.10.248,3,2,1,3,,,,,,,,TrainingProc,BlockList,10,2,Distractor1.bmp,1,0,,0,1,1269698,600,,0,0,blue,600,3,600,3,horizontal,blue,Distractor1.bmp,purple,Distractor2.bmp,yellow,Distractor1.bmp,red,Distractor2.bmp,lime,Target2.bmp,cyan,Distractor1.bmp,,,,TrialProc,,TrainingTrialList,1,2,-999999,0,1270298,0,2,749,1271047,Target2.bmp,lime,2,,,,5,3,58
KW_Experiment5A,50,1,"<?xml version=""1.0""?>\n<Clock xmlns:dt=""urn:schemas-microsoft-com:datatypes""><Description dt:dt=""string"">E-Prime Primary Realtime Clock</Description><StartTime><Timestamp dt:dt=""int"">0</Timestamp><DateUtc dt:dt=""string"">2018-10-29T17:44:29Z</DateUtc></StartTime><FrequencyChanges><FrequencyChange><Frequency dt:dt=""r8"">3215273</Frequency><Timestamp dt:dt=""r8"">2694996947266</Timestamp><Current dt:dt=""r8"">0</Current><DateUtc dt:dt=""string"">2018-10-29T17:44:29Z</DateUtc></FrequencyChange></FrequencyChanges></Clock>\n",KW_Experiment5A-50-1,59.944,1.0.0.105,1,2053058930,Professional,2.0.10.353,2.0.10.353,10/29/2018,10/29/2018 17:44,13:44:29,2.0.10.248,3,2,1,3,,,,,,,,TrainingProc,BlockList,11,2,Distractor1.bmp,1,0,,0,1,1272067,400,,0,0,cyan,400,1,400,4,horizontal,cyan,Distractor2.bmp,red,Distractor2.bmp,purple,Distractor2.bmp,lime,Target2.bmp,blue,Distractor1.bmp,yellow,Distractor1.bmp,,,,TrialProc,,TrainingTrialList,1,2,-999999,0,1272467,0,2,876,1273343,Target2.bmp,lime,2,,,,4,3,59
KW_Experiment5A,50,1,"<?xml version=""1.0""?>\n<Clock xmlns:dt=""urn:schemas-microsoft-com:datatypes""><Description dt:dt=""string"">E-Prime Primary Realtime Clock</Description><StartTime><Timestamp dt:dt=""int"">0</Timestamp><DateUtc dt:dt=""string"">2018-10-29T17:44:29Z</DateUtc></StartTime><FrequencyChanges><FrequencyChange><Frequency dt:dt=""r8"">3215273</Frequency><Timestamp dt:dt=""r8"">2694996947266</Timestamp><Current dt:dt=""r8"">0</Current><DateUtc dt:dt=""string"">2018-10-29T17:44:29Z</DateUtc></FrequencyChange></FrequencyChanges></Clock>\n",KW_Experiment5A-50-1,59.944,1.0.0.105,1,2053058930,Professional,2.0.10.353,2.0.10.353,10/29/2018,10/29/2018 17:44,13:44:29,2.0.10.248,3,2,1,3,,,,,,,,TrainingProc,BlockList,12,2,Distractor1.bmp,1,0,,0,1,1274369,600,,0,0,red,600,3,600,1,horizontal,red,Distractor1.bmp,yellow,Distractor1.bmp,purple,Distractor1.bmp,cyan,Distractor1.bmp,blue,Distractor1.bmp,lime,Target2.bmp,,,,TrialProc,,TrainingTrialList,0,2,-999999,0,1274969,0,1,494,1275463,Target2.bmp,lime,2,,,,6,3,60
KW_Experiment5A,50,1,"<?xml version=""1.0""?>\n<Clock xmlns:dt=""urn:schemas-microsoft-com:datatypes""><Description dt:dt=""string"">E-Prime Primary Realtime Clock</Description><StartTime><Timestamp dt:dt=""int"">0</Timestamp><DateUtc dt:dt=""string"">2018-10-29T17:44:29Z</DateUtc></StartTime><FrequencyChanges><FrequencyChange><Frequency dt:dt=""r8"">3215273</Frequency><Timestamp dt:dt=""r8"">2694996947266</Timestamp><Current dt:dt=""r8"">0</Current><DateUtc dt:dt=""string"">2018-10-29T17:44:29Z</DateUtc></FrequencyChange></FrequencyChanges></Clock>\n",KW_Experiment5A-50-1,59.944,1.0.0.105,1,2053058930,Professional,2.0.10.353,2.0.10.353,10/29/2018,10/29/2018 17:44,13:44:29,2.0.10.248,3,2,1,3,,,,,,,,TrainingProc,BlockList,13,1,Distractor2.bmp,2,0,,0,1,1276487,601,,0,0,yellow,600,3,600,2,vertical,lime,Target1.bmp,yellow,Distractor2.bmp,blue,Distractor1.bmp,red,Distractor2.bmp,purple,Distractor1.bmp,cyan,Distractor2.bmp,,,,TrialProc,,TrainingTrialList,1,1,-999999,1,1277088,0,1,615,1277703,Target1.bmp,lime,1,,,,1,3,61
KW_Experiment5A,50,1,"<?xml version=""1.0""?>\n<Clock xmlns:dt=""urn:schemas-microsoft-com:datatypes""><Description dt:dt=""string"">E-Prime Primary Realtime Clock</Description><StartTime><Timestamp dt:dt=""int"">0</Timestamp><DateUtc dt:dt=""string"">2018-10-29T17:44:29Z</DateUtc></StartTime><FrequencyChanges><FrequencyChange><Frequency dt:dt=""r8"">3215273</Frequency><Timestamp dt:dt=""r8"">2694996947266</Timestamp><Current dt:dt=""r8"">0</Current><DateUtc dt:dt=""string"">2018-10-29T17:44:29Z</DateUtc></FrequencyChange></FrequencyChanges></Clock>\n",KW_Experiment5A-50-1,59.944,1.0.0.105,1,2053058930,Professional,2.0.10.353,2.0.10.353,10/29/2018,10/29/2018 17:44,13:44:29,2.0.10.248,3,2,1,3,,,,,,,,TrainingProc,BlockList,14,2,Distractor1.bmp,1,0,,0,1,1278723,600,,0,0,lime,600,3,600,,horizontal,lime,Distractor1.bmp,cyan,Distractor1.bmp,yellow,Distractor2.bmp,red,Target2.bmp,purple,Distractor1.bmp,blue,Distractor1.bmp,,,,TrialProc,6,TrainingTrialList,1,2,-999999,0,1279323,0,2,684,1280007,Target2.bmp,red,2,,,,10,3,62
KW_Experiment5A,50,1,"<?xml version=""1.0""?>\n<Clock xmlns:dt=""urn:schemas-microsoft-com:datatypes""><Description dt:dt=""string"">E-Prime Primary Realtime Clock</Description><StartTime><Timestamp dt:dt=""int"">0</Timestamp><DateUtc dt:dt=""string"">2018-10-29T17:44:29Z</DateUtc></StartTime><FrequencyChanges><FrequencyChange><Frequency dt:dt=""r8"">3215273</Frequency><Timestamp dt:dt=""r8"">2694996947266</Timestamp><Current dt:dt=""r8"">0</Current><DateUtc dt:dt=""string"">2018-10-29T17:44:29Z</DateUtc></FrequencyChange></FrequencyChanges></Clock>\n",KW_Experiment5A-50-1,59.944,1.0.0.105,1,2053058930,Professional,2.0.10.353,2.0.10.353,10/29/2018,10/29/2018 17:44,13:44:29,2.0.10.248,3,2,1,3,,,,,,,,TrainingProc,BlockList,15,2,Distractor2.bmp,2,0,,0,1,1281025,400,,0,0,purple,400,1,400,5,horizontal,purple,Distractor1.bmp,lime,Target2.bmp,blue,Distractor2.bmp,yellow,Distractor1.bmp,red,Distractor1.bmp,cyan,Distractor2.bmp,,,,TrialProc,,TrainingTrialList,1,2,-999999,0,1281425,0,2,742,1282167,Target2.bmp,lime,2,,,,2,3,63
KW_Experiment5A,50,1,"<?xml version=""1.0""?>\n<Clock xmlns:dt=""urn:schemas-microsoft-com:datatypes""><Description dt:dt=""string"">E-Prime Primary Realtime Clock</Description><StartTime><Timestamp dt:dt=""int"">0</Timestamp><DateUtc dt:dt=""string"">2018-10-29T17:44:29Z</DateUtc></StartTime><FrequencyChanges><FrequencyChange><Frequency dt:dt=""r8"">3215273</Frequency><Timestamp dt:dt=""r8"">2694996947266</Timestamp><Current dt:dt=""r8"">0</Current><DateUtc dt:dt=""string"">2018-10-29T17:44:29Z</DateUtc></FrequencyChange></FrequencyChanges></Clock>\n",KW_Experiment5A-50-1,59.944,1.0.0.105,1,2053058930,Professional,2.0.10.353,2.0.10.353,10/29/2018,10/29/2018 17:44,13:44:29,2.0.10.248,3,2,1,3,,,,,,,,TrainingProc,BlockList,16,2,Distractor2.bmp,2,0,,0,1,1283177,500,,0,0,purple,500,2,500,5,horizontal,purple,Distractor1.bmp,blue,Distractor2.bmp,lime,Target2.bmp,yellow,Distractor2.bmp,red,Distractor2.bmp,cyan,Distractor1.bmp,,,,TrialProc,,TrainingTrialList,1,2,-999999,0,1283677,0,2,610,1284287,Target2.bmp,lime,2,,,,3,3,64
KW_Experiment5A,50,1,"<?xml version=""1.0""?>\n<Clock xmlns:dt=""urn:schemas-microsoft-com:datatypes""><Description dt:dt=""string"">E-Prime Primary Realtime Clock</Description><StartTime><Timestamp dt:dt=""int"">0</Timestamp><DateUtc dt:dt=""string"">2018-10-29T17:44:29Z</DateUtc></StartTime><FrequencyChanges><FrequencyChange><Frequency dt:dt=""r8"">3215273</Frequency><Timestamp dt:dt=""r8"">2694996947266</Timestamp><Current dt:dt=""r8"">0</Current><DateUtc dt:dt=""string"">2018-10-29T17:44:29Z</DateUtc></FrequencyChange></FrequencyChanges></Clock>\n",KW_Experiment5A-50-1,59.944,1.0.0.105,1,2053058930,Professional,2.0.10.353,2.0.10.353,10/29/2018,10/29/2018 17:44,13:44:29,2.0.10.248,3,2,1,3,,,,,,,,TrainingProc,BlockList,17,1,Distractor2.bmp,2,0,,0,1,1285312,601,,0,0,cyan,600,3,600,4,vertical,lime,Target1.bmp,cyan,Distractor2.bmp,red,Distractor2.bmp,purple,Distractor1.bmp,blue,Distractor2.bmp,yellow,Distractor2.bmp,,,,TrialProc,,TrainingTrialList,1,1,-999999,1,1285913,0,1,566,1286479,Target1.bmp,lime,1,,,,1,3,65
KW_Experiment5A,50,1,"<?xml version=""1.0""?>\n<Clock xmlns:dt=""urn:schemas-microsoft-com:datatypes""><Description dt:dt=""string"">E-Prime Primary Realtime Clock</Description><StartTime><Timestamp dt:dt=""int"">0</Timestamp><DateUtc dt:dt=""string"">2018-10-29T17:44:29Z</DateUtc></StartTime><FrequencyChanges><FrequencyChange><Frequency dt:dt=""r8"">3215273</Frequency><Timestamp dt:dt=""r8"">2694996947266</Timestamp><Current dt:dt=""r8"">0</Current><DateUtc dt:dt=""string"">2018-10-29T17:44:29Z</DateUtc></FrequencyChange></FrequencyChanges></Clock>\n",KW_Experiment5A-50-1,59.944,1.0.0.105,1,2053058930,Professional,2.0.10.353,2.0.10.353,10/29/2018,10/29/2018 17:44,13:44:29,2.0.10.248,3,2,1,3,,,,,,,,TrainingProc,BlockList,18,2,Distractor1.bmp,1,0,,1,0,1287497,401,,0,0,red,400,1,400,1,horizontal,red,Distractor1.bmp,purple,Distractor2.bmp,lime,Target2.bmp,cyan,Distractor1.bmp,blue,Distractor2.bmp,yellow,Distractor1.bmp,,,,TrialProc,,TrainingTrialList,1,2,-999999,1,1287898,0,2,733,1288631,Target2.bmp,lime,2,,,,3,3,66
KW_Experiment5A,50,1,"<?xml version=""1.0""?>\n<Clock xmlns:dt=""urn:schemas-microsoft-com:datatypes""><Description dt:dt=""string"">E-Prime Primary Realtime Clock</Description><StartTime><Timestamp dt:dt=""int"">0</Timestamp><DateUtc dt:dt=""string"">2018-10-29T17:44:29Z</DateUtc></StartTime><FrequencyChanges><FrequencyChange><Frequency dt:dt=""r8"">3215273</Frequency><Timestamp dt:dt=""r8"">2694996947266</Timestamp><Current dt:dt=""r8"">0</Current><DateUtc dt:dt=""string"">2018-10-29T17:44:29Z</DateUtc></FrequencyChange></FrequencyChanges></Clock>\n",KW_Experiment5A-50-1,59.944,1.0.0.105,1,2053058930,Professional,2.0.10.353,2.0.10.353,10/29/2018,10/29/2018 17:44,13:44:29,2.0.10.248,3,2,1,3,,,,,,,,TrainingProc,BlockList,19,1,Distractor1.bmp,1,0,,0,0,1289649,601,,0,0,blue,600,3,600,,vertical,blue,Distractor1.bmp,purple,Distractor2.bmp,lime,Distractor1.bmp,yellow,Distractor2.bmp,red,Target1.bmp,cyan,Distractor1.bmp,,,,TrialProc,3,TrainingTrialList,1,1,-999999,1,1290250,0,1,869,1291119,Target1.bmp,red,1,,,,11,3,67
KW_Experiment5A,50,1,"<?xml version=""1.0""?>\n<Clock xmlns:dt=""urn:schemas-microsoft-com:datatypes""><Description dt:dt=""string"">E-Prime Primary Realtime Clock</Description><StartTime><Timestamp dt:dt=""int"">0</Timestamp><DateUtc dt:dt=""string"">2018-10-29T17:44:29Z</DateUtc></StartTime><FrequencyChanges><FrequencyChange><Frequency dt:dt=""r8"">3215273</Frequency><Timestamp dt:dt=""r8"">2694996947266</Timestamp><Current dt:dt=""r8"">0</Current><DateUtc dt:dt=""string"">2018-10-29T17:44:29Z</DateUtc></FrequencyChange></FrequencyChanges></Clock>\n",KW_Experiment5A-50-1,59.944,1.0.0.105,1,2053058930,Professional,2.0.10.353,2.0.10.353,10/29/2018,10/29/2018 17:44,13:44:29,2.0.10.248,3,2,1,3,,,,,,,,TrainingProc,BlockList,20,2,Distractor2.bmp,2,0,,0,1,1292135,400,,0,0,cyan,400,1,400,4,horizontal,cyan,Distractor2.bmp,purple,Distractor1.bmp,blue,Distractor2.bmp,yellow,Distractor1.bmp,red,Distractor1.bmp,lime,Target2.bmp,,,,TrialProc,,TrainingTrialList,1,2,-999999,0,1292535,0,2,512,1293047,Target2.bmp,lime,2,,,,6,3,68
KW_Experiment5A,50,1,"<?xml version=""1.0""?>\n<Clock xmlns:dt=""urn:schemas-microsoft-com:datatypes""><Description dt:dt=""string"">E-Prime Primary Realtime Clock</Description><StartTime><Timestamp dt:dt=""int"">0</Timestamp><DateUtc dt:dt=""string"">2018-10-29T17:44:29Z</DateUtc></StartTime><FrequencyChanges><FrequencyChange><Frequency dt:dt=""r8"">3215273</Frequency><Timestamp dt:dt=""r8"">2694996947266</Timestamp><Current dt:dt=""r8"">0</Current><DateUtc dt:dt=""string"">2018-10-29T17:44:29Z</DateUtc></FrequencyChange></FrequencyChanges></Clock>\n",KW_Experiment5A-50-1,59.944,1.0.0.105,1,2053058930,Professional,2.0.10.353,2.0.10.353,10/29/2018,10/29/2018 17:44,13:44:29,2.0.10.248,3,2,1,3,,,,,,,,TrainingProc,BlockList,21,2,Distractor1.bmp,1,0,,0,1,1294070,501,,0,0,cyan,500,2,500,,horizontal,red,Target2.bmp,yellow,Distractor1.bmp,purple,Distractor1.bmp,lime,Distractor2.bmp,blue,Distractor1.bmp,cyan,Distractor2.bmp,,,,TrialProc,4,TrainingTrialList,1,2,-999999,1,1294571,0,2,572,1295143,Target2.bmp,red,2,,,,7,3,69
KW_Experiment5A,50,1,"<?xml version=""1.0""?>\n<Clock xmlns:dt=""urn:schemas-microsoft-com:datatypes""><Description dt:dt=""string"">E-Prime Primary Realtime Clock</Description><StartTime><Timestamp dt:dt=""int"">0</Timestamp><DateUtc dt:dt=""string"">2018-10-29T17:44:29Z</DateUtc></StartTime><FrequencyChanges><FrequencyChange><Frequency dt:dt=""r8"">3215273</Frequency><Timestamp dt:dt=""r8"">2694996947266</Timestamp><Current dt:dt=""r8"">0</Current><DateUtc dt:dt=""string"">2018-10-29T17:44:29Z</DateUtc></FrequencyChange></FrequencyChanges></Clock>\n",KW_Experiment5A-50-1,59.944,1.0.0.105,1,2053058930,Professional,2.0.10.353,2.0.10.353,10/29/2018,10/29/2018 17:44,13:44:29,2.0.10.248,3,2,1,3,,,,,,,,TrainingProc,BlockList,22,1,Distractor2.bmp,2,0,,0,1,1296155,601,,0,0,cyan,600,3,600,4,vertical,cyan,Distractor2.bmp,purple,Distractor1.bmp,lime,Target1.bmp,red,Distractor2.bmp,blue,Distractor1.bmp,yellow,Distractor2.bmp,,,,TrialProc,,TrainingTrialList,1,1,-999999,1,1296756,0,1,515,1297271,Target1.bmp,lime,1,,,,3,3,70
KW_Experiment5A,50,1,"<?xml version=""1.0""?>\n<Clock xmlns:dt=""urn:schemas-microsoft-com:datatypes""><Description dt:dt=""string"">E-Prime Primary Realtime Clock</Description><StartTime><Timestamp dt:dt=""int"">0</Timestamp><DateUtc dt:dt=""string"">2018-10-29T17:44:29Z</DateUtc></StartTime><FrequencyChanges><FrequencyChange><Frequency dt:dt=""r8"">3215273</Frequency><Timestamp dt:dt=""r8"">2694996947266</Timestamp><Current dt:dt=""r8"">0</Current><DateUtc dt:dt=""string"">2018-10-29T17:44:29Z</DateUtc></FrequencyChange></FrequencyChanges></Clock>\n",KW_Experiment5A-50-1,59.944,1.0.0.105,1,2053058930,Professional,2.0.10.353,2.0.10.353,10/29/2018,10/29/2018 17:44,13:44:29,2.0.10.248,3,2,1,3,,,,,,,,TrainingProc,BlockList,23,2,Distractor1.bmp,1,0,,0,1,1298291,400,,0,0,blue,400,1,400,3,horizontal,lime,Target2.bmp,blue,Distractor1.bmp,red,Distractor1.bmp,cyan,Distractor2.bmp,purple,Distractor2.bmp,yellow,Distractor1.bmp,,,,TrialProc,,TrainingTrialList,1,2,-999999,0,1298691,0,2,476,1299167,Target2.bmp,lime,2,,,,1,3,71
KW_Experiment5A,50,1,"<?xml version=""1.0""?>\n<Clock xmlns:dt=""urn:schemas-microsoft-com:datatypes""><Description dt:dt=""string"">E-Prime Primary Realtime Clock</Description><StartTime><Timestamp dt:dt=""int"">0</Timestamp><DateUtc dt:dt=""string"">2018-10-29T17:44:29Z</DateUtc></StartTime><FrequencyChanges><FrequencyChange><Frequency dt:dt=""r8"">3215273</Frequency><Timestamp dt:dt=""r8"">2694996947266</Timestamp><Current dt:dt=""r8"">0</Current><DateUtc dt:dt=""string"">2018-10-29T17:44:29Z</DateUtc></FrequencyChange></FrequencyChanges></Clock>\n",KW_Experiment5A-50-1,59.944,1.0.0.105,1,2053058930,Professional,2.0.10.353,2.0.10.353,10/29/2018,10/29/2018 17:44,13:44:29,2.0.10.248,3,2,1,3,,,,,,,,TrainingProc,BlockList,24,2,Distractor2.bmp,2,0,,0,1,1300192,401,,0,0,purple,400,1,400,5,horizontal,purple,Distractor1.bmp,blue,Distractor1.bmp,yellow,Distractor1.bmp,red,Distractor1.bmp,lime,Target2.bmp,cyan,Distractor2.bmp,,,,TrialProc,,TrainingTrialList,1,2,-999999,1,1300593,0,2,710,1301303,Target2.bmp,lime,2,,,,5,3,72
KW_Experiment5A,50,1,"<?xml version=""1.0""?>\n<Clock xmlns:dt=""urn:schemas-microsoft-com:datatypes""><Description dt:dt=""string"">E-Prime Primary Realtime Clock</Description><StartTime><Timestamp dt:dt=""int"">0</Timestamp><DateUtc dt:dt=""string"">2018-10-29T17:44:29Z</DateUtc></StartTime><FrequencyChanges><FrequencyChange><Frequency dt:dt=""r8"">3215273</Frequency><Timestamp dt:dt=""r8"">2694996947266</Timestamp><Current dt:dt=""r8"">0</Current><DateUtc dt:dt=""string"">2018-10-29T17:44:29Z</DateUtc></FrequencyChange></FrequencyChanges></Clock>\n",KW_Experiment5A-50-1,59.944,1.0.0.105,1,2053058930,Professional,2.0.10.353,2.0.10.353,10/29/2018,10/29/2018 17:44,13:44:29,2.0.10.248,3,2,1,3,,,,,,,,TrainingProc,BlockList,25,2,Distractor1.bmp,1,0,,0,1,1302328,400,,0,0,blue,400,1,400,3,horizontal,lime,Target2.bmp,blue,Distractor1.bmp,yellow,Distractor2.bmp,cyan,Distractor1.bmp,purple,Distractor2.bmp,red,Distractor2.bmp,,,,TrialProc,,TrainingTrialList,1,2,-999999,0,1302728,0,2,543,1303271,Target2.bmp,lime,2,,,,1,4,73
KW_Experiment5A,50,1,"<?xml version=""1.0""?>\n<Clock xmlns:dt=""urn:schemas-microsoft-com:datatypes""><Description dt:dt=""string"">E-Prime Primary Realtime Clock</Description><StartTime><Timestamp dt:dt=""int"">0</Timestamp><DateUtc dt:dt=""string"">2018-10-29T17:44:29Z</DateUtc></StartTime><FrequencyChanges><FrequencyChange><Frequency dt:dt=""r8"">3215273</Frequency><Timestamp dt:dt=""r8"">2694996947266</Timestamp><Current dt:dt=""r8"">0</Current><DateUtc dt:dt=""string"">2018-10-29T17:44:29Z</DateUtc></FrequencyChange></FrequencyChanges></Clock>\n",KW_Experiment5A-50-1,59.944,1.0.0.105,1,2053058930,Professional,2.0.10.353,2.0.10.353,10/29/2018,10/29/2018 17:44,13:44:29,2.0.10.248,3,2,1,3,,,,,,,,TrainingProc,BlockList,26,2,Distractor1.bmp,1,0,,0,1,1304296,601,,0,0,blue,600,3,600,3,horizontal,blue,Distractor2.bmp,cyan,Distractor1.bmp,lime,Target2.bmp,red,Distractor1.bmp,yellow,Distractor1.bmp,purple,Distractor2.bmp,,,,TrialProc,,TrainingTrialList,1,2,-999999,1,1304897,0,2,686,1305583,Target2.bmp,lime,2,,,,3,4,74
KW_Experiment5A,50,1,"<?xml version=""1.0""?>\n<Clock xmlns:dt=""urn:schemas-microsoft-com:datatypes""><Description dt:dt=""string"">E-Prime Primary Realtime Clock</Description><StartTime><Timestamp dt:dt=""int"">0</Timestamp><DateUtc dt:dt=""string"">2018-10-29T17:44:29Z</DateUtc></StartTime><FrequencyChanges><FrequencyChange><Frequency dt:dt=""r8"">3215273</Frequency><Timestamp dt:dt=""r8"">2694996947266</Timestamp><Current dt:dt=""r8"">0</Current><DateUtc dt:dt=""string"">2018-10-29T17:44:29Z</DateUtc></FrequencyChange></FrequencyChanges></Clock>\n",KW_Experiment5A-50-1,59.944,1.0.0.105,1,2053058930,Professional,2.0.10.353,2.0.10.353,10/29/2018,10/29/2018 17:44,13:44:29,2.0.10.248,3,2,1,3,,,,,,,,TrainingProc,BlockList,27,1,Distractor2.bmp,2,0,,0,1,1306598,401,,0,0,purple,400,1,400,5,vertical,purple,Distractor1.bmp,lime,Target1.bmp,red,Distractor2.bmp,cyan,Distractor2.bmp,blue,Distractor2.bmp,yellow,Distractor2.bmp,,,,TrialProc,,TrainingTrialList,1,1,-999999,1,1306999,0,1,680,1307679,Target1.bmp,lime,1,,,,2,4,75
KW_Experiment5A,50,1,"<?xml version=""1.0""?>\n<Clock xmlns:dt=""urn:schemas-microsoft-com:datatypes""><Description dt:dt=""string"">E-Prime Primary Realtime Clock</Description><StartTime><Timestamp dt:dt=""int"">0</Timestamp><DateUtc dt:dt=""string"">2018-10-29T17:44:29Z</DateUtc></StartTime><FrequencyChanges><FrequencyChange><Frequency dt:dt=""r8"">3215273</Frequency><Timestamp dt:dt=""r8"">2694996947266</Timestamp><Current dt:dt=""r8"">0</Current><DateUtc dt:dt=""string"">2018-10-29T17:44:29Z</DateUtc></FrequencyChange></FrequencyChanges></Clock>\n",KW_Experiment5A-50-1,59.944,1.0.0.105,1,2053058930,Professional,2.0.10.353,2.0.10.353,10/29/2018,10/29/2018 17:44,13:44:29,2.0.10.248,3,2,1,3,,,,,,,,TrainingProc,BlockList,28,2,Distractor2.bmp,2,0,,0,1,1308700,401,,0,0,cyan,400,1,400,4,horizontal,cyan,Distractor2.bmp,red,Distractor2.bmp,yellow,Distractor1.bmp,purple,Distractor2.bmp,blue,Distractor2.bmp,lime,Target2.bmp,,,,TrialProc,,TrainingTrialList,1,2,-999999,1,1309101,0,2,530,1309631,Target2.bmp,lime,2,,,,6,4,76
KW_Experiment5A,50,1,"<?xml version=""1.0""?>\n<Clock xmlns:dt=""urn:schemas-microsoft-com:datatypes""><Description dt:dt=""string"">E-Prime Primary Realtime Clock</Description><StartTime><Timestamp dt:dt=""int"">0</Timestamp><DateUtc dt:dt=""string"">2018-10-29T17:44:29Z</DateUtc></StartTime><FrequencyChanges><FrequencyChange><Frequency dt:dt=""r8"">3215273</Frequency><Timestamp dt:dt=""r8"">2694996947266</Timestamp><Current dt:dt=""r8"">0</Current><DateUtc dt:dt=""string"">2018-10-29T17:44:29Z</DateUtc></FrequencyChange></FrequencyChanges></Clock>\n",KW_Experiment5A-50-1,59.944,1.0.0.105,1,2053058930,Professional,2.0.10.353,2.0.10.353,10/29/2018,10/29/2018 17:44,13:44:29,2.0.10.248,3,2,1,3,,,,,,,,TrainingProc,BlockList,29,2,Distractor1.bmp,1,0,,0,1,1310652,400,,0,0,yellow,400,1,400,2,horizontal,lime,Target2.bmp,yellow,Distractor1.bmp,blue,Distractor2.bmp,red,Distractor1.bmp,cyan,Distractor2.bmp,purple,Distractor1.bmp,,,,TrialProc,,TrainingTrialList,1,2,-999999,0,1311052,0,2,459,1311511,Target2.bmp,lime,2,,,,1,4,77
KW_Experiment5A,50,1,"<?xml version=""1.0""?>\n<Clock xmlns:dt=""urn:schemas-microsoft-com:datatypes""><Description dt:dt=""string"">E-Prime Primary Realtime Clock</Description><StartTime><Timestamp dt:dt=""int"">0</Timestamp><DateUtc dt:dt=""string"">2018-10-29T17:44:29Z</DateUtc></StartTime><FrequencyChanges><FrequencyChange><Frequency dt:dt=""r8"">3215273</Frequency><Timestamp dt:dt=""r8"">2694996947266</Timestamp><Current dt:dt=""r8"">0</Current><DateUtc dt:dt=""string"">2018-10-29T17:44:29Z</DateUtc></FrequencyChange></FrequencyChanges></Clock>\n",KW_Experiment5A-50-1,59.944,1.0.0.105,1,2053058930,Professional,2.0.10.353,2.0.10.353,10/29/2018,10/29/2018 17:44,13:44:29,2.0.10.248,3,2,1,3,,,,,,,,TrainingProc,BlockList,30,2,Distractor1.bmp,1,0,,0,1,1312520,501,,0,0,purple,500,2,500,5,horizontal,purple,Distractor2.bmp,lime,Target2.bmp,blue,Distractor1.bmp,yellow,Distractor1.bmp,red,Distractor2.bmp,cyan,Distractor1.bmp,,,,TrialProc,,TrainingTrialList,1,2,-999999,1,1313021,0,2,754,1313775,Target2.bmp,lime,2,,,,2,4,78
KW_Experiment5A,50,1,"<?xml version=""1.0""?>\n<Clock xmlns:dt=""urn:schemas-microsoft-com:datatypes""><Description dt:dt=""string"">E-Prime Primary Realtime Clock</Description><StartTime><Timestamp dt:dt=""int"">0</Timestamp><DateUtc dt:dt=""string"">2018-10-29T17:44:29Z</DateUtc></StartTime><FrequencyChanges><FrequencyChange><Frequency dt:dt=""r8"">3215273</Frequency><Timestamp dt:dt=""r8"">2694996947266</Timestamp><Current dt:dt=""r8"">0</Current><DateUtc dt:dt=""string"">2018-10-29T17:44:29Z</DateUtc></FrequencyChange></FrequencyChanges></Clock>\n",KW_Experiment5A-50-1,59.944,1.0.0.105,1,2053058930,Professional,2.0.10.353,2.0.10.353,10/29/2018,10/29/2018 17:44,13:44:29,2.0.10.248,3,2,1,3,,,,,,,,TrainingProc,BlockList,31,2,Distractor1.bmp,1,0,,0,1,1314789,601,,0,0,lime,600,3,600,,horizontal,red,Target2.bmp,purple,Distractor1.bmp,cyan,Distractor1.bmp,blue,Distractor2.bmp,yellow,Distractor2.bmp,lime,Distractor2.bmp,,,,TrialProc,6,TrainingTrialList,1,2,-999999,1,1315390,0,2,681,1316071,Target2.bmp,red,2,,,,7,4,79
KW_Experiment5A,50,1,"<?xml version=""1.0""?>\n<Clock xmlns:dt=""urn:schemas-microsoft-com:datatypes""><Description dt:dt=""string"">E-Prime Primary Realtime Clock</Description><StartTime><Timestamp dt:dt=""int"">0</Timestamp><DateUtc dt:dt=""string"">2018-10-29T17:44:29Z</DateUtc></StartTime><FrequencyChanges><FrequencyChange><Frequency dt:dt=""r8"">3215273</Frequency><Timestamp dt:dt=""r8"">2694996947266</Timestamp><Current dt:dt=""r8"">0</Current><DateUtc dt:dt=""string"">2018-10-29T17:44:29Z</DateUtc></FrequencyChange></FrequencyChanges></Clock>\n",KW_Experiment5A-50-1,59.944,1.0.0.105,1,2053058930,Professional,2.0.10.353,2.0.10.353,10/29/2018,10/29/2018 17:44,13:44:29,2.0.10.248,3,2,1,3,,,,,,,,TrainingProc,BlockList,32,1,Distractor1.bmp,1,0,,0,1,1317091,501,,0,0,blue,500,2,500,3,vertical,blue,Distractor1.bmp,yellow,Distractor2.bmp,red,Distractor1.bmp,purple,Distractor2.bmp,cyan,Distractor2.bmp,lime,Target1.bmp,,,,TrialProc,,TrainingTrialList,1,1,-999999,1,1317592,0,1,479,1318071,Target1.bmp,lime,1,,,,6,4,80
KW_Experiment5A,50,1,"<?xml version=""1.0""?>\n<Clock xmlns:dt=""urn:schemas-microsoft-com:datatypes""><Description dt:dt=""string"">E-Prime Primary Realtime Clock</Description><StartTime><Timestamp dt:dt=""int"">0</Timestamp><DateUtc dt:dt=""string"">2018-10-29T17:44:29Z</DateUtc></StartTime><FrequencyChanges><FrequencyChange><Frequency dt:dt=""r8"">3215273</Frequency><Timestamp dt:dt=""r8"">2694996947266</Timestamp><Current dt:dt=""r8"">0</Current><DateUtc dt:dt=""string"">2018-10-29T17:44:29Z</DateUtc></FrequencyChange></FrequencyChanges></Clock>\n",KW_Experiment5A-50-1,59.944,1.0.0.105,1,2053058930,Professional,2.0.10.353,2.0.10.353,10/29/2018,10/29/2018 17:44,13:44:29,2.0.10.248,3,2,1,3,,,,,,,,TrainingProc,BlockList,33,2,Distractor2.bmp,2,0,,0,1,1319093,500,,0,0,purple,500,2,500,5,horizontal,purple,Distractor2.bmp,red,Distractor1.bmp,yellow,Distractor1.bmp,lime,Target2.bmp,cyan,Distractor2.bmp,blue,Distractor2.bmp,,,,TrialProc,,TrainingTrialList,1,2,-999999,0,1319593,0,2,686,1320279,Target2.bmp,lime,2,,,,4,4,81
KW_Experiment5A,50,1,"<?xml version=""1.0""?>\n<Clock xmlns:dt=""urn:schemas-microsoft-com:datatypes""><Description dt:dt=""string"">E-Prime Primary Realtime Clock</Description><StartTime><Timestamp dt:dt=""int"">0</Timestamp><DateUtc dt:dt=""string"">2018-10-29T17:44:29Z</DateUtc></StartTime><FrequencyChanges><FrequencyChange><Frequency dt:dt=""r8"">3215273</Frequency><Timestamp dt:dt=""r8"">2694996947266</Timestamp><Current dt:dt=""r8"">0</Current><DateUtc dt:dt=""string"">2018-10-29T17:44:29Z</DateUtc></FrequencyChange></FrequencyChanges></Clock>\n",KW_Experiment5A-50-1,59.944,1.0.0.105,1,2053058930,Professional,2.0.10.353,2.0.10.353,10/29/2018,10/29/2018 17:44,13:44:29,2.0.10.248,3,2,1,3,,,,,,,,TrainingProc,BlockList,34,2,Distractor2.bmp,2,0,,0,1,1321295,601,,0,0,blue,600,3,600,,horizontal,blue,Distractor1.bmp,lime,Distractor2.bmp,cyan,Distractor1.bmp,red,Target2.bmp,purple,Distractor2.bmp,yellow,Distractor2.bmp,,,,TrialProc,3,TrainingTrialList,1,2,-999999,1,1321896,0,2,1078,1322974,Target2.bmp,red,2,,,,10,4,82
KW_Experiment5A,50,1,"<?xml version=""1.0""?>\n<Clock xmlns:dt=""urn:schemas-microsoft-com:datatypes""><Description dt:dt=""string"">E-Prime Primary Realtime Clock</Description><StartTime><Timestamp dt:dt=""int"">0</Timestamp><DateUtc dt:dt=""string"">2018-10-29T17:44:29Z</DateUtc></StartTime><FrequencyChanges><FrequencyChange><Frequency dt:dt=""r8"">3215273</Frequency><Timestamp dt:dt=""r8"">2694996947266</Timestamp><Current dt:dt=""r8"">0</Current><DateUtc dt:dt=""string"">2018-10-29T17:44:29Z</DateUtc></FrequencyChange></FrequencyChanges></Clock>\n",KW_Experiment5A-50-1,59.944,1.0.0.105,1,2053058930,Professional,2.0.10.353,2.0.10.353,10/29/2018,10/29/2018 17:44,13:44:29,2.0.10.248,3,2,1,3,,,,,,,,TrainingProc,BlockList,35,2,Distractor1.bmp,1,0,,0,1,1323998,600,,0,0,red,600,3,600,1,horizontal,lime,Target2.bmp,red,Distractor1.bmp,cyan,Distractor2.bmp,yellow,Distractor1.bmp,purple,Distractor2.bmp,blue,Distractor2.bmp,,,,TrialProc,,TrainingTrialList,1,2,-999999,0,1324598,0,2,480,1325078,Target2.bmp,lime,2,,,,1,4,83
KW_Experiment5A,50,1,"<?xml version=""1.0""?>\n<Clock xmlns:dt=""urn:schemas-microsoft-com:datatypes""><Description dt:dt=""string"">E-Prime Primary Realtime Clock</Description><StartTime><Timestamp dt:dt=""int"">0</Timestamp><DateUtc dt:dt=""string"">2018-10-29T17:44:29Z</DateUtc></StartTime><FrequencyChanges><FrequencyChange><Frequency dt:dt=""r8"">3215273</Frequency><Timestamp dt:dt=""r8"">2694996947266</Timestamp><Current dt:dt=""r8"">0</Current><DateUtc dt:dt=""string"">2018-10-29T17:44:29Z</DateUtc></FrequencyChange></FrequencyChanges></Clock>\n",KW_Experiment5A-50-1,59.944,1.0.0.105,1,2053058930,Professional,2.0.10.353,2.0.10.353,10/29/2018,10/29/2018 17:44,13:44:29,2.0.10.248,3,2,1,3,,,,,,,,TrainingProc,BlockList,36,2,Distractor2.bmp,2,0,,0,1,1326099,501,,0,0,red,500,2,500,1,horizontal,red,Distractor2.bmp,cyan,Distractor1.bmp,lime,Target2.bmp,yellow,Distractor2.bmp,purple,Distractor2.bmp,blue,Distractor2.bmp,,,,TrialProc,,TrainingTrialList,1,2,-999999,1,1326600,0,2,958,1327558,Target2.bmp,lime,2,,,,3,4,84
KW_Experiment5A,50,1,"<?xml version=""1.0""?>\n<Clock xmlns:dt=""urn:schemas-microsoft-com:datatypes""><Description dt:dt=""string"">E-Prime Primary Realtime Clock</Description><StartTime><Timestamp dt:dt=""int"">0</Timestamp><DateUtc dt:dt=""string"">2018-10-29T17:44:29Z</DateUtc></StartTime><FrequencyChanges><FrequencyChange><Frequency dt:dt=""r8"">3215273</Frequency><Timestamp dt:dt=""r8"">2694996947266</Timestamp><Current dt:dt=""r8"">0</Current><DateUtc dt:dt=""string"">2018-10-29T17:44:29Z</DateUtc></FrequencyChange></FrequencyChanges></Clock>\n",KW_Experiment5A-50-1,59.944,1.0.0.105,1,2053058930,Professional,2.0.10.353,2.0.10.353,10/29/2018,10/29/2018 17:44,13:44:29,2.0.10.248,3,2,1,3,,,,,,,,TrainingProc,BlockList,37,1,Distractor2.bmp,2,0,,0,1,1328585,500,,0,0,purple,500,2,500,,vertical,purple,Distractor1.bmp,red,Target1.bmp,cyan,Distractor2.bmp,lime,Distractor2.bmp,blue,Distractor2.bmp,yellow,Distractor1.bmp,,,,TrialProc,5,TrainingTrialList,1,1,-999999,0,1329085,0,1,953,1330038,Target1.bmp,red,1,,,,8,4,85
KW_Experiment5A,50,1,"<?xml version=""1.0""?>\n<Clock xmlns:dt=""urn:schemas-microsoft-com:datatypes""><Description dt:dt=""string"">E-Prime Primary Realtime Clock</Description><StartTime><Timestamp dt:dt=""int"">0</Timestamp><DateUtc dt:dt=""string"">2018-10-29T17:44:29Z</DateUtc></StartTime><FrequencyChanges><FrequencyChange><Frequency dt:dt=""r8"">3215273</Frequency><Timestamp dt:dt=""r8"">2694996947266</Timestamp><Current dt:dt=""r8"">0</Current><DateUtc dt:dt=""string"">2018-10-29T17:44:29Z</DateUtc></FrequencyChange></FrequencyChanges></Clock>\n",KW_Experiment5A-50-1,59.944,1.0.0.105,1,2053058930,Professional,2.0.10.353,2.0.10.353,10/29/2018,10/29/2018 17:44,13:44:29,2.0.10.248,3,2,1,3,,,,,,,,TrainingProc,BlockList,38,2,Distractor2.bmp,2,0,,0,1,1331054,601,,0,0,red,600,3,600,1,horizontal,red,Distractor1.bmp,cyan,Distractor1.bmp,purple,Distractor1.bmp,lime,Target2.bmp,blue,Distractor2.bmp,yellow,Distractor1.bmp,,,,TrialProc,,TrainingTrialList,1,2,-999999,1,1331655,0,2,679,1332334,Target2.bmp,lime,2,,,,4,4,86
KW_Experiment5A,50,1,"<?xml version=""1.0""?>\n<Clock xmlns:dt=""urn:schemas-microsoft-com:datatypes""><Description dt:dt=""string"">E-Prime Primary Realtime Clock</Description><StartTime><Timestamp dt:dt=""int"">0</Timestamp><DateUtc dt:dt=""string"">2018-10-29T17:44:29Z</DateUtc></StartTime><FrequencyChanges><FrequencyChange><Frequency dt:dt=""r8"">3215273</Frequency><Timestamp dt:dt=""r8"">2694996947266</Timestamp><Current dt:dt=""r8"">0</Current><DateUtc dt:dt=""string"">2018-10-29T17:44:29Z</DateUtc></FrequencyChange></FrequencyChanges></Clock>\n",KW_Experiment5A-50-1,59.944,1.0.0.105,1,2053058930,Professional,2.0.10.353,2.0.10.353,10/29/2018,10/29/2018 17:44,13:44:29,2.0.10.248,3,2,1,3,,,,,,,,TrainingProc,BlockList,39,2,Distractor2.bmp,2,0,,0,1,1333356,501,,0,0,purple,500,2,500,5,horizontal,purple,Distractor1.bmp,yellow,Distractor2.bmp,red,Distractor1.bmp,lime,Target2.bmp,cyan,Distractor2.bmp,blue,Distractor1.bmp,,,,TrialProc,,TrainingTrialList,1,2,-999999,1,1333857,0,2,573,1334430,Target2.bmp,lime,2,,,,4,4,87
KW_Experiment5A,50,1,"<?xml version=""1.0""?>\n<Clock xmlns:dt=""urn:schemas-microsoft-com:datatypes""><Description dt:dt=""string"">E-Prime Primary Realtime Clock</Description><StartTime><Timestamp dt:dt=""int"">0</Timestamp><DateUtc dt:dt=""string"">2018-10-29T17:44:29Z</DateUtc></StartTime><FrequencyChanges><FrequencyChange><Frequency dt:dt=""r8"">3215273</Frequency><Timestamp dt:dt=""r8"">2694996947266</Timestamp><Current dt:dt=""r8"">0</Current><DateUtc dt:dt=""string"">2018-10-29T17:44:29Z</DateUtc></FrequencyChange></FrequencyChanges></Clock>\n",KW_Experiment5A-50-1,59.944,1.0.0.105,1,2053058930,Professional,2.0.10.353,2.0.10.353,10/29/2018,10/29/2018 17:44,13:44:29,2.0.10.248,3,2,1,3,,,,,,,,TrainingProc,BlockList,40,1,Distractor1.bmp,1,0,,0,1,1335441,601,,0,0,yellow,600,3,600,2,vertical,yellow,Distractor2.bmp,blue,Distractor2.bmp,cyan,Distractor2.bmp,red,Distractor2.bmp,lime,Target1.bmp,purple,Distractor1.bmp,,,,TrialProc,,TrainingTrialList,1,1,-999999,1,1336042,0,1,524,1336566,Target1.bmp,lime,1,,,,5,4,88
KW_Experiment5A,50,1,"<?xml version=""1.0""?>\n<Clock xmlns:dt=""urn:schemas-microsoft-com:datatypes""><Description dt:dt=""string"">E-Prime Primary Realtime Clock</Description><StartTime><Timestamp dt:dt=""int"">0</Timestamp><DateUtc dt:dt=""string"">2018-10-29T17:44:29Z</DateUtc></StartTime><FrequencyChanges><FrequencyChange><Frequency dt:dt=""r8"">3215273</Frequency><Timestamp dt:dt=""r8"">2694996947266</Timestamp><Current dt:dt=""r8"">0</Current><DateUtc dt:dt=""string"">2018-10-29T17:44:29Z</DateUtc></FrequencyChange></FrequencyChanges></Clock>\n",KW_Experiment5A-50-1,59.944,1.0.0.105,1,2053058930,Professional,2.0.10.353,2.0.10.353,10/29/2018,10/29/2018 17:44,13:44:29,2.0.10.248,3,2,1,3,,,,,,,,TrainingProc,BlockList,41,1,Distractor1.bmp,1,0,,0,1,1337577,400,,0,0,purple,400,1,400,5,vertical,purple,Distractor2.bmp,yellow,Distractor1.bmp,lime,Target1.bmp,red,Distractor1.bmp,cyan,Distractor1.bmp,blue,Distractor1.bmp,,,,TrialProc,,TrainingTrialList,1,1,-999999,0,1337977,0,1,661,1338638,Target1.bmp,lime,1,,,,3,4,89
