ExperimentName,Subject,Session,Clock.Information,DataFile.Basename,Display.RefreshRate,ExperimentVersion,Group,RandomSeed,RuntimeCapabilities,RuntimeVersion,RuntimeVersionExpected,SessionDate,SessionStartDateTimeUtc,SessionTime,StudioVersion,Block,BlockList,BlockList.Cycle,BlockList.Sample,PostTestQ1.RESP,PostTestQ1CJ.RESP,PostTestQ2.RESP,PostTestQ2CJ.RESP,PostTestQ3.RESP,PostTestQ3CJ.RESP,PostTestSlide.RESP,Procedure[Block],Running[Block],Trial,CorrectResponse,Distractor,DistractorList,Fixation.ACC,Fixation.CRESP,Fixation.DurationError,Fixation.OnsetDelay,Fixation.OnsetTime,Fixation.OnsetToOnsetTime,Fixation.RESP,Fixation.RT,Fixation.RTTime,ItemColor,Jitter,JitterList,JitterTime,Lime0List,Orientation,Pos1Color,Pos1Item,Pos2Color,Pos2Item,Pos3Color,Pos3Item,Pos4Color,Pos4Item,Pos5Color,Pos5Item,Pos6Color,Pos6Item,PracticeTrialList,PracticeTrialList.Cycle,PracticeTrialList.Sample,Procedure[Trial],Red0List,Running[Trial],Stimulus.ACC,Stimulus.CRESP,Stimulus.DurationError,Stimulus.OnsetDelay,Stimulus.OnsetTime,Stimulus.OnsetToOnsetTime,Stimulus.RESP,Stimulus.RT,Stimulus.RTTime,Target,TargetColor,TargetList,TestTrialList,TestTrialList.Cycle,TestTrialList.Sample,TrainingTrialList,TrainingTrialList.Cycle,TrainingTrialList.Sample
KW_Experiment5A,49,1,"<?xml version=""1.0""?>\n<Clock xmlns:dt=""urn:schemas-microsoft-com:datatypes""><Description dt:dt=""string"">E-Prime Primary Realtime Clock</Description><StartTime><Timestamp dt:dt=""int"">0</Timestamp><DateUtc dt:dt=""string"">2018-10-26T15:06:46Z</DateUtc></StartTime><FrequencyChanges><FrequencyChange><Frequency dt:dt=""r8"">3215292</Frequency><Timestamp dt:dt=""r8"">1830945673643</Timestamp><Current dt:dt=""r8"">0</Current><DateUtc dt:dt=""string"">2018-10-26T15:06:46Z</DateUtc></FrequencyChange></FrequencyChanges></Clock>\n",KW_Experiment5A-49-1,59.945,1.0.0.105,2,1290237572,Professional,2.0.10.353,2.0.10.353,10/26/2018,10/26/2018 15:06,11:06:46,2.0.10.248,1,1,1,1,,,,,,,,PracticeProc,BlockList,1,1,Distractor1.bmp,1,0,,0,47,3222326,401,,0,0,blue,400,1,400,,vertical,cyan,Distractor2.bmp,lime,Distractor1.bmp,blue,Distractor2.bmp,red,Target1.bmp,purple,Distractor1.bmp,yellow,Distractor2.bmp,4,1,1,TrialProc,3,PracticeTrialList,1,1,-999999,1,3222727,0,1,1112,3223839,Target1.bmp,red,1,,,,,,
KW_Experiment5A,49,1,"<?xml version=""1.0""?>\n<Clock xmlns:dt=""urn:schemas-microsoft-com:datatypes""><Description dt:dt=""string"">E-Prime Primary Realtime Clock</Description><StartTime><Timestamp dt:dt=""int"">0</Timestamp><DateUtc dt:dt=""string"">2018-10-26T15:06:46Z</DateUtc></StartTime><FrequencyChanges><FrequencyChange><Frequency dt:dt=""r8"">3215292</Frequency><Timestamp dt:dt=""r8"">1830945673643</Timestamp><Current dt:dt=""r8"">0</Current><DateUtc dt:dt=""string"">2018-10-26T15:06:46Z</DateUtc></FrequencyChange></FrequencyChanges></Clock>\n",KW_Experiment5A-49-1,59.945,1.0.0.105,2,1290237572,Professional,2.0.10.353,2.0.10.353,10/26/2018,10/26/2018 15:06,11:06:46,2.0.10.248,1,1,1,1,,,,,,,,PracticeProc,BlockList,2,1,Distractor1.bmp,1,0,,0,1,3224862,500,,0,0,cyan,500,2,500,4,vertical,lime,Target1.bmp,yellow,Distractor1.bmp,purple,Distractor1.bmp,blue,Distractor1.bmp,red,Distractor2.bmp,cyan,Distractor1.bmp,1,1,2,TrialProc,,PracticeTrialList,1,1,-999999,0,3225362,0,1,669,3226031,Target1.bmp,lime,1,,,,,,
KW_Experiment5A,49,1,"<?xml version=""1.0""?>\n<Clock xmlns:dt=""urn:schemas-microsoft-com:datatypes""><Description dt:dt=""string"">E-Prime Primary Realtime Clock</Description><StartTime><Timestamp dt:dt=""int"">0</Timestamp><DateUtc dt:dt=""string"">2018-10-26T15:06:46Z</DateUtc></StartTime><FrequencyChanges><FrequencyChange><Frequency dt:dt=""r8"">3215292</Frequency><Timestamp dt:dt=""r8"">1830945673643</Timestamp><Current dt:dt=""r8"">0</Current><DateUtc dt:dt=""string"">2018-10-26T15:06:46Z</DateUtc></FrequencyChange></FrequencyChanges></Clock>\n",KW_Experiment5A-49-1,59.945,1.0.0.105,2,1290237572,Professional,2.0.10.353,2.0.10.353,10/26/2018,10/26/2018 15:06,11:06:46,2.0.10.248,1,1,1,1,,,,,,,,PracticeProc,BlockList,3,2,Distractor1.bmp,1,0,,0,1,3227047,601,,0,0,purple,600,3,600,5,horizontal,yellow,Distractor2.bmp,purple,Distractor1.bmp,lime,Target2.bmp,red,Distractor1.bmp,cyan,Distractor2.bmp,blue,Distractor1.bmp,3,1,3,TrialProc,,PracticeTrialList,1,2,-999999,1,3227648,0,2,711,3228359,Target2.bmp,lime,2,,,,,,
KW_Experiment5A,49,1,"<?xml version=""1.0""?>\n<Clock xmlns:dt=""urn:schemas-microsoft-com:datatypes""><Description dt:dt=""string"">E-Prime Primary Realtime Clock</Description><StartTime><Timestamp dt:dt=""int"">0</Timestamp><DateUtc dt:dt=""string"">2018-10-26T15:06:46Z</DateUtc></StartTime><FrequencyChanges><FrequencyChange><Frequency dt:dt=""r8"">3215292</Frequency><Timestamp dt:dt=""r8"">1830945673643</Timestamp><Current dt:dt=""r8"">0</Current><DateUtc dt:dt=""string"">2018-10-26T15:06:46Z</DateUtc></FrequencyChange></FrequencyChanges></Clock>\n",KW_Experiment5A-49-1,59.945,1.0.0.105,2,1290237572,Professional,2.0.10.353,2.0.10.353,10/26/2018,10/26/2018 15:06,11:06:46,2.0.10.248,1,1,1,1,,,,,,,,PracticeProc,BlockList,4,1,Distractor2.bmp,2,0,,0,1,3229383,400,,0,0,cyan,400,1,400,4,vertical,red,Distractor2.bmp,blue,Distractor2.bmp,yellow,Distractor1.bmp,cyan,Distractor2.bmp,lime,Target1.bmp,purple,Distractor2.bmp,5,1,4,TrialProc,,PracticeTrialList,1,1,-999999,0,3229783,0,1,512,3230295,Target1.bmp,lime,1,,,,,,
KW_Experiment5A,49,1,"<?xml version=""1.0""?>\n<Clock xmlns:dt=""urn:schemas-microsoft-com:datatypes""><Description dt:dt=""string"">E-Prime Primary Realtime Clock</Description><StartTime><Timestamp dt:dt=""int"">0</Timestamp><DateUtc dt:dt=""string"">2018-10-26T15:06:46Z</DateUtc></StartTime><FrequencyChanges><FrequencyChange><Frequency dt:dt=""r8"">3215292</Frequency><Timestamp dt:dt=""r8"">1830945673643</Timestamp><Current dt:dt=""r8"">0</Current><DateUtc dt:dt=""string"">2018-10-26T15:06:46Z</DateUtc></FrequencyChange></FrequencyChanges></Clock>\n",KW_Experiment5A-49-1,59.945,1.0.0.105,2,1290237572,Professional,2.0.10.353,2.0.10.353,10/26/2018,10/26/2018 15:06,11:06:46,2.0.10.248,1,1,1,1,,,,,,,,PracticeProc,BlockList,5,1,Distractor2.bmp,2,0,,0,1,3231318,600,,0,0,blue,600,3,600,,vertical,yellow,Distractor2.bmp,purple,Distractor1.bmp,cyan,Distractor2.bmp,lime,Distractor2.bmp,blue,Distractor1.bmp,red,Target1.bmp,6,1,5,TrialProc,3,PracticeTrialList,1,1,-999999,0,3231918,0,1,641,3232559,Target1.bmp,red,1,,,,,,
KW_Experiment5A,49,1,"<?xml version=""1.0""?>\n<Clock xmlns:dt=""urn:schemas-microsoft-com:datatypes""><Description dt:dt=""string"">E-Prime Primary Realtime Clock</Description><StartTime><Timestamp dt:dt=""int"">0</Timestamp><DateUtc dt:dt=""string"">2018-10-26T15:06:46Z</DateUtc></StartTime><FrequencyChanges><FrequencyChange><Frequency dt:dt=""r8"">3215292</Frequency><Timestamp dt:dt=""r8"">1830945673643</Timestamp><Current dt:dt=""r8"">0</Current><DateUtc dt:dt=""string"">2018-10-26T15:06:46Z</DateUtc></FrequencyChange></FrequencyChanges></Clock>\n",KW_Experiment5A-49-1,59.945,1.0.0.105,2,1290237572,Professional,2.0.10.353,2.0.10.353,10/26/2018,10/26/2018 15:06,11:06:46,2.0.10.248,1,1,1,1,,,,,,,,PracticeProc,BlockList,6,1,Distractor2.bmp,2,0,,0,1,3233570,400,,0,0,blue,400,1,400,,vertical,blue,Distractor2.bmp,red,Target1.bmp,yellow,Distractor2.bmp,lime,Distractor2.bmp,cyan,Distractor1.bmp,purple,Distractor2.bmp,2,1,6,TrialProc,3,PracticeTrialList,1,1,-999999,0,3233970,0,1,805,3234775,Target1.bmp,red,1,,,,,,
KW_Experiment5A,49,1,"<?xml version=""1.0""?>\n<Clock xmlns:dt=""urn:schemas-microsoft-com:datatypes""><Description dt:dt=""string"">E-Prime Primary Realtime Clock</Description><StartTime><Timestamp dt:dt=""int"">0</Timestamp><DateUtc dt:dt=""string"">2018-10-26T15:06:46Z</DateUtc></StartTime><FrequencyChanges><FrequencyChange><Frequency dt:dt=""r8"">3215292</Frequency><Timestamp dt:dt=""r8"">1830945673643</Timestamp><Current dt:dt=""r8"">0</Current><DateUtc dt:dt=""string"">2018-10-26T15:06:46Z</DateUtc></FrequencyChange></FrequencyChanges></Clock>\n",KW_Experiment5A-49-1,59.945,1.0.0.105,2,1290237572,Professional,2.0.10.353,2.0.10.353,10/26/2018,10/26/2018 15:06,11:06:46,2.0.10.248,2,2,1,2,,,,,,,,TrainingProc,BlockList,1,2,Distractor2.bmp,2,0,,0,24,3240943,601,,0,0,purple,600,3,600,,horizontal,purple,Distractor1.bmp,lime,Distractor2.bmp,cyan,Distractor2.bmp,yellow,Distractor1.bmp,red,Target2.bmp,blue,Distractor2.bmp,,,,TrialProc,5,TrainingTrialList,0,2,-999999,1,3241544,0,1,423,3241967,Target2.bmp,red,2,,,,11,2,1
KW_Experiment5A,49,1,"<?xml version=""1.0""?>\n<Clock xmlns:dt=""urn:schemas-microsoft-com:datatypes""><Description dt:dt=""string"">E-Prime Primary Realtime Clock</Description><StartTime><Timestamp dt:dt=""int"">0</Timestamp><DateUtc dt:dt=""string"">2018-10-26T15:06:46Z</DateUtc></StartTime><FrequencyChanges><FrequencyChange><Frequency dt:dt=""r8"">3215292</Frequency><Timestamp dt:dt=""r8"">1830945673643</Timestamp><Current dt:dt=""r8"">0</Current><DateUtc dt:dt=""string"">2018-10-26T15:06:46Z</DateUtc></FrequencyChange></FrequencyChanges></Clock>\n",KW_Experiment5A-49-1,59.945,1.0.0.105,2,1290237572,Professional,2.0.10.353,2.0.10.353,10/26/2018,10/26/2018 15:06,11:06:46,2.0.10.248,2,2,1,2,,,,,,,,TrainingProc,BlockList,2,1,Distractor2.bmp,2,0,,1,0,3242978,601,,0,0,yellow,600,3,600,2,vertical,yellow,Distractor2.bmp,cyan,Distractor1.bmp,purple,Distractor2.bmp,blue,Distractor2.bmp,lime,Target1.bmp,red,Distractor2.bmp,,,,TrialProc,,TrainingTrialList,1,1,-999999,1,3243579,0,1,468,3244047,Target1.bmp,lime,1,,,,5,2,2
KW_Experiment5A,49,1,"<?xml version=""1.0""?>\n<Clock xmlns:dt=""urn:schemas-microsoft-com:datatypes""><Description dt:dt=""string"">E-Prime Primary Realtime Clock</Description><StartTime><Timestamp dt:dt=""int"">0</Timestamp><DateUtc dt:dt=""string"">2018-10-26T15:06:46Z</DateUtc></StartTime><FrequencyChanges><FrequencyChange><Frequency dt:dt=""r8"">3215292</Frequency><Timestamp dt:dt=""r8"">1830945673643</Timestamp><Current dt:dt=""r8"">0</Current><DateUtc dt:dt=""string"">2018-10-26T15:06:46Z</DateUtc></FrequencyChange></FrequencyChanges></Clock>\n",KW_Experiment5A-49-1,59.945,1.0.0.105,2,1290237572,Professional,2.0.10.353,2.0.10.353,10/26/2018,10/26/2018 15:06,11:06:46,2.0.10.248,2,2,1,2,,,,,,,,TrainingProc,BlockList,3,1,Distractor2.bmp,2,0,,0,1,3245064,400,,0,0,lime,400,1,400,,vertical,lime,Distractor1.bmp,blue,Distractor2.bmp,purple,Distractor1.bmp,red,Target1.bmp,yellow,Distractor2.bmp,cyan,Distractor2.bmp,,,,TrialProc,6,TrainingTrialList,1,1,-999999,0,3245464,0,1,663,3246127,Target1.bmp,red,1,,,,10,2,3
KW_Experiment5A,49,1,"<?xml version=""1.0""?>\n<Clock xmlns:dt=""urn:schemas-microsoft-com:datatypes""><Description dt:dt=""string"">E-Prime Primary Realtime Clock</Description><StartTime><Timestamp dt:dt=""int"">0</Timestamp><DateUtc dt:dt=""string"">2018-10-26T15:06:46Z</DateUtc></StartTime><FrequencyChanges><FrequencyChange><Frequency dt:dt=""r8"">3215292</Frequency><Timestamp dt:dt=""r8"">1830945673643</Timestamp><Current dt:dt=""r8"">0</Current><DateUtc dt:dt=""string"">2018-10-26T15:06:46Z</DateUtc></FrequencyChange></FrequencyChanges></Clock>\n",KW_Experiment5A-49-1,59.945,1.0.0.105,2,1290237572,Professional,2.0.10.353,2.0.10.353,10/26/2018,10/26/2018 15:06,11:06:46,2.0.10.248,2,2,1,2,,,,,,,,TrainingProc,BlockList,4,2,Distractor2.bmp,2,0,,0,1,3247149,400,,0,0,purple,400,1,400,,horizontal,red,Target2.bmp,cyan,Distractor2.bmp,yellow,Distractor2.bmp,lime,Distractor1.bmp,blue,Distractor2.bmp,purple,Distractor2.bmp,,,,TrialProc,5,TrainingTrialList,1,2,-999999,0,3247549,0,2,570,3248119,Target2.bmp,red,2,,,,7,2,4
KW_Experiment5A,49,1,"<?xml version=""1.0""?>\n<Clock xmlns:dt=""urn:schemas-microsoft-com:datatypes""><Description dt:dt=""string"">E-Prime Primary Realtime Clock</Description><StartTime><Timestamp dt:dt=""int"">0</Timestamp><DateUtc dt:dt=""string"">2018-10-26T15:06:46Z</DateUtc></StartTime><FrequencyChanges><FrequencyChange><Frequency dt:dt=""r8"">3215292</Frequency><Timestamp dt:dt=""r8"">1830945673643</Timestamp><Current dt:dt=""r8"">0</Current><DateUtc dt:dt=""string"">2018-10-26T15:06:46Z</DateUtc></FrequencyChange></FrequencyChanges></Clock>\n",KW_Experiment5A-49-1,59.945,1.0.0.105,2,1290237572,Professional,2.0.10.353,2.0.10.353,10/26/2018,10/26/2018 15:06,11:06:46,2.0.10.248,2,2,1,2,,,,,,,,TrainingProc,BlockList,5,2,Distractor2.bmp,2,0,,0,1,3249134,500,,0,0,yellow,500,2,500,,horizontal,yellow,Distractor1.bmp,blue,Distractor2.bmp,red,Target2.bmp,cyan,Distractor2.bmp,purple,Distractor2.bmp,lime,Distractor2.bmp,,,,TrialProc,2,TrainingTrialList,1,2,-999999,0,3249634,0,2,501,3250135,Target2.bmp,red,2,,,,9,2,5
KW_Experiment5A,49,1,"<?xml version=""1.0""?>\n<Clock xmlns:dt=""urn:schemas-microsoft-com:datatypes""><Description dt:dt=""string"">E-Prime Primary Realtime Clock</Description><StartTime><Timestamp dt:dt=""int"">0</Timestamp><DateUtc dt:dt=""string"">2018-10-26T15:06:46Z</DateUtc></StartTime><FrequencyChanges><FrequencyChange><Frequency dt:dt=""r8"">3215292</Frequency><Timestamp dt:dt=""r8"">1830945673643</Timestamp><Current dt:dt=""r8"">0</Current><DateUtc dt:dt=""string"">2018-10-26T15:06:46Z</DateUtc></FrequencyChange></FrequencyChanges></Clock>\n",KW_Experiment5A-49-1,59.945,1.0.0.105,2,1290237572,Professional,2.0.10.353,2.0.10.353,10/26/2018,10/26/2018 15:06,11:06:46,2.0.10.248,2,2,1,2,,,,,,,,TrainingProc,BlockList,6,2,Distractor1.bmp,1,0,,0,1,3251153,500,,0,0,yellow,500,2,500,2,horizontal,yellow,Distractor1.bmp,red,Distractor2.bmp,cyan,Distractor1.bmp,blue,Distractor2.bmp,purple,Distractor2.bmp,lime,Target2.bmp,,,,TrialProc,,TrainingTrialList,1,2,-999999,0,3251653,0,2,714,3252367,Target2.bmp,lime,2,,,,6,2,6
KW_Experiment5A,49,1,"<?xml version=""1.0""?>\n<Clock xmlns:dt=""urn:schemas-microsoft-com:datatypes""><Description dt:dt=""string"">E-Prime Primary Realtime Clock</Description><StartTime><Timestamp dt:dt=""int"">0</Timestamp><DateUtc dt:dt=""string"">2018-10-26T15:06:46Z</DateUtc></StartTime><FrequencyChanges><FrequencyChange><Frequency dt:dt=""r8"">3215292</Frequency><Timestamp dt:dt=""r8"">1830945673643</Timestamp><Current dt:dt=""r8"">0</Current><DateUtc dt:dt=""string"">2018-10-26T15:06:46Z</DateUtc></FrequencyChange></FrequencyChanges></Clock>\n",KW_Experiment5A-49-1,59.945,1.0.0.105,2,1290237572,Professional,2.0.10.353,2.0.10.353,10/26/2018,10/26/2018 15:06,11:06:46,2.0.10.248,2,2,1,2,,,,,,,,TrainingProc,BlockList,7,1,Distractor2.bmp,2,0,,0,1,3253388,400,,0,0,yellow,400,1,400,,vertical,yellow,Distractor2.bmp,lime,Distractor1.bmp,purple,Distractor2.bmp,blue,Distractor2.bmp,red,Target1.bmp,cyan,Distractor2.bmp,,,,TrialProc,2,TrainingTrialList,1,1,-999999,0,3253788,0,1,491,3254279,Target1.bmp,red,1,,,,11,2,7
KW_Experiment5A,49,1,"<?xml version=""1.0""?>\n<Clock xmlns:dt=""urn:schemas-microsoft-com:datatypes""><Description dt:dt=""string"">E-Prime Primary Realtime Clock</Description><StartTime><Timestamp dt:dt=""int"">0</Timestamp><DateUtc dt:dt=""string"">2018-10-26T15:06:46Z</DateUtc></StartTime><FrequencyChanges><FrequencyChange><Frequency dt:dt=""r8"">3215292</Frequency><Timestamp dt:dt=""r8"">1830945673643</Timestamp><Current dt:dt=""r8"">0</Current><DateUtc dt:dt=""string"">2018-10-26T15:06:46Z</DateUtc></FrequencyChange></FrequencyChanges></Clock>\n",KW_Experiment5A-49-1,59.945,1.0.0.105,2,1290237572,Professional,2.0.10.353,2.0.10.353,10/26/2018,10/26/2018 15:06,11:06:46,2.0.10.248,2,2,1,2,,,,,,,,TrainingProc,BlockList,8,2,Distractor1.bmp,1,0,,0,1,3255290,400,,0,0,blue,400,1,400,,horizontal,blue,Distractor2.bmp,red,Target2.bmp,cyan,Distractor1.bmp,yellow,Distractor2.bmp,lime,Distractor1.bmp,purple,Distractor2.bmp,,,,TrialProc,3,TrainingTrialList,1,2,-999999,0,3255690,0,2,469,3256159,Target2.bmp,red,2,,,,8,2,8
KW_Experiment5A,49,1,"<?xml version=""1.0""?>\n<Clock xmlns:dt=""urn:schemas-microsoft-com:datatypes""><Description dt:dt=""string"">E-Prime Primary Realtime Clock</Description><StartTime><Timestamp dt:dt=""int"">0</Timestamp><DateUtc dt:dt=""string"">2018-10-26T15:06:46Z</DateUtc></StartTime><FrequencyChanges><FrequencyChange><Frequency dt:dt=""r8"">3215292</Frequency><Timestamp dt:dt=""r8"">1830945673643</Timestamp><Current dt:dt=""r8"">0</Current><DateUtc dt:dt=""string"">2018-10-26T15:06:46Z</DateUtc></FrequencyChange></FrequencyChanges></Clock>\n",KW_Experiment5A-49-1,59.945,1.0.0.105,2,1290237572,Professional,2.0.10.353,2.0.10.353,10/26/2018,10/26/2018 15:06,11:06:46,2.0.10.248,2,2,1,2,,,,,,,,TrainingProc,BlockList,9,2,Distractor1.bmp,1,0,,0,1,3257175,500,,0,0,yellow,500,2,500,2,horizontal,yellow,Distractor2.bmp,purple,Distractor2.bmp,lime,Target2.bmp,cyan,Distractor1.bmp,blue,Distractor2.bmp,red,Distractor2.bmp,,,,TrialProc,,TrainingTrialList,1,2,-999999,0,3257675,0,2,516,3258191,Target2.bmp,lime,2,,,,3,2,9
KW_Experiment5A,49,1,"<?xml version=""1.0""?>\n<Clock xmlns:dt=""urn:schemas-microsoft-com:datatypes""><Description dt:dt=""string"">E-Prime Primary Realtime Clock</Description><StartTime><Timestamp dt:dt=""int"">0</Timestamp><DateUtc dt:dt=""string"">2018-10-26T15:06:46Z</DateUtc></StartTime><FrequencyChanges><FrequencyChange><Frequency dt:dt=""r8"">3215292</Frequency><Timestamp dt:dt=""r8"">1830945673643</Timestamp><Current dt:dt=""r8"">0</Current><DateUtc dt:dt=""string"">2018-10-26T15:06:46Z</DateUtc></FrequencyChange></FrequencyChanges></Clock>\n",KW_Experiment5A-49-1,59.945,1.0.0.105,2,1290237572,Professional,2.0.10.353,2.0.10.353,10/26/2018,10/26/2018 15:06,11:06:46,2.0.10.248,2,2,1,2,,,,,,,,TrainingProc,BlockList,10,2,Distractor2.bmp,2,0,,0,1,3259210,500,,0,0,purple,500,2,500,5,horizontal,purple,Distractor2.bmp,lime,Target2.bmp,blue,Distractor2.bmp,yellow,Distractor2.bmp,cyan,Distractor1.bmp,red,Distractor2.bmp,,,,TrialProc,,TrainingTrialList,1,2,-999999,0,3259710,0,2,520,3260230,Target2.bmp,lime,2,,,,2,2,10
KW_Experiment5A,49,1,"<?xml version=""1.0""?>\n<Clock xmlns:dt=""urn:schemas-microsoft-com:datatypes""><Description dt:dt=""string"">E-Prime Primary Realtime Clock</Description><StartTime><Timestamp dt:dt=""int"">0</Timestamp><DateUtc dt:dt=""string"">2018-10-26T15:06:46Z</DateUtc></StartTime><FrequencyChanges><FrequencyChange><Frequency dt:dt=""r8"">3215292</Frequency><Timestamp dt:dt=""r8"">1830945673643</Timestamp><Current dt:dt=""r8"">0</Current><DateUtc dt:dt=""string"">2018-10-26T15:06:46Z</DateUtc></FrequencyChange></FrequencyChanges></Clock>\n",KW_Experiment5A-49-1,59.945,1.0.0.105,2,1290237572,Professional,2.0.10.353,2.0.10.353,10/26/2018,10/26/2018 15:06,11:06:46,2.0.10.248,2,2,1,2,,,,,,,,TrainingProc,BlockList,11,1,Distractor1.bmp,1,0,,0,1,3261245,500,,0,0,lime,500,2,500,,vertical,lime,Distractor1.bmp,blue,Distractor2.bmp,purple,Distractor1.bmp,cyan,Distractor2.bmp,yellow,Distractor2.bmp,red,Target1.bmp,,,,TrialProc,6,TrainingTrialList,1,1,-999999,0,3261745,0,1,605,3262350,Target1.bmp,red,1,,,,12,2,11
KW_Experiment5A,49,1,"<?xml version=""1.0""?>\n<Clock xmlns:dt=""urn:schemas-microsoft-com:datatypes""><Description dt:dt=""string"">E-Prime Primary Realtime Clock</Description><StartTime><Timestamp dt:dt=""int"">0</Timestamp><DateUtc dt:dt=""string"">2018-10-26T15:06:46Z</DateUtc></StartTime><FrequencyChanges><FrequencyChange><Frequency dt:dt=""r8"">3215292</Frequency><Timestamp dt:dt=""r8"">1830945673643</Timestamp><Current dt:dt=""r8"">0</Current><DateUtc dt:dt=""string"">2018-10-26T15:06:46Z</DateUtc></FrequencyChange></FrequencyChanges></Clock>\n",KW_Experiment5A-49-1,59.945,1.0.0.105,2,1290237572,Professional,2.0.10.353,2.0.10.353,10/26/2018,10/26/2018 15:06,11:06:46,2.0.10.248,2,2,1,2,,,,,,,,TrainingProc,BlockList,12,2,Distractor2.bmp,2,0,,0,1,3263364,400,,0,0,cyan,400,1,400,,horizontal,cyan,Distractor2.bmp,yellow,Distractor2.bmp,purple,Distractor1.bmp,red,Target2.bmp,blue,Distractor2.bmp,lime,Distractor2.bmp,,,,TrialProc,4,TrainingTrialList,1,2,-999999,0,3263764,0,2,570,3264334,Target2.bmp,red,2,,,,10,2,12
KW_Experiment5A,49,1,"<?xml version=""1.0""?>\n<Clock xmlns:dt=""urn:schemas-microsoft-com:datatypes""><Description dt:dt=""string"">E-Prime Primary Realtime Clock</Description><StartTime><Timestamp dt:dt=""int"">0</Timestamp><DateUtc dt:dt=""string"">2018-10-26T15:06:46Z</DateUtc></StartTime><FrequencyChanges><FrequencyChange><Frequency dt:dt=""r8"">3215292</Frequency><Timestamp dt:dt=""r8"">1830945673643</Timestamp><Current dt:dt=""r8"">0</Current><DateUtc dt:dt=""string"">2018-10-26T15:06:46Z</DateUtc></FrequencyChange></FrequencyChanges></Clock>\n",KW_Experiment5A-49-1,59.945,1.0.0.105,2,1290237572,Professional,2.0.10.353,2.0.10.353,10/26/2018,10/26/2018 15:06,11:06:46,2.0.10.248,2,2,1,2,,,,,,,,TrainingProc,BlockList,13,2,Distractor1.bmp,1,0,,0,1,3265349,400,,0,0,yellow,400,1,400,2,horizontal,yellow,Distractor2.bmp,cyan,Distractor2.bmp,blue,Distractor2.bmp,lime,Target2.bmp,red,Distractor1.bmp,purple,Distractor2.bmp,,,,TrialProc,,TrainingTrialList,1,2,-999999,0,3265749,0,2,521,3266270,Target2.bmp,lime,2,,,,4,2,13
KW_Experiment5A,49,1,"<?xml version=""1.0""?>\n<Clock xmlns:dt=""urn:schemas-microsoft-com:datatypes""><Description dt:dt=""string"">E-Prime Primary Realtime Clock</Description><StartTime><Timestamp dt:dt=""int"">0</Timestamp><DateUtc dt:dt=""string"">2018-10-26T15:06:46Z</DateUtc></StartTime><FrequencyChanges><FrequencyChange><Frequency dt:dt=""r8"">3215292</Frequency><Timestamp dt:dt=""r8"">1830945673643</Timestamp><Current dt:dt=""r8"">0</Current><DateUtc dt:dt=""string"">2018-10-26T15:06:46Z</DateUtc></FrequencyChange></FrequencyChanges></Clock>\n",KW_Experiment5A-49-1,59.945,1.0.0.105,2,1290237572,Professional,2.0.10.353,2.0.10.353,10/26/2018,10/26/2018 15:06,11:06:46,2.0.10.248,2,2,1,2,,,,,,,,TrainingProc,BlockList,14,2,Distractor1.bmp,1,0,,0,1,3267284,400,,0,0,cyan,400,1,400,,horizontal,cyan,Distractor1.bmp,purple,Distractor2.bmp,red,Target2.bmp,yellow,Distractor1.bmp,lime,Distractor1.bmp,blue,Distractor1.bmp,,,,TrialProc,4,TrainingTrialList,1,2,-999999,0,3267684,0,2,466,3268150,Target2.bmp,red,2,,,,9,2,14
KW_Experiment5A,49,1,"<?xml version=""1.0""?>\n<Clock xmlns:dt=""urn:schemas-microsoft-com:datatypes""><Description dt:dt=""string"">E-Prime Primary Realtime Clock</Description><StartTime><Timestamp dt:dt=""int"">0</Timestamp><DateUtc dt:dt=""string"">2018-10-26T15:06:46Z</DateUtc></StartTime><FrequencyChanges><FrequencyChange><Frequency dt:dt=""r8"">3215292</Frequency><Timestamp dt:dt=""r8"">1830945673643</Timestamp><Current dt:dt=""r8"">0</Current><DateUtc dt:dt=""string"">2018-10-26T15:06:46Z</DateUtc></FrequencyChange></FrequencyChanges></Clock>\n",KW_Experiment5A-49-1,59.945,1.0.0.105,2,1290237572,Professional,2.0.10.353,2.0.10.353,10/26/2018,10/26/2018 15:06,11:06:46,2.0.10.248,2,2,1,2,,,,,,,,TrainingProc,BlockList,15,1,Distractor1.bmp,1,0,,0,1,3269169,400,,0,0,purple,400,1,400,,vertical,purple,Distractor1.bmp,cyan,Distractor2.bmp,yellow,Distractor1.bmp,lime,Distractor1.bmp,blue,Distractor1.bmp,red,Target1.bmp,,,,TrialProc,5,TrainingTrialList,1,1,-999999,0,3269569,0,1,597,3270166,Target1.bmp,red,1,,,,12,2,15
KW_Experiment5A,49,1,"<?xml version=""1.0""?>\n<Clock xmlns:dt=""urn:schemas-microsoft-com:datatypes""><Description dt:dt=""string"">E-Prime Primary Realtime Clock</Description><StartTime><Timestamp dt:dt=""int"">0</Timestamp><DateUtc dt:dt=""string"">2018-10-26T15:06:46Z</DateUtc></StartTime><FrequencyChanges><FrequencyChange><Frequency dt:dt=""r8"">3215292</Frequency><Timestamp dt:dt=""r8"">1830945673643</Timestamp><Current dt:dt=""r8"">0</Current><DateUtc dt:dt=""string"">2018-10-26T15:06:46Z</DateUtc></FrequencyChange></FrequencyChanges></Clock>\n",KW_Experiment5A-49-1,59.945,1.0.0.105,2,1290237572,Professional,2.0.10.353,2.0.10.353,10/26/2018,10/26/2018 15:06,11:06:46,2.0.10.248,2,2,1,2,,,,,,,,TrainingProc,BlockList,16,1,Distractor2.bmp,2,0,,0,1,3271187,401,,0,0,yellow,400,1,400,,vertical,yellow,Distractor2.bmp,purple,Distractor2.bmp,lime,Distractor2.bmp,blue,Distractor1.bmp,red,Target1.bmp,cyan,Distractor2.bmp,,,,TrialProc,2,TrainingTrialList,1,1,-999999,1,3271588,0,1,370,3271958,Target1.bmp,red,1,,,,11,2,16
KW_Experiment5A,49,1,"<?xml version=""1.0""?>\n<Clock xmlns:dt=""urn:schemas-microsoft-com:datatypes""><Description dt:dt=""string"">E-Prime Primary Realtime Clock</Description><StartTime><Timestamp dt:dt=""int"">0</Timestamp><DateUtc dt:dt=""string"">2018-10-26T15:06:46Z</DateUtc></StartTime><FrequencyChanges><FrequencyChange><Frequency dt:dt=""r8"">3215292</Frequency><Timestamp dt:dt=""r8"">1830945673643</Timestamp><Current dt:dt=""r8"">0</Current><DateUtc dt:dt=""string"">2018-10-26T15:06:46Z</DateUtc></FrequencyChange></FrequencyChanges></Clock>\n",KW_Experiment5A-49-1,59.945,1.0.0.105,2,1290237572,Professional,2.0.10.353,2.0.10.353,10/26/2018,10/26/2018 15:06,11:06:46,2.0.10.248,2,2,1,2,,,,,,,,TrainingProc,BlockList,17,1,Distractor2.bmp,2,0,,0,1,3272972,601,,0,0,yellow,600,3,600,,vertical,yellow,Distractor2.bmp,red,Target1.bmp,lime,Distractor2.bmp,purple,Distractor1.bmp,blue,Distractor1.bmp,cyan,Distractor1.bmp,,,,TrialProc,2,TrainingTrialList,1,1,-999999,1,3273573,0,1,425,3273998,Target1.bmp,red,1,,,,8,2,17
KW_Experiment5A,49,1,"<?xml version=""1.0""?>\n<Clock xmlns:dt=""urn:schemas-microsoft-com:datatypes""><Description dt:dt=""string"">E-Prime Primary Realtime Clock</Description><StartTime><Timestamp dt:dt=""int"">0</Timestamp><DateUtc dt:dt=""string"">2018-10-26T15:06:46Z</DateUtc></StartTime><FrequencyChanges><FrequencyChange><Frequency dt:dt=""r8"">3215292</Frequency><Timestamp dt:dt=""r8"">1830945673643</Timestamp><Current dt:dt=""r8"">0</Current><DateUtc dt:dt=""string"">2018-10-26T15:06:46Z</DateUtc></FrequencyChange></FrequencyChanges></Clock>\n",KW_Experiment5A-49-1,59.945,1.0.0.105,2,1290237572,Professional,2.0.10.353,2.0.10.353,10/26/2018,10/26/2018 15:06,11:06:46,2.0.10.248,2,2,1,2,,,,,,,,TrainingProc,BlockList,18,1,Distractor1.bmp,1,0,,0,1,3275024,601,,0,0,blue,600,3,600,,vertical,blue,Distractor1.bmp,purple,Distractor2.bmp,cyan,Distractor1.bmp,lime,Distractor1.bmp,yellow,Distractor1.bmp,red,Target1.bmp,,,,TrialProc,3,TrainingTrialList,1,1,-999999,1,3275625,0,1,485,3276110,Target1.bmp,red,1,,,,12,2,18
KW_Experiment5A,49,1,"<?xml version=""1.0""?>\n<Clock xmlns:dt=""urn:schemas-microsoft-com:datatypes""><Description dt:dt=""string"">E-Prime Primary Realtime Clock</Description><StartTime><Timestamp dt:dt=""int"">0</Timestamp><DateUtc dt:dt=""string"">2018-10-26T15:06:46Z</DateUtc></StartTime><FrequencyChanges><FrequencyChange><Frequency dt:dt=""r8"">3215292</Frequency><Timestamp dt:dt=""r8"">1830945673643</Timestamp><Current dt:dt=""r8"">0</Current><DateUtc dt:dt=""string"">2018-10-26T15:06:46Z</DateUtc></FrequencyChange></FrequencyChanges></Clock>\n",KW_Experiment5A-49-1,59.945,1.0.0.105,2,1290237572,Professional,2.0.10.353,2.0.10.353,10/26/2018,10/26/2018 15:06,11:06:46,2.0.10.248,2,2,1,2,,,,,,,,TrainingProc,BlockList,19,1,Distractor1.bmp,1,0,,0,1,3277126,501,,0,0,yellow,500,2,500,,vertical,yellow,Distractor1.bmp,lime,Distractor1.bmp,cyan,Distractor2.bmp,red,Target1.bmp,blue,Distractor1.bmp,purple,Distractor1.bmp,,,,TrialProc,2,TrainingTrialList,1,1,-999999,1,3277627,0,1,475,3278102,Target1.bmp,red,1,,,,10,2,19
KW_Experiment5A,49,1,"<?xml version=""1.0""?>\n<Clock xmlns:dt=""urn:schemas-microsoft-com:datatypes""><Description dt:dt=""string"">E-Prime Primary Realtime Clock</Description><StartTime><Timestamp dt:dt=""int"">0</Timestamp><DateUtc dt:dt=""string"">2018-10-26T15:06:46Z</DateUtc></StartTime><FrequencyChanges><FrequencyChange><Frequency dt:dt=""r8"">3215292</Frequency><Timestamp dt:dt=""r8"">1830945673643</Timestamp><Current dt:dt=""r8"">0</Current><DateUtc dt:dt=""string"">2018-10-26T15:06:46Z</DateUtc></FrequencyChange></FrequencyChanges></Clock>\n",KW_Experiment5A-49-1,59.945,1.0.0.105,2,1290237572,Professional,2.0.10.353,2.0.10.353,10/26/2018,10/26/2018 15:06,11:06:46,2.0.10.248,2,2,1,2,,,,,,,,TrainingProc,BlockList,20,2,Distractor2.bmp,2,0,,0,1,3279128,400,,0,0,yellow,400,1,400,,horizontal,red,Target2.bmp,cyan,Distractor2.bmp,lime,Distractor2.bmp,purple,Distractor2.bmp,blue,Distractor2.bmp,yellow,Distractor1.bmp,,,,TrialProc,2,TrainingTrialList,1,2,-999999,0,3279528,0,2,398,3279926,Target2.bmp,red,2,,,,7,2,20
KW_Experiment5A,49,1,"<?xml version=""1.0""?>\n<Clock xmlns:dt=""urn:schemas-microsoft-com:datatypes""><Description dt:dt=""string"">E-Prime Primary Realtime Clock</Description><StartTime><Timestamp dt:dt=""int"">0</Timestamp><DateUtc dt:dt=""string"">2018-10-26T15:06:46Z</DateUtc></StartTime><FrequencyChanges><FrequencyChange><Frequency dt:dt=""r8"">3215292</Frequency><Timestamp dt:dt=""r8"">1830945673643</Timestamp><Current dt:dt=""r8"">0</Current><DateUtc dt:dt=""string"">2018-10-26T15:06:46Z</DateUtc></FrequencyChange></FrequencyChanges></Clock>\n",KW_Experiment5A-49-1,59.945,1.0.0.105,2,1290237572,Professional,2.0.10.353,2.0.10.353,10/26/2018,10/26/2018 15:06,11:06:46,2.0.10.248,2,2,1,2,,,,,,,,TrainingProc,BlockList,21,1,Distractor1.bmp,1,0,,0,1,3280946,501,,0,0,yellow,500,2,500,2,vertical,lime,Target1.bmp,yellow,Distractor1.bmp,red,Distractor1.bmp,purple,Distractor1.bmp,cyan,Distractor1.bmp,blue,Distractor1.bmp,,,,TrialProc,,TrainingTrialList,0,1,-999999,1,3281447,0,2,543,3281990,Target1.bmp,lime,1,,,,1,2,21
KW_Experiment5A,49,1,"<?xml version=""1.0""?>\n<Clock xmlns:dt=""urn:schemas-microsoft-com:datatypes""><Description dt:dt=""string"">E-Prime Primary Realtime Clock</Description><StartTime><Timestamp dt:dt=""int"">0</Timestamp><DateUtc dt:dt=""string"">2018-10-26T15:06:46Z</DateUtc></StartTime><FrequencyChanges><FrequencyChange><Frequency dt:dt=""r8"">3215292</Frequency><Timestamp dt:dt=""r8"">1830945673643</Timestamp><Current dt:dt=""r8"">0</Current><DateUtc dt:dt=""string"">2018-10-26T15:06:46Z</DateUtc></FrequencyChange></FrequencyChanges></Clock>\n",KW_Experiment5A-49-1,59.945,1.0.0.105,2,1290237572,Professional,2.0.10.353,2.0.10.353,10/26/2018,10/26/2018 15:06,11:06:46,2.0.10.248,2,2,1,2,,,,,,,,TrainingProc,BlockList,22,1,Distractor1.bmp,1,0,,0,1,3283015,500,,0,0,purple,500,2,500,,vertical,purple,Distractor2.bmp,cyan,Distractor2.bmp,red,Target1.bmp,yellow,Distractor1.bmp,blue,Distractor1.bmp,lime,Distractor1.bmp,,,,TrialProc,5,TrainingTrialList,0,1,-999999,0,3283515,0,2,547,3284062,Target1.bmp,red,1,,,,9,2,22
KW_Experiment5A,49,1,"<?xml version=""1.0""?>\n<Clock xmlns:dt=""urn:schemas-microsoft-com:datatypes""><Description dt:dt=""string"">E-Prime Primary Realtime Clock</Description><StartTime><Timestamp dt:dt=""int"">0</Timestamp><DateUtc dt:dt=""string"">2018-10-26T15:06:46Z</DateUtc></StartTime><FrequencyChanges><FrequencyChange><Frequency dt:dt=""r8"">3215292</Frequency><Timestamp dt:dt=""r8"">1830945673643</Timestamp><Current dt:dt=""r8"">0</Current><DateUtc dt:dt=""string"">2018-10-26T15:06:46Z</DateUtc></FrequencyChange></FrequencyChanges></Clock>\n",KW_Experiment5A-49-1,59.945,1.0.0.105,2,1290237572,Professional,2.0.10.353,2.0.10.353,10/26/2018,10/26/2018 15:06,11:06:46,2.0.10.248,2,2,1,2,,,,,,,,TrainingProc,BlockList,23,1,Distractor2.bmp,2,0,,0,1,3285083,501,,0,0,cyan,500,2,500,,vertical,red,Target1.bmp,purple,Distractor2.bmp,yellow,Distractor2.bmp,blue,Distractor1.bmp,lime,Distractor1.bmp,cyan,Distractor2.bmp,,,,TrialProc,4,TrainingTrialList,1,1,-999999,1,3285584,0,1,630,3286214,Target1.bmp,red,1,,,,7,2,23
KW_Experiment5A,49,1,"<?xml version=""1.0""?>\n<Clock xmlns:dt=""urn:schemas-microsoft-com:datatypes""><Description dt:dt=""string"">E-Prime Primary Realtime Clock</Description><StartTime><Timestamp dt:dt=""int"">0</Timestamp><DateUtc dt:dt=""string"">2018-10-26T15:06:46Z</DateUtc></StartTime><FrequencyChanges><FrequencyChange><Frequency dt:dt=""r8"">3215292</Frequency><Timestamp dt:dt=""r8"">1830945673643</Timestamp><Current dt:dt=""r8"">0</Current><DateUtc dt:dt=""string"">2018-10-26T15:06:46Z</DateUtc></FrequencyChange></FrequencyChanges></Clock>\n",KW_Experiment5A-49-1,59.945,1.0.0.105,2,1290237572,Professional,2.0.10.353,2.0.10.353,10/26/2018,10/26/2018 15:06,11:06:46,2.0.10.248,2,2,1,2,,,,,,,,TrainingProc,BlockList,24,2,Distractor2.bmp,2,0,,0,1,3287235,601,,0,0,cyan,600,3,600,,horizontal,cyan,Distractor1.bmp,red,Target2.bmp,lime,Distractor2.bmp,purple,Distractor2.bmp,yellow,Distractor1.bmp,blue,Distractor2.bmp,,,,TrialProc,4,TrainingTrialList,1,2,-999999,1,3287836,0,2,498,3288334,Target2.bmp,red,2,,,,8,2,24
KW_Experiment5A,49,1,"<?xml version=""1.0""?>\n<Clock xmlns:dt=""urn:schemas-microsoft-com:datatypes""><Description dt:dt=""string"">E-Prime Primary Realtime Clock</Description><StartTime><Timestamp dt:dt=""int"">0</Timestamp><DateUtc dt:dt=""string"">2018-10-26T15:06:46Z</DateUtc></StartTime><FrequencyChanges><FrequencyChange><Frequency dt:dt=""r8"">3215292</Frequency><Timestamp dt:dt=""r8"">1830945673643</Timestamp><Current dt:dt=""r8"">0</Current><DateUtc dt:dt=""string"">2018-10-26T15:06:46Z</DateUtc></FrequencyChange></FrequencyChanges></Clock>\n",KW_Experiment5A-49-1,59.945,1.0.0.105,2,1290237572,Professional,2.0.10.353,2.0.10.353,10/26/2018,10/26/2018 15:06,11:06:46,2.0.10.248,2,2,1,2,,,,,,,,TrainingProc,BlockList,25,1,Distractor1.bmp,1,0,,0,1,3289354,600,,0,0,yellow,600,3,600,,vertical,yellow,Distractor1.bmp,cyan,Distractor2.bmp,purple,Distractor1.bmp,lime,Distractor1.bmp,blue,Distractor2.bmp,red,Target1.bmp,,,,TrialProc,2,TrainingTrialList,1,1,-999999,0,3289954,0,1,468,3290422,Target1.bmp,red,1,,,,12,3,25
KW_Experiment5A,49,1,"<?xml version=""1.0""?>\n<Clock xmlns:dt=""urn:schemas-microsoft-com:datatypes""><Description dt:dt=""string"">E-Prime Primary Realtime Clock</Description><StartTime><Timestamp dt:dt=""int"">0</Timestamp><DateUtc dt:dt=""string"">2018-10-26T15:06:46Z</DateUtc></StartTime><FrequencyChanges><FrequencyChange><Frequency dt:dt=""r8"">3215292</Frequency><Timestamp dt:dt=""r8"">1830945673643</Timestamp><Current dt:dt=""r8"">0</Current><DateUtc dt:dt=""string"">2018-10-26T15:06:46Z</DateUtc></FrequencyChange></FrequencyChanges></Clock>\n",KW_Experiment5A-49-1,59.945,1.0.0.105,2,1290237572,Professional,2.0.10.353,2.0.10.353,10/26/2018,10/26/2018 15:06,11:06:46,2.0.10.248,2,2,1,2,,,,,,,,TrainingProc,BlockList,26,2,Distractor1.bmp,1,0,,0,1,3291439,501,,0,0,yellow,500,2,500,,horizontal,red,Target2.bmp,lime,Distractor1.bmp,purple,Distractor1.bmp,cyan,Distractor2.bmp,blue,Distractor2.bmp,yellow,Distractor1.bmp,,,,TrialProc,2,TrainingTrialList,1,2,-999999,1,3291940,0,2,466,3292406,Target2.bmp,red,2,,,,7,3,26
KW_Experiment5A,49,1,"<?xml version=""1.0""?>\n<Clock xmlns:dt=""urn:schemas-microsoft-com:datatypes""><Description dt:dt=""string"">E-Prime Primary Realtime Clock</Description><StartTime><Timestamp dt:dt=""int"">0</Timestamp><DateUtc dt:dt=""string"">2018-10-26T15:06:46Z</DateUtc></StartTime><FrequencyChanges><FrequencyChange><Frequency dt:dt=""r8"">3215292</Frequency><Timestamp dt:dt=""r8"">1830945673643</Timestamp><Current dt:dt=""r8"">0</Current><DateUtc dt:dt=""string"">2018-10-26T15:06:46Z</DateUtc></FrequencyChange></FrequencyChanges></Clock>\n",KW_Experiment5A-49-1,59.945,1.0.0.105,2,1290237572,Professional,2.0.10.353,2.0.10.353,10/26/2018,10/26/2018 15:06,11:06:46,2.0.10.248,2,2,1,2,,,,,,,,TrainingProc,BlockList,27,2,Distractor1.bmp,1,0,,0,1,3293424,401,,0,0,cyan,400,1,400,,horizontal,cyan,Distractor1.bmp,lime,Distractor2.bmp,blue,Distractor1.bmp,yellow,Distractor2.bmp,red,Target2.bmp,purple,Distractor1.bmp,,,,TrialProc,4,TrainingTrialList,0,2,-999999,1,3293825,0,1,357,3294182,Target2.bmp,red,2,,,,11,3,27
KW_Experiment5A,49,1,"<?xml version=""1.0""?>\n<Clock xmlns:dt=""urn:schemas-microsoft-com:datatypes""><Description dt:dt=""string"">E-Prime Primary Realtime Clock</Description><StartTime><Timestamp dt:dt=""int"">0</Timestamp><DateUtc dt:dt=""string"">2018-10-26T15:06:46Z</DateUtc></StartTime><FrequencyChanges><FrequencyChange><Frequency dt:dt=""r8"">3215292</Frequency><Timestamp dt:dt=""r8"">1830945673643</Timestamp><Current dt:dt=""r8"">0</Current><DateUtc dt:dt=""string"">2018-10-26T15:06:46Z</DateUtc></FrequencyChange></FrequencyChanges></Clock>\n",KW_Experiment5A-49-1,59.945,1.0.0.105,2,1290237572,Professional,2.0.10.353,2.0.10.353,10/26/2018,10/26/2018 15:06,11:06:46,2.0.10.248,2,2,1,2,,,,,,,,TrainingProc,BlockList,28,1,Distractor2.bmp,2,0,,0,1,3295209,400,,0,0,cyan,400,1,400,4,vertical,lime,Target1.bmp,cyan,Distractor2.bmp,purple,Distractor2.bmp,yellow,Distractor2.bmp,blue,Distractor2.bmp,red,Distractor1.bmp,,,,TrialProc,,TrainingTrialList,1,1,-999999,0,3295609,0,1,661,3296270,Target1.bmp,lime,1,,,,1,3,28
KW_Experiment5A,49,1,"<?xml version=""1.0""?>\n<Clock xmlns:dt=""urn:schemas-microsoft-com:datatypes""><Description dt:dt=""string"">E-Prime Primary Realtime Clock</Description><StartTime><Timestamp dt:dt=""int"">0</Timestamp><DateUtc dt:dt=""string"">2018-10-26T15:06:46Z</DateUtc></StartTime><FrequencyChanges><FrequencyChange><Frequency dt:dt=""r8"">3215292</Frequency><Timestamp dt:dt=""r8"">1830945673643</Timestamp><Current dt:dt=""r8"">0</Current><DateUtc dt:dt=""string"">2018-10-26T15:06:46Z</DateUtc></FrequencyChange></FrequencyChanges></Clock>\n",KW_Experiment5A-49-1,59.945,1.0.0.105,2,1290237572,Professional,2.0.10.353,2.0.10.353,10/26/2018,10/26/2018 15:06,11:06:46,2.0.10.248,2,2,1,2,,,,,,,,TrainingProc,BlockList,29,1,Distractor2.bmp,2,0,,0,1,3297294,401,,0,0,blue,400,1,400,,vertical,blue,Distractor1.bmp,red,Target1.bmp,cyan,Distractor2.bmp,purple,Distractor2.bmp,yellow,Distractor2.bmp,lime,Distractor2.bmp,,,,TrialProc,3,TrainingTrialList,0,1,-999999,1,3297695,0,2,447,3298142,Target1.bmp,red,1,,,,8,3,29
KW_Experiment5A,49,1,"<?xml version=""1.0""?>\n<Clock xmlns:dt=""urn:schemas-microsoft-com:datatypes""><Description dt:dt=""string"">E-Prime Primary Realtime Clock</Description><StartTime><Timestamp dt:dt=""int"">0</Timestamp><DateUtc dt:dt=""string"">2018-10-26T15:06:46Z</DateUtc></StartTime><FrequencyChanges><FrequencyChange><Frequency dt:dt=""r8"">3215292</Frequency><Timestamp dt:dt=""r8"">1830945673643</Timestamp><Current dt:dt=""r8"">0</Current><DateUtc dt:dt=""string"">2018-10-26T15:06:46Z</DateUtc></FrequencyChange></FrequencyChanges></Clock>\n",KW_Experiment5A-49-1,59.945,1.0.0.105,2,1290237572,Professional,2.0.10.353,2.0.10.353,10/26/2018,10/26/2018 15:06,11:06:46,2.0.10.248,2,2,1,2,,,,,,,,TrainingProc,BlockList,30,1,Distractor2.bmp,2,0,,0,1,3299163,600,,0,0,yellow,600,3,600,,vertical,yellow,Distractor1.bmp,lime,Distractor2.bmp,blue,Distractor2.bmp,red,Target1.bmp,cyan,Distractor2.bmp,purple,Distractor2.bmp,,,,TrialProc,2,TrainingTrialList,1,1,-999999,0,3299763,0,1,595,3300358,Target1.bmp,red,1,,,,10,3,30
KW_Experiment5A,49,1,"<?xml version=""1.0""?>\n<Clock xmlns:dt=""urn:schemas-microsoft-com:datatypes""><Description dt:dt=""string"">E-Prime Primary Realtime Clock</Description><StartTime><Timestamp dt:dt=""int"">0</Timestamp><DateUtc dt:dt=""string"">2018-10-26T15:06:46Z</DateUtc></StartTime><FrequencyChanges><FrequencyChange><Frequency dt:dt=""r8"">3215292</Frequency><Timestamp dt:dt=""r8"">1830945673643</Timestamp><Current dt:dt=""r8"">0</Current><DateUtc dt:dt=""string"">2018-10-26T15:06:46Z</DateUtc></FrequencyChange></FrequencyChanges></Clock>\n",KW_Experiment5A-49-1,59.945,1.0.0.105,2,1290237572,Professional,2.0.10.353,2.0.10.353,10/26/2018,10/26/2018 15:06,11:06:46,2.0.10.248,2,2,1,2,,,,,,,,TrainingProc,BlockList,31,1,Distractor1.bmp,1,0,,1,0,3301381,601,,0,0,purple,600,3,600,,vertical,purple,Distractor1.bmp,yellow,Distractor1.bmp,red,Target1.bmp,blue,Distractor1.bmp,lime,Distractor1.bmp,cyan,Distractor2.bmp,,,,TrialProc,5,TrainingTrialList,1,1,-999999,1,3301982,0,1,519,3302501,Target1.bmp,red,1,,,,9,3,31
KW_Experiment5A,49,1,"<?xml version=""1.0""?>\n<Clock xmlns:dt=""urn:schemas-microsoft-com:datatypes""><Description dt:dt=""string"">E-Prime Primary Realtime Clock</Description><StartTime><Timestamp dt:dt=""int"">0</Timestamp><DateUtc dt:dt=""string"">2018-10-26T15:06:46Z</DateUtc></StartTime><FrequencyChanges><FrequencyChange><Frequency dt:dt=""r8"">3215292</Frequency><Timestamp dt:dt=""r8"">1830945673643</Timestamp><Current dt:dt=""r8"">0</Current><DateUtc dt:dt=""string"">2018-10-26T15:06:46Z</DateUtc></FrequencyChange></FrequencyChanges></Clock>\n",KW_Experiment5A-49-1,59.945,1.0.0.105,2,1290237572,Professional,2.0.10.353,2.0.10.353,10/26/2018,10/26/2018 15:06,11:06:46,2.0.10.248,2,2,1,2,,,,,,,,TrainingProc,BlockList,32,2,Distractor1.bmp,1,0,,0,1,3303517,600,,0,0,blue,600,3,600,,horizontal,blue,Distractor2.bmp,red,Target2.bmp,lime,Distractor1.bmp,purple,Distractor2.bmp,cyan,Distractor2.bmp,yellow,Distractor1.bmp,,,,TrialProc,3,TrainingTrialList,1,2,-999999,0,3304117,0,2,440,3304557,Target2.bmp,red,2,,,,8,3,32
KW_Experiment5A,49,1,"<?xml version=""1.0""?>\n<Clock xmlns:dt=""urn:schemas-microsoft-com:datatypes""><Description dt:dt=""string"">E-Prime Primary Realtime Clock</Description><StartTime><Timestamp dt:dt=""int"">0</Timestamp><DateUtc dt:dt=""string"">2018-10-26T15:06:46Z</DateUtc></StartTime><FrequencyChanges><FrequencyChange><Frequency dt:dt=""r8"">3215292</Frequency><Timestamp dt:dt=""r8"">1830945673643</Timestamp><Current dt:dt=""r8"">0</Current><DateUtc dt:dt=""string"">2018-10-26T15:06:46Z</DateUtc></FrequencyChange></FrequencyChanges></Clock>\n",KW_Experiment5A-49-1,59.945,1.0.0.105,2,1290237572,Professional,2.0.10.353,2.0.10.353,10/26/2018,10/26/2018 15:06,11:06:46,2.0.10.248,2,2,1,2,,,,,,,,TrainingProc,BlockList,33,1,Distractor1.bmp,1,0,,0,1,3305569,400,,0,0,yellow,400,1,400,,vertical,yellow,Distractor1.bmp,cyan,Distractor1.bmp,lime,Distractor1.bmp,purple,Distractor1.bmp,red,Target1.bmp,blue,Distractor1.bmp,,,,TrialProc,2,TrainingTrialList,1,1,-999999,0,3305969,0,1,436,3306405,Target1.bmp,red,1,,,,11,3,33
KW_Experiment5A,49,1,"<?xml version=""1.0""?>\n<Clock xmlns:dt=""urn:schemas-microsoft-com:datatypes""><Description dt:dt=""string"">E-Prime Primary Realtime Clock</Description><StartTime><Timestamp dt:dt=""int"">0</Timestamp><DateUtc dt:dt=""string"">2018-10-26T15:06:46Z</DateUtc></StartTime><FrequencyChanges><FrequencyChange><Frequency dt:dt=""r8"">3215292</Frequency><Timestamp dt:dt=""r8"">1830945673643</Timestamp><Current dt:dt=""r8"">0</Current><DateUtc dt:dt=""string"">2018-10-26T15:06:46Z</DateUtc></FrequencyChange></FrequencyChanges></Clock>\n",KW_Experiment5A-49-1,59.945,1.0.0.105,2,1290237572,Professional,2.0.10.353,2.0.10.353,10/26/2018,10/26/2018 15:06,11:06:46,2.0.10.248,2,2,1,2,,,,,,,,TrainingProc,BlockList,34,1,Distractor2.bmp,2,0,,0,1,3307420,601,,0,0,purple,600,3,600,5,vertical,purple,Distractor2.bmp,lime,Target1.bmp,cyan,Distractor2.bmp,blue,Distractor1.bmp,red,Distractor2.bmp,yellow,Distractor1.bmp,,,,TrialProc,,TrainingTrialList,1,1,-999999,1,3308021,0,1,432,3308453,Target1.bmp,lime,1,,,,2,3,34
KW_Experiment5A,49,1,"<?xml version=""1.0""?>\n<Clock xmlns:dt=""urn:schemas-microsoft-com:datatypes""><Description dt:dt=""string"">E-Prime Primary Realtime Clock</Description><StartTime><Timestamp dt:dt=""int"">0</Timestamp><DateUtc dt:dt=""string"">2018-10-26T15:06:46Z</DateUtc></StartTime><FrequencyChanges><FrequencyChange><Frequency dt:dt=""r8"">3215292</Frequency><Timestamp dt:dt=""r8"">1830945673643</Timestamp><Current dt:dt=""r8"">0</Current><DateUtc dt:dt=""string"">2018-10-26T15:06:46Z</DateUtc></FrequencyChange></FrequencyChanges></Clock>\n",KW_Experiment5A-49-1,59.945,1.0.0.105,2,1290237572,Professional,2.0.10.353,2.0.10.353,10/26/2018,10/26/2018 15:06,11:06:46,2.0.10.248,2,2,1,2,,,,,,,,TrainingProc,BlockList,35,2,Distractor2.bmp,2,0,,0,1,3309472,501,,0,0,blue,500,2,500,,horizontal,blue,Distractor2.bmp,cyan,Distractor1.bmp,lime,Distractor1.bmp,yellow,Distractor2.bmp,purple,Distractor1.bmp,red,Target2.bmp,,,,TrialProc,3,TrainingTrialList,1,2,-999999,1,3309973,0,2,600,3310573,Target2.bmp,red,2,,,,12,3,35
KW_Experiment5A,49,1,"<?xml version=""1.0""?>\n<Clock xmlns:dt=""urn:schemas-microsoft-com:datatypes""><Description dt:dt=""string"">E-Prime Primary Realtime Clock</Description><StartTime><Timestamp dt:dt=""int"">0</Timestamp><DateUtc dt:dt=""string"">2018-10-26T15:06:46Z</DateUtc></StartTime><FrequencyChanges><FrequencyChange><Frequency dt:dt=""r8"">3215292</Frequency><Timestamp dt:dt=""r8"">1830945673643</Timestamp><Current dt:dt=""r8"">0</Current><DateUtc dt:dt=""string"">2018-10-26T15:06:46Z</DateUtc></FrequencyChange></FrequencyChanges></Clock>\n",KW_Experiment5A-49-1,59.945,1.0.0.105,2,1290237572,Professional,2.0.10.353,2.0.10.353,10/26/2018,10/26/2018 15:06,11:06:46,2.0.10.248,2,2,1,2,,,,,,,,TrainingProc,BlockList,36,2,Distractor2.bmp,2,0,,0,1,3311591,500,,0,0,yellow,500,2,500,2,horizontal,yellow,Distractor2.bmp,cyan,Distractor2.bmp,red,Distractor2.bmp,blue,Distractor1.bmp,purple,Distractor2.bmp,lime,Target2.bmp,,,,TrialProc,,TrainingTrialList,1,2,-999999,0,3312091,0,2,730,3312821,Target2.bmp,lime,2,,,,6,3,36
KW_Experiment5A,49,1,"<?xml version=""1.0""?>\n<Clock xmlns:dt=""urn:schemas-microsoft-com:datatypes""><Description dt:dt=""string"">E-Prime Primary Realtime Clock</Description><StartTime><Timestamp dt:dt=""int"">0</Timestamp><DateUtc dt:dt=""string"">2018-10-26T15:06:46Z</DateUtc></StartTime><FrequencyChanges><FrequencyChange><Frequency dt:dt=""r8"">3215292</Frequency><Timestamp dt:dt=""r8"">1830945673643</Timestamp><Current dt:dt=""r8"">0</Current><DateUtc dt:dt=""string"">2018-10-26T15:06:46Z</DateUtc></FrequencyChange></FrequencyChanges></Clock>\n",KW_Experiment5A-49-1,59.945,1.0.0.105,2,1290237572,Professional,2.0.10.353,2.0.10.353,10/26/2018,10/26/2018 15:06,11:06:46,2.0.10.248,2,2,1,2,,,,,,,,TrainingProc,BlockList,37,2,Distractor2.bmp,2,0,,0,1,3313843,400,,0,0,yellow,400,1,400,,horizontal,yellow,Distractor2.bmp,purple,Distractor2.bmp,red,Target2.bmp,blue,Distractor2.bmp,cyan,Distractor2.bmp,lime,Distractor2.bmp,,,,TrialProc,2,TrainingTrialList,1,2,-999999,0,3314243,0,2,618,3314861,Target2.bmp,red,2,,,,9,3,37
KW_Experiment5A,49,1,"<?xml version=""1.0""?>\n<Clock xmlns:dt=""urn:schemas-microsoft-com:datatypes""><Description dt:dt=""string"">E-Prime Primary Realtime Clock</Description><StartTime><Timestamp dt:dt=""int"">0</Timestamp><DateUtc dt:dt=""string"">2018-10-26T15:06:46Z</DateUtc></StartTime><FrequencyChanges><FrequencyChange><Frequency dt:dt=""r8"">3215292</Frequency><Timestamp dt:dt=""r8"">1830945673643</Timestamp><Current dt:dt=""r8"">0</Current><DateUtc dt:dt=""string"">2018-10-26T15:06:46Z</DateUtc></FrequencyChange></FrequencyChanges></Clock>\n",KW_Experiment5A-49-1,59.945,1.0.0.105,2,1290237572,Professional,2.0.10.353,2.0.10.353,10/26/2018,10/26/2018 15:06,11:06:46,2.0.10.248,2,2,1,2,,,,,,,,TrainingProc,BlockList,38,2,Distractor1.bmp,1,0,,0,1,3315878,600,,0,0,yellow,600,3,600,,horizontal,yellow,Distractor2.bmp,cyan,Distractor2.bmp,purple,Distractor2.bmp,blue,Distractor1.bmp,red,Target2.bmp,lime,Distractor1.bmp,,,,TrialProc,2,TrainingTrialList,1,2,-999999,0,3316478,0,2,599,3317077,Target2.bmp,red,2,,,,11,3,38
KW_Experiment5A,49,1,"<?xml version=""1.0""?>\n<Clock xmlns:dt=""urn:schemas-microsoft-com:datatypes""><Description dt:dt=""string"">E-Prime Primary Realtime Clock</Description><StartTime><Timestamp dt:dt=""int"">0</Timestamp><DateUtc dt:dt=""string"">2018-10-26T15:06:46Z</DateUtc></StartTime><FrequencyChanges><FrequencyChange><Frequency dt:dt=""r8"">3215292</Frequency><Timestamp dt:dt=""r8"">1830945673643</Timestamp><Current dt:dt=""r8"">0</Current><DateUtc dt:dt=""string"">2018-10-26T15:06:46Z</DateUtc></FrequencyChange></FrequencyChanges></Clock>\n",KW_Experiment5A-49-1,59.945,1.0.0.105,2,1290237572,Professional,2.0.10.353,2.0.10.353,10/26/2018,10/26/2018 15:06,11:06:46,2.0.10.248,2,2,1,2,,,,,,,,TrainingProc,BlockList,39,1,Distractor2.bmp,2,0,,0,1,3318097,500,,0,0,yellow,500,2,500,,vertical,red,Target1.bmp,blue,Distractor2.bmp,purple,Distractor2.bmp,cyan,Distractor1.bmp,lime,Distractor1.bmp,yellow,Distractor1.bmp,,,,TrialProc,2,TrainingTrialList,1,1,-999999,0,3318597,0,1,440,3319037,Target1.bmp,red,1,,,,7,3,39
KW_Experiment5A,49,1,"<?xml version=""1.0""?>\n<Clock xmlns:dt=""urn:schemas-microsoft-com:datatypes""><Description dt:dt=""string"">E-Prime Primary Realtime Clock</Description><StartTime><Timestamp dt:dt=""int"">0</Timestamp><DateUtc dt:dt=""string"">2018-10-26T15:06:46Z</DateUtc></StartTime><FrequencyChanges><FrequencyChange><Frequency dt:dt=""r8"">3215292</Frequency><Timestamp dt:dt=""r8"">1830945673643</Timestamp><Current dt:dt=""r8"">0</Current><DateUtc dt:dt=""string"">2018-10-26T15:06:46Z</DateUtc></FrequencyChange></FrequencyChanges></Clock>\n",KW_Experiment5A-49-1,59.945,1.0.0.105,2,1290237572,Professional,2.0.10.353,2.0.10.353,10/26/2018,10/26/2018 15:06,11:06:46,2.0.10.248,2,2,1,2,,,,,,,,TrainingProc,BlockList,40,2,Distractor2.bmp,2,0,,0,1,3320048,401,,0,0,purple,400,1,400,5,horizontal,purple,Distractor2.bmp,red,Distractor2.bmp,cyan,Distractor2.bmp,blue,Distractor1.bmp,lime,Target2.bmp,yellow,Distractor2.bmp,,,,TrialProc,,TrainingTrialList,0,2,-999999,1,3320449,0,1,460,3320909,Target2.bmp,lime,2,,,,5,3,40
KW_Experiment5A,49,1,"<?xml version=""1.0""?>\n<Clock xmlns:dt=""urn:schemas-microsoft-com:datatypes""><Description dt:dt=""string"">E-Prime Primary Realtime Clock</Description><StartTime><Timestamp dt:dt=""int"">0</Timestamp><DateUtc dt:dt=""string"">2018-10-26T15:06:46Z</DateUtc></StartTime><FrequencyChanges><FrequencyChange><Frequency dt:dt=""r8"">3215292</Frequency><Timestamp dt:dt=""r8"">1830945673643</Timestamp><Current dt:dt=""r8"">0</Current><DateUtc dt:dt=""string"">2018-10-26T15:06:46Z</DateUtc></FrequencyChange></FrequencyChanges></Clock>\n",KW_Experiment5A-49-1,59.945,1.0.0.105,2,1290237572,Professional,2.0.10.353,2.0.10.353,10/26/2018,10/26/2018 15:06,11:06:46,2.0.10.248,2,2,1,2,,,,,,,,TrainingProc,BlockList,41,2,Distractor2.bmp,2,0,,0,0,3321933,601,,0,0,blue,600,3,600,3,horizontal,blue,Distractor1.bmp,cyan,Distractor1.bmp,lime,Target2.bmp,purple,Distractor2.bmp,yellow,Distractor2.bmp,red,Distractor1.bmp,,,,TrialProc,,TrainingTrialList,1,2,-999999,1,3322534,0,2,615,3323149,Target2.bmp,lime,2,,,,3,3,41
KW_Experiment5A,49,1,"<?xml version=""1.0""?>\n<Clock xmlns:dt=""urn:schemas-microsoft-com:datatypes""><Description dt:dt=""string"">E-Prime Primary Realtime Clock</Description><StartTime><Timestamp dt:dt=""int"">0</Timestamp><DateUtc dt:dt=""string"">2018-10-26T15:06:46Z</DateUtc></StartTime><FrequencyChanges><FrequencyChange><Frequency dt:dt=""r8"">3215292</Frequency><Timestamp dt:dt=""r8"">1830945673643</Timestamp><Current dt:dt=""r8"">0</Current><DateUtc dt:dt=""string"">2018-10-26T15:06:46Z</DateUtc></FrequencyChange></FrequencyChanges></Clock>\n",KW_Experiment5A-49-1,59.945,1.0.0.105,2,1290237572,Professional,2.0.10.353,2.0.10.353,10/26/2018,10/26/2018 15:06,11:06:46,2.0.10.248,2,2,1,2,,,,,,,,TrainingProc,BlockList,42,2,Distractor2.bmp,2,0,,0,1,3324169,400,,0,0,blue,400,1,400,,horizontal,blue,Distractor1.bmp,lime,Distractor2.bmp,yellow,Distractor1.bmp,red,Target2.bmp,purple,Distractor2.bmp,cyan,Distractor1.bmp,,,,TrialProc,3,TrainingTrialList,0,2,-999999,0,3324569,0,1,692,3325261,Target2.bmp,red,2,,,,10,3,42
KW_Experiment5A,49,1,"<?xml version=""1.0""?>\n<Clock xmlns:dt=""urn:schemas-microsoft-com:datatypes""><Description dt:dt=""string"">E-Prime Primary Realtime Clock</Description><StartTime><Timestamp dt:dt=""int"">0</Timestamp><DateUtc dt:dt=""string"">2018-10-26T15:06:46Z</DateUtc></StartTime><FrequencyChanges><FrequencyChange><Frequency dt:dt=""r8"">3215292</Frequency><Timestamp dt:dt=""r8"">1830945673643</Timestamp><Current dt:dt=""r8"">0</Current><DateUtc dt:dt=""string"">2018-10-26T15:06:46Z</DateUtc></FrequencyChange></FrequencyChanges></Clock>\n",KW_Experiment5A-49-1,59.945,1.0.0.105,2,1290237572,Professional,2.0.10.353,2.0.10.353,10/26/2018,10/26/2018 15:06,11:06:46,2.0.10.248,2,2,1,2,,,,,,,,TrainingProc,BlockList,43,1,Distractor2.bmp,2,0,,0,1,3326287,401,,0,0,cyan,400,1,400,,vertical,cyan,Distractor2.bmp,red,Target1.bmp,blue,Distractor2.bmp,yellow,Distractor1.bmp,purple,Distractor2.bmp,lime,Distractor2.bmp,,,,TrialProc,4,TrainingTrialList,0,1,-999999,1,3326688,0,2,533,3327221,Target1.bmp,red,1,,,,8,3,43
KW_Experiment5A,49,1,"<?xml version=""1.0""?>\n<Clock xmlns:dt=""urn:schemas-microsoft-com:datatypes""><Description dt:dt=""string"">E-Prime Primary Realtime Clock</Description><StartTime><Timestamp dt:dt=""int"">0</Timestamp><DateUtc dt:dt=""string"">2018-10-26T15:06:46Z</DateUtc></StartTime><FrequencyChanges><FrequencyChange><Frequency dt:dt=""r8"">3215292</Frequency><Timestamp dt:dt=""r8"">1830945673643</Timestamp><Current dt:dt=""r8"">0</Current><DateUtc dt:dt=""string"">2018-10-26T15:06:46Z</DateUtc></FrequencyChange></FrequencyChanges></Clock>\n",KW_Experiment5A-49-1,59.945,1.0.0.105,2,1290237572,Professional,2.0.10.353,2.0.10.353,10/26/2018,10/26/2018 15:06,11:06:46,2.0.10.248,2,2,1,2,,,,,,,,TrainingProc,BlockList,44,2,Distractor2.bmp,2,0,,0,1,3328239,501,,0,0,cyan,500,2,500,,horizontal,red,Target2.bmp,purple,Distractor2.bmp,yellow,Distractor2.bmp,lime,Distractor1.bmp,blue,Distractor2.bmp,cyan,Distractor2.bmp,,,,TrialProc,4,TrainingTrialList,1,2,-999999,1,3328740,0,2,577,3329317,Target2.bmp,red,2,,,,7,3,44
KW_Experiment5A,49,1,"<?xml version=""1.0""?>\n<Clock xmlns:dt=""urn:schemas-microsoft-com:datatypes""><Description dt:dt=""string"">E-Prime Primary Realtime Clock</Description><StartTime><Timestamp dt:dt=""int"">0</Timestamp><DateUtc dt:dt=""string"">2018-10-26T15:06:46Z</DateUtc></StartTime><FrequencyChanges><FrequencyChange><Frequency dt:dt=""r8"">3215292</Frequency><Timestamp dt:dt=""r8"">1830945673643</Timestamp><Current dt:dt=""r8"">0</Current><DateUtc dt:dt=""string"">2018-10-26T15:06:46Z</DateUtc></FrequencyChange></FrequencyChanges></Clock>\n",KW_Experiment5A-49-1,59.945,1.0.0.105,2,1290237572,Professional,2.0.10.353,2.0.10.353,10/26/2018,10/26/2018 15:06,11:06:46,2.0.10.248,2,2,1,2,,,,,,,,TrainingProc,BlockList,45,1,Distractor1.bmp,1,0,,0,1,3330341,601,,0,0,yellow,600,3,600,,vertical,yellow,Distractor1.bmp,blue,Distractor2.bmp,lime,Distractor1.bmp,red,Target1.bmp,purple,Distractor1.bmp,cyan,Distractor1.bmp,,,,TrialProc,2,TrainingTrialList,1,1,-999999,1,3330942,0,1,687,3331629,Target1.bmp,red,1,,,,10,3,45
KW_Experiment5A,49,1,"<?xml version=""1.0""?>\n<Clock xmlns:dt=""urn:schemas-microsoft-com:datatypes""><Description dt:dt=""string"">E-Prime Primary Realtime Clock</Description><StartTime><Timestamp dt:dt=""int"">0</Timestamp><DateUtc dt:dt=""string"">2018-10-26T15:06:46Z</DateUtc></StartTime><FrequencyChanges><FrequencyChange><Frequency dt:dt=""r8"">3215292</Frequency><Timestamp dt:dt=""r8"">1830945673643</Timestamp><Current dt:dt=""r8"">0</Current><DateUtc dt:dt=""string"">2018-10-26T15:06:46Z</DateUtc></FrequencyChange></FrequencyChanges></Clock>\n",KW_Experiment5A-49-1,59.945,1.0.0.105,2,1290237572,Professional,2.0.10.353,2.0.10.353,10/26/2018,10/26/2018 15:06,11:06:46,2.0.10.248,2,2,1,2,,,,,,,,TrainingProc,BlockList,46,2,Distractor2.bmp,2,0,,0,1,3332643,601,,0,0,cyan,600,3,600,4,horizontal,cyan,Distractor2.bmp,purple,Distractor2.bmp,blue,Distractor1.bmp,lime,Target2.bmp,yellow,Distractor2.bmp,red,Distractor2.bmp,,,,TrialProc,,TrainingTrialList,1,2,-999999,1,3333244,0,2,617,3333861,Target2.bmp,lime,2,,,,4,3,46
KW_Experiment5A,49,1,"<?xml version=""1.0""?>\n<Clock xmlns:dt=""urn:schemas-microsoft-com:datatypes""><Description dt:dt=""string"">E-Prime Primary Realtime Clock</Description><StartTime><Timestamp dt:dt=""int"">0</Timestamp><DateUtc dt:dt=""string"">2018-10-26T15:06:46Z</DateUtc></StartTime><FrequencyChanges><FrequencyChange><Frequency dt:dt=""r8"">3215292</Frequency><Timestamp dt:dt=""r8"">1830945673643</Timestamp><Current dt:dt=""r8"">0</Current><DateUtc dt:dt=""string"">2018-10-26T15:06:46Z</DateUtc></FrequencyChange></FrequencyChanges></Clock>\n",KW_Experiment5A-49-1,59.945,1.0.0.105,2,1290237572,Professional,2.0.10.353,2.0.10.353,10/26/2018,10/26/2018 15:06,11:06:46,2.0.10.248,2,2,1,2,,,,,,,,TrainingProc,BlockList,47,1,Distractor1.bmp,1,0,,1,0,3334878,601,,0,0,purple,600,3,600,,vertical,purple,Distractor2.bmp,blue,Distractor2.bmp,red,Target1.bmp,cyan,Distractor1.bmp,lime,Distractor1.bmp,yellow,Distractor2.bmp,,,,TrialProc,5,TrainingTrialList,1,1,-999999,1,3335479,0,1,462,3335941,Target1.bmp,red,1,,,,9,3,47
KW_Experiment5A,49,1,"<?xml version=""1.0""?>\n<Clock xmlns:dt=""urn:schemas-microsoft-com:datatypes""><Description dt:dt=""string"">E-Prime Primary Realtime Clock</Description><StartTime><Timestamp dt:dt=""int"">0</Timestamp><DateUtc dt:dt=""string"">2018-10-26T15:06:46Z</DateUtc></StartTime><FrequencyChanges><FrequencyChange><Frequency dt:dt=""r8"">3215292</Frequency><Timestamp dt:dt=""r8"">1830945673643</Timestamp><Current dt:dt=""r8"">0</Current><DateUtc dt:dt=""string"">2018-10-26T15:06:46Z</DateUtc></FrequencyChange></FrequencyChanges></Clock>\n",KW_Experiment5A-49-1,59.945,1.0.0.105,2,1290237572,Professional,2.0.10.353,2.0.10.353,10/26/2018,10/26/2018 15:06,11:06:46,2.0.10.248,2,2,1,2,,,,,,,,TrainingProc,BlockList,48,1,Distractor2.bmp,2,0,,0,1,3336964,600,,0,0,blue,600,3,600,,vertical,blue,Distractor2.bmp,lime,Distractor1.bmp,yellow,Distractor2.bmp,purple,Distractor2.bmp,cyan,Distractor1.bmp,red,Target1.bmp,,,,TrialProc,3,TrainingTrialList,1,1,-999999,0,3337564,0,1,777,3338341,Target1.bmp,red,1,,,,12,3,48
KW_Experiment5A,49,1,"<?xml version=""1.0""?>\n<Clock xmlns:dt=""urn:schemas-microsoft-com:datatypes""><Description dt:dt=""string"">E-Prime Primary Realtime Clock</Description><StartTime><Timestamp dt:dt=""int"">0</Timestamp><DateUtc dt:dt=""string"">2018-10-26T15:06:46Z</DateUtc></StartTime><FrequencyChanges><FrequencyChange><Frequency dt:dt=""r8"">3215292</Frequency><Timestamp dt:dt=""r8"">1830945673643</Timestamp><Current dt:dt=""r8"">0</Current><DateUtc dt:dt=""string"">2018-10-26T15:06:46Z</DateUtc></FrequencyChange></FrequencyChanges></Clock>\n",KW_Experiment5A-49-1,59.945,1.0.0.105,2,1290237572,Professional,2.0.10.353,2.0.10.353,10/26/2018,10/26/2018 15:06,11:06:46,2.0.10.248,3,2,1,3,,,,,,,,TrainingProc,BlockList,1,1,Distractor1.bmp,1,0,,0,19,3340984,400,,0,0,yellow,400,1,400,,vertical,yellow,Distractor2.bmp,cyan,Distractor1.bmp,purple,Distractor1.bmp,red,Target1.bmp,lime,Distractor1.bmp,blue,Distractor2.bmp,,,,TrialProc,2,TrainingTrialList,1,1,-999999,0,3341384,0,1,620,3342004,Target1.bmp,red,1,,,,10,4,49
KW_Experiment5A,49,1,"<?xml version=""1.0""?>\n<Clock xmlns:dt=""urn:schemas-microsoft-com:datatypes""><Description dt:dt=""string"">E-Prime Primary Realtime Clock</Description><StartTime><Timestamp dt:dt=""int"">0</Timestamp><DateUtc dt:dt=""string"">2018-10-26T15:06:46Z</DateUtc></StartTime><FrequencyChanges><FrequencyChange><Frequency dt:dt=""r8"">3215292</Frequency><Timestamp dt:dt=""r8"">1830945673643</Timestamp><Current dt:dt=""r8"">0</Current><DateUtc dt:dt=""string"">2018-10-26T15:06:46Z</DateUtc></FrequencyChange></FrequencyChanges></Clock>\n",KW_Experiment5A-49-1,59.945,1.0.0.105,2,1290237572,Professional,2.0.10.353,2.0.10.353,10/26/2018,10/26/2018 15:06,11:06:46,2.0.10.248,3,2,1,3,,,,,,,,TrainingProc,BlockList,2,1,Distractor1.bmp,1,0,,0,1,3343019,601,,0,0,blue,600,3,600,3,vertical,blue,Distractor1.bmp,yellow,Distractor1.bmp,cyan,Distractor2.bmp,red,Distractor1.bmp,purple,Distractor2.bmp,lime,Target1.bmp,,,,TrialProc,,TrainingTrialList,1,1,-999999,1,3343620,0,1,776,3344396,Target1.bmp,lime,1,,,,6,4,50
KW_Experiment5A,49,1,"<?xml version=""1.0""?>\n<Clock xmlns:dt=""urn:schemas-microsoft-com:datatypes""><Description dt:dt=""string"">E-Prime Primary Realtime Clock</Description><StartTime><Timestamp dt:dt=""int"">0</Timestamp><DateUtc dt:dt=""string"">2018-10-26T15:06:46Z</DateUtc></StartTime><FrequencyChanges><FrequencyChange><Frequency dt:dt=""r8"">3215292</Frequency><Timestamp dt:dt=""r8"">1830945673643</Timestamp><Current dt:dt=""r8"">0</Current><DateUtc dt:dt=""string"">2018-10-26T15:06:46Z</DateUtc></FrequencyChange></FrequencyChanges></Clock>\n",KW_Experiment5A-49-1,59.945,1.0.0.105,2,1290237572,Professional,2.0.10.353,2.0.10.353,10/26/2018,10/26/2018 15:06,11:06:46,2.0.10.248,3,2,1,3,,,,,,,,TrainingProc,BlockList,3,1,Distractor2.bmp,2,0,,0,1,3345421,401,,0,0,purple,400,1,400,,vertical,red,Target1.bmp,blue,Distractor2.bmp,yellow,Distractor1.bmp,lime,Distractor2.bmp,cyan,Distractor1.bmp,purple,Distractor1.bmp,,,,TrialProc,5,TrainingTrialList,1,1,-999999,1,3345822,0,1,822,3346644,Target1.bmp,red,1,,,,7,4,51
KW_Experiment5A,49,1,"<?xml version=""1.0""?>\n<Clock xmlns:dt=""urn:schemas-microsoft-com:datatypes""><Description dt:dt=""string"">E-Prime Primary Realtime Clock</Description><StartTime><Timestamp dt:dt=""int"">0</Timestamp><DateUtc dt:dt=""string"">2018-10-26T15:06:46Z</DateUtc></StartTime><FrequencyChanges><FrequencyChange><Frequency dt:dt=""r8"">3215292</Frequency><Timestamp dt:dt=""r8"">1830945673643</Timestamp><Current dt:dt=""r8"">0</Current><DateUtc dt:dt=""string"">2018-10-26T15:06:46Z</DateUtc></FrequencyChange></FrequencyChanges></Clock>\n",KW_Experiment5A-49-1,59.945,1.0.0.105,2,1290237572,Professional,2.0.10.353,2.0.10.353,10/26/2018,10/26/2018 15:06,11:06:46,2.0.10.248,3,2,1,3,,,,,,,,TrainingProc,BlockList,4,2,Distractor2.bmp,2,0,,0,1,3347657,400,,0,0,red,400,1,400,1,horizontal,red,Distractor1.bmp,purple,Distractor1.bmp,yellow,Distractor2.bmp,cyan,Distractor1.bmp,lime,Target2.bmp,blue,Distractor2.bmp,,,,TrialProc,,TrainingTrialList,1,2,-999999,0,3348057,0,2,803,3348860,Target2.bmp,lime,2,,,,5,4,52
KW_Experiment5A,49,1,"<?xml version=""1.0""?>\n<Clock xmlns:dt=""urn:schemas-microsoft-com:datatypes""><Description dt:dt=""string"">E-Prime Primary Realtime Clock</Description><StartTime><Timestamp dt:dt=""int"">0</Timestamp><DateUtc dt:dt=""string"">2018-10-26T15:06:46Z</DateUtc></StartTime><FrequencyChanges><FrequencyChange><Frequency dt:dt=""r8"">3215292</Frequency><Timestamp dt:dt=""r8"">1830945673643</Timestamp><Current dt:dt=""r8"">0</Current><DateUtc dt:dt=""string"">2018-10-26T15:06:46Z</DateUtc></FrequencyChange></FrequencyChanges></Clock>\n",KW_Experiment5A-49-1,59.945,1.0.0.105,2,1290237572,Professional,2.0.10.353,2.0.10.353,10/26/2018,10/26/2018 15:06,11:06:46,2.0.10.248,3,2,1,3,,,,,,,,TrainingProc,BlockList,5,2,Distractor1.bmp,1,0,,0,0,3349875,601,,0,0,yellow,600,3,600,,horizontal,red,Target2.bmp,lime,Distractor1.bmp,purple,Distractor2.bmp,blue,Distractor1.bmp,cyan,Distractor2.bmp,yellow,Distractor1.bmp,,,,TrialProc,2,TrainingTrialList,1,2,-999999,1,3350476,0,2,624,3351100,Target2.bmp,red,2,,,,7,4,53
KW_Experiment5A,49,1,"<?xml version=""1.0""?>\n<Clock xmlns:dt=""urn:schemas-microsoft-com:datatypes""><Description dt:dt=""string"">E-Prime Primary Realtime Clock</Description><StartTime><Timestamp dt:dt=""int"">0</Timestamp><DateUtc dt:dt=""string"">2018-10-26T15:06:46Z</DateUtc></StartTime><FrequencyChanges><FrequencyChange><Frequency dt:dt=""r8"">3215292</Frequency><Timestamp dt:dt=""r8"">1830945673643</Timestamp><Current dt:dt=""r8"">0</Current><DateUtc dt:dt=""string"">2018-10-26T15:06:46Z</DateUtc></FrequencyChange></FrequencyChanges></Clock>\n",KW_Experiment5A-49-1,59.945,1.0.0.105,2,1290237572,Professional,2.0.10.353,2.0.10.353,10/26/2018,10/26/2018 15:06,11:06:46,2.0.10.248,3,2,1,3,,,,,,,,TrainingProc,BlockList,6,2,Distractor1.bmp,1,0,,0,1,3352111,500,,0,0,lime,500,2,500,,horizontal,lime,Distractor1.bmp,cyan,Distractor1.bmp,blue,Distractor2.bmp,yellow,Distractor2.bmp,red,Target2.bmp,purple,Distractor1.bmp,,,,TrialProc,6,TrainingTrialList,1,2,-999999,0,3352611,0,2,569,3353180,Target2.bmp,red,2,,,,11,4,54
KW_Experiment5A,49,1,"<?xml version=""1.0""?>\n<Clock xmlns:dt=""urn:schemas-microsoft-com:datatypes""><Description dt:dt=""string"">E-Prime Primary Realtime Clock</Description><StartTime><Timestamp dt:dt=""int"">0</Timestamp><DateUtc dt:dt=""string"">2018-10-26T15:06:46Z</DateUtc></StartTime><FrequencyChanges><FrequencyChange><Frequency dt:dt=""r8"">3215292</Frequency><Timestamp dt:dt=""r8"">1830945673643</Timestamp><Current dt:dt=""r8"">0</Current><DateUtc dt:dt=""string"">2018-10-26T15:06:46Z</DateUtc></FrequencyChange></FrequencyChanges></Clock>\n",KW_Experiment5A-49-1,59.945,1.0.0.105,2,1290237572,Professional,2.0.10.353,2.0.10.353,10/26/2018,10/26/2018 15:06,11:06:46,2.0.10.248,3,2,1,3,,,,,,,,TrainingProc,BlockList,7,1,Distractor1.bmp,1,0,,0,1,3354196,601,,0,0,blue,600,3,600,3,vertical,blue,Distractor1.bmp,purple,Distractor2.bmp,lime,Target1.bmp,yellow,Distractor1.bmp,red,Distractor2.bmp,cyan,Distractor2.bmp,,,,TrialProc,,TrainingTrialList,1,1,-999999,1,3354797,0,1,727,3355524,Target1.bmp,lime,1,,,,3,4,55
KW_Experiment5A,49,1,"<?xml version=""1.0""?>\n<Clock xmlns:dt=""urn:schemas-microsoft-com:datatypes""><Description dt:dt=""string"">E-Prime Primary Realtime Clock</Description><StartTime><Timestamp dt:dt=""int"">0</Timestamp><DateUtc dt:dt=""string"">2018-10-26T15:06:46Z</DateUtc></StartTime><FrequencyChanges><FrequencyChange><Frequency dt:dt=""r8"">3215292</Frequency><Timestamp dt:dt=""r8"">1830945673643</Timestamp><Current dt:dt=""r8"">0</Current><DateUtc dt:dt=""string"">2018-10-26T15:06:46Z</DateUtc></FrequencyChange></FrequencyChanges></Clock>\n",KW_Experiment5A-49-1,59.945,1.0.0.105,2,1290237572,Professional,2.0.10.353,2.0.10.353,10/26/2018,10/26/2018 15:06,11:06:46,2.0.10.248,3,2,1,3,,,,,,,,TrainingProc,BlockList,8,2,Distractor1.bmp,1,0,,0,1,3356548,400,,0,0,purple,400,1,400,,horizontal,purple,Distractor1.bmp,cyan,Distractor1.bmp,red,Target2.bmp,yellow,Distractor1.bmp,blue,Distractor2.bmp,lime,Distractor1.bmp,,,,TrialProc,5,TrainingTrialList,1,2,-999999,0,3356948,0,2,632,3357580,Target2.bmp,red,2,,,,9,4,56
KW_Experiment5A,49,1,"<?xml version=""1.0""?>\n<Clock xmlns:dt=""urn:schemas-microsoft-com:datatypes""><Description dt:dt=""string"">E-Prime Primary Realtime Clock</Description><StartTime><Timestamp dt:dt=""int"">0</Timestamp><DateUtc dt:dt=""string"">2018-10-26T15:06:46Z</DateUtc></StartTime><FrequencyChanges><FrequencyChange><Frequency dt:dt=""r8"">3215292</Frequency><Timestamp dt:dt=""r8"">1830945673643</Timestamp><Current dt:dt=""r8"">0</Current><DateUtc dt:dt=""string"">2018-10-26T15:06:46Z</DateUtc></FrequencyChange></FrequencyChanges></Clock>\n",KW_Experiment5A-49-1,59.945,1.0.0.105,2,1290237572,Professional,2.0.10.353,2.0.10.353,10/26/2018,10/26/2018 15:06,11:06:46,2.0.10.248,3,2,1,3,,,,,,,,TrainingProc,BlockList,9,2,Distractor2.bmp,2,0,,0,1,3358600,500,,0,0,blue,500,2,500,3,horizontal,blue,Distractor1.bmp,lime,Target2.bmp,purple,Distractor2.bmp,red,Distractor2.bmp,yellow,Distractor2.bmp,cyan,Distractor2.bmp,,,,TrialProc,,TrainingTrialList,1,2,-999999,0,3359100,0,2,1176,3360276,Target2.bmp,lime,2,,,,2,4,57
KW_Experiment5A,49,1,"<?xml version=""1.0""?>\n<Clock xmlns:dt=""urn:schemas-microsoft-com:datatypes""><Description dt:dt=""string"">E-Prime Primary Realtime Clock</Description><StartTime><Timestamp dt:dt=""int"">0</Timestamp><DateUtc dt:dt=""string"">2018-10-26T15:06:46Z</DateUtc></StartTime><FrequencyChanges><FrequencyChange><Frequency dt:dt=""r8"">3215292</Frequency><Timestamp dt:dt=""r8"">1830945673643</Timestamp><Current dt:dt=""r8"">0</Current><DateUtc dt:dt=""string"">2018-10-26T15:06:46Z</DateUtc></FrequencyChange></FrequencyChanges></Clock>\n",KW_Experiment5A-49-1,59.945,1.0.0.105,2,1290237572,Professional,2.0.10.353,2.0.10.353,10/26/2018,10/26/2018 15:06,11:06:46,2.0.10.248,3,2,1,3,,,,,,,,TrainingProc,BlockList,10,2,Distractor1.bmp,1,0,,1,0,3361302,601,,0,0,purple,600,3,600,,horizontal,purple,Distractor2.bmp,blue,Distractor1.bmp,cyan,Distractor1.bmp,lime,Distractor1.bmp,red,Target2.bmp,yellow,Distractor1.bmp,,,,TrialProc,5,TrainingTrialList,0,2,-999999,1,3361903,0,1,557,3362460,Target2.bmp,red,2,,,,11,4,58
KW_Experiment5A,49,1,"<?xml version=""1.0""?>\n<Clock xmlns:dt=""urn:schemas-microsoft-com:datatypes""><Description dt:dt=""string"">E-Prime Primary Realtime Clock</Description><StartTime><Timestamp dt:dt=""int"">0</Timestamp><DateUtc dt:dt=""string"">2018-10-26T15:06:46Z</DateUtc></StartTime><FrequencyChanges><FrequencyChange><Frequency dt:dt=""r8"">3215292</Frequency><Timestamp dt:dt=""r8"">1830945673643</Timestamp><Current dt:dt=""r8"">0</Current><DateUtc dt:dt=""string"">2018-10-26T15:06:46Z</DateUtc></FrequencyChange></FrequencyChanges></Clock>\n",KW_Experiment5A-49-1,59.945,1.0.0.105,2,1290237572,Professional,2.0.10.353,2.0.10.353,10/26/2018,10/26/2018 15:06,11:06:46,2.0.10.248,3,2,1,3,,,,,,,,TrainingProc,BlockList,11,1,Distractor2.bmp,2,0,,0,1,3363471,400,,0,0,blue,400,1,400,3,vertical,blue,Distractor2.bmp,red,Distractor2.bmp,yellow,Distractor2.bmp,lime,Target1.bmp,cyan,Distractor2.bmp,purple,Distractor2.bmp,,,,TrialProc,,TrainingTrialList,1,1,-999999,0,3363871,0,1,765,3364636,Target1.bmp,lime,1,,,,4,4,59
KW_Experiment5A,49,1,"<?xml version=""1.0""?>\n<Clock xmlns:dt=""urn:schemas-microsoft-com:datatypes""><Description dt:dt=""string"">E-Prime Primary Realtime Clock</Description><StartTime><Timestamp dt:dt=""int"">0</Timestamp><DateUtc dt:dt=""string"">2018-10-26T15:06:46Z</DateUtc></StartTime><FrequencyChanges><FrequencyChange><Frequency dt:dt=""r8"">3215292</Frequency><Timestamp dt:dt=""r8"">1830945673643</Timestamp><Current dt:dt=""r8"">0</Current><DateUtc dt:dt=""string"">2018-10-26T15:06:46Z</DateUtc></FrequencyChange></FrequencyChanges></Clock>\n",KW_Experiment5A-49-1,59.945,1.0.0.105,2,1290237572,Professional,2.0.10.353,2.0.10.353,10/26/2018,10/26/2018 15:06,11:06:46,2.0.10.248,3,2,1,3,,,,,,,,TrainingProc,BlockList,12,1,Distractor2.bmp,2,0,,0,0,3365656,401,,0,0,yellow,400,1,400,,vertical,yellow,Distractor1.bmp,cyan,Distractor2.bmp,blue,Distractor2.bmp,red,Target1.bmp,lime,Distractor2.bmp,purple,Distractor2.bmp,,,,TrialProc,2,TrainingTrialList,1,1,-999999,1,3366057,0,1,491,3366548,Target1.bmp,red,1,,,,10,4,60
KW_Experiment5A,49,1,"<?xml version=""1.0""?>\n<Clock xmlns:dt=""urn:schemas-microsoft-com:datatypes""><Description dt:dt=""string"">E-Prime Primary Realtime Clock</Description><StartTime><Timestamp dt:dt=""int"">0</Timestamp><DateUtc dt:dt=""string"">2018-10-26T15:06:46Z</DateUtc></StartTime><FrequencyChanges><FrequencyChange><Frequency dt:dt=""r8"">3215292</Frequency><Timestamp dt:dt=""r8"">1830945673643</Timestamp><Current dt:dt=""r8"">0</Current><DateUtc dt:dt=""string"">2018-10-26T15:06:46Z</DateUtc></FrequencyChange></FrequencyChanges></Clock>\n",KW_Experiment5A-49-1,59.945,1.0.0.105,2,1290237572,Professional,2.0.10.353,2.0.10.353,10/26/2018,10/26/2018 15:06,11:06:46,2.0.10.248,3,2,1,3,,,,,,,,TrainingProc,BlockList,13,1,Distractor2.bmp,2,0,,0,1,3367558,601,,0,0,purple,600,3,600,,vertical,purple,Distractor2.bmp,blue,Distractor1.bmp,cyan,Distractor1.bmp,yellow,Distractor2.bmp,lime,Distractor2.bmp,red,Target1.bmp,,,,TrialProc,5,TrainingTrialList,1,1,-999999,1,3368159,0,1,469,3368628,Target1.bmp,red,1,,,,12,4,61
KW_Experiment5A,49,1,"<?xml version=""1.0""?>\n<Clock xmlns:dt=""urn:schemas-microsoft-com:datatypes""><Description dt:dt=""string"">E-Prime Primary Realtime Clock</Description><StartTime><Timestamp dt:dt=""int"">0</Timestamp><DateUtc dt:dt=""string"">2018-10-26T15:06:46Z</DateUtc></StartTime><FrequencyChanges><FrequencyChange><Frequency dt:dt=""r8"">3215292</Frequency><Timestamp dt:dt=""r8"">1830945673643</Timestamp><Current dt:dt=""r8"">0</Current><DateUtc dt:dt=""string"">2018-10-26T15:06:46Z</DateUtc></FrequencyChange></FrequencyChanges></Clock>\n",KW_Experiment5A-49-1,59.945,1.0.0.105,2,1290237572,Professional,2.0.10.353,2.0.10.353,10/26/2018,10/26/2018 15:06,11:06:46,2.0.10.248,3,2,1,3,,,,,,,,TrainingProc,BlockList,14,2,Distractor1.bmp,1,0,,0,1,3369643,601,,0,0,cyan,600,3,600,,horizontal,cyan,Distractor2.bmp,red,Target2.bmp,lime,Distractor1.bmp,purple,Distractor2.bmp,yellow,Distractor1.bmp,blue,Distractor1.bmp,,,,TrialProc,4,TrainingTrialList,1,2,-999999,1,3370244,0,2,504,3370748,Target2.bmp,red,2,,,,8,4,62
KW_Experiment5A,49,1,"<?xml version=""1.0""?>\n<Clock xmlns:dt=""urn:schemas-microsoft-com:datatypes""><Description dt:dt=""string"">E-Prime Primary Realtime Clock</Description><StartTime><Timestamp dt:dt=""int"">0</Timestamp><DateUtc dt:dt=""string"">2018-10-26T15:06:46Z</DateUtc></StartTime><FrequencyChanges><FrequencyChange><Frequency dt:dt=""r8"">3215292</Frequency><Timestamp dt:dt=""r8"">1830945673643</Timestamp><Current dt:dt=""r8"">0</Current><DateUtc dt:dt=""string"">2018-10-26T15:06:46Z</DateUtc></FrequencyChange></FrequencyChanges></Clock>\n",KW_Experiment5A-49-1,59.945,1.0.0.105,2,1290237572,Professional,2.0.10.353,2.0.10.353,10/26/2018,10/26/2018 15:06,11:06:46,2.0.10.248,3,2,1,3,,,,,,,,TrainingProc,BlockList,15,1,Distractor2.bmp,2,0,,0,1,3371762,500,,0,0,blue,500,2,500,,vertical,blue,Distractor2.bmp,red,Target1.bmp,yellow,Distractor2.bmp,lime,Distractor1.bmp,cyan,Distractor1.bmp,purple,Distractor2.bmp,,,,TrialProc,3,TrainingTrialList,1,1,-999999,0,3372262,0,1,470,3372732,Target1.bmp,red,1,,,,8,4,63
KW_Experiment5A,49,1,"<?xml version=""1.0""?>\n<Clock xmlns:dt=""urn:schemas-microsoft-com:datatypes""><Description dt:dt=""string"">E-Prime Primary Realtime Clock</Description><StartTime><Timestamp dt:dt=""int"">0</Timestamp><DateUtc dt:dt=""string"">2018-10-26T15:06:46Z</DateUtc></StartTime><FrequencyChanges><FrequencyChange><Frequency dt:dt=""r8"">3215292</Frequency><Timestamp dt:dt=""r8"">1830945673643</Timestamp><Current dt:dt=""r8"">0</Current><DateUtc dt:dt=""string"">2018-10-26T15:06:46Z</DateUtc></FrequencyChange></FrequencyChanges></Clock>\n",KW_Experiment5A-49-1,59.945,1.0.0.105,2,1290237572,Professional,2.0.10.353,2.0.10.353,10/26/2018,10/26/2018 15:06,11:06:46,2.0.10.248,3,2,1,3,,,,,,,,TrainingProc,BlockList,16,2,Distractor2.bmp,2,0,,0,1,3373747,400,,0,0,blue,400,1,400,,horizontal,blue,Distractor2.bmp,lime,Distractor2.bmp,red,Target2.bmp,cyan,Distractor2.bmp,yellow,Distractor2.bmp,purple,Distractor1.bmp,,,,TrialProc,3,TrainingTrialList,1,2,-999999,0,3374147,0,2,721,3374868,Target2.bmp,red,2,,,,9,4,64
KW_Experiment5A,49,1,"<?xml version=""1.0""?>\n<Clock xmlns:dt=""urn:schemas-microsoft-com:datatypes""><Description dt:dt=""string"">E-Prime Primary Realtime Clock</Description><StartTime><Timestamp dt:dt=""int"">0</Timestamp><DateUtc dt:dt=""string"">2018-10-26T15:06:46Z</DateUtc></StartTime><FrequencyChanges><FrequencyChange><Frequency dt:dt=""r8"">3215292</Frequency><Timestamp dt:dt=""r8"">1830945673643</Timestamp><Current dt:dt=""r8"">0</Current><DateUtc dt:dt=""string"">2018-10-26T15:06:46Z</DateUtc></FrequencyChange></FrequencyChanges></Clock>\n",KW_Experiment5A-49-1,59.945,1.0.0.105,2,1290237572,Professional,2.0.10.353,2.0.10.353,10/26/2018,10/26/2018 15:06,11:06:46,2.0.10.248,3,2,1,3,,,,,,,,TrainingProc,BlockList,17,1,Distractor2.bmp,2,0,,0,1,3375882,601,,0,0,yellow,600,3,600,,vertical,yellow,Distractor2.bmp,purple,Distractor2.bmp,lime,Distractor1.bmp,blue,Distractor2.bmp,cyan,Distractor2.bmp,red,Target1.bmp,,,,TrialProc,2,TrainingTrialList,1,1,-999999,1,3376483,0,1,449,3376932,Target1.bmp,red,1,,,,12,4,65
KW_Experiment5A,49,1,"<?xml version=""1.0""?>\n<Clock xmlns:dt=""urn:schemas-microsoft-com:datatypes""><Description dt:dt=""string"">E-Prime Primary Realtime Clock</Description><StartTime><Timestamp dt:dt=""int"">0</Timestamp><DateUtc dt:dt=""string"">2018-10-26T15:06:46Z</DateUtc></StartTime><FrequencyChanges><FrequencyChange><Frequency dt:dt=""r8"">3215292</Frequency><Timestamp dt:dt=""r8"">1830945673643</Timestamp><Current dt:dt=""r8"">0</Current><DateUtc dt:dt=""string"">2018-10-26T15:06:46Z</DateUtc></FrequencyChange></FrequencyChanges></Clock>\n",KW_Experiment5A-49-1,59.945,1.0.0.105,2,1290237572,Professional,2.0.10.353,2.0.10.353,10/26/2018,10/26/2018 15:06,11:06:46,2.0.10.248,3,2,1,3,,,,,,,,TrainingProc,BlockList,18,2,Distractor1.bmp,1,0,,0,1,3377951,600,,0,0,lime,600,3,600,,horizontal,red,Target2.bmp,blue,Distractor1.bmp,yellow,Distractor1.bmp,cyan,Distractor1.bmp,purple,Distractor2.bmp,lime,Distractor1.bmp,,,,TrialProc,6,TrainingTrialList,1,2,-999999,0,3378551,0,2,605,3379156,Target2.bmp,red,2,,,,7,4,66
KW_Experiment5A,49,1,"<?xml version=""1.0""?>\n<Clock xmlns:dt=""urn:schemas-microsoft-com:datatypes""><Description dt:dt=""string"">E-Prime Primary Realtime Clock</Description><StartTime><Timestamp dt:dt=""int"">0</Timestamp><DateUtc dt:dt=""string"">2018-10-26T15:06:46Z</DateUtc></StartTime><FrequencyChanges><FrequencyChange><Frequency dt:dt=""r8"">3215292</Frequency><Timestamp dt:dt=""r8"">1830945673643</Timestamp><Current dt:dt=""r8"">0</Current><DateUtc dt:dt=""string"">2018-10-26T15:06:46Z</DateUtc></FrequencyChange></FrequencyChanges></Clock>\n",KW_Experiment5A-49-1,59.945,1.0.0.105,2,1290237572,Professional,2.0.10.353,2.0.10.353,10/26/2018,10/26/2018 15:06,11:06:46,2.0.10.248,3,2,1,3,,,,,,,,TrainingProc,BlockList,19,2,Distractor1.bmp,1,0,,0,1,3380170,500,,0,0,purple,500,2,500,,horizontal,purple,Distractor1.bmp,lime,Distractor2.bmp,red,Target2.bmp,blue,Distractor1.bmp,yellow,Distractor1.bmp,cyan,Distractor1.bmp,,,,TrialProc,5,TrainingTrialList,1,2,-999999,0,3380670,0,2,582,3381252,Target2.bmp,red,2,,,,9,4,67
KW_Experiment5A,49,1,"<?xml version=""1.0""?>\n<Clock xmlns:dt=""urn:schemas-microsoft-com:datatypes""><Description dt:dt=""string"">E-Prime Primary Realtime Clock</Description><StartTime><Timestamp dt:dt=""int"">0</Timestamp><DateUtc dt:dt=""string"">2018-10-26T15:06:46Z</DateUtc></StartTime><FrequencyChanges><FrequencyChange><Frequency dt:dt=""r8"">3215292</Frequency><Timestamp dt:dt=""r8"">1830945673643</Timestamp><Current dt:dt=""r8"">0</Current><DateUtc dt:dt=""string"">2018-10-26T15:06:46Z</DateUtc></FrequencyChange></FrequencyChanges></Clock>\n",KW_Experiment5A-49-1,59.945,1.0.0.105,2,1290237572,Professional,2.0.10.353,2.0.10.353,10/26/2018,10/26/2018 15:06,11:06:46,2.0.10.248,3,2,1,3,,,,,,,,TrainingProc,BlockList,20,1,Distractor1.bmp,1,0,,1,0,3382271,401,,0,0,cyan,400,1,400,4,vertical,lime,Target1.bmp,cyan,Distractor1.bmp,red,Distractor1.bmp,blue,Distractor2.bmp,purple,Distractor1.bmp,yellow,Distractor2.bmp,,,,TrialProc,,TrainingTrialList,1,1,-999999,1,3382672,0,1,555,3383227,Target1.bmp,lime,1,,,,1,4,68
KW_Experiment5A,49,1,"<?xml version=""1.0""?>\n<Clock xmlns:dt=""urn:schemas-microsoft-com:datatypes""><Description dt:dt=""string"">E-Prime Primary Realtime Clock</Description><StartTime><Timestamp dt:dt=""int"">0</Timestamp><DateUtc dt:dt=""string"">2018-10-26T15:06:46Z</DateUtc></StartTime><FrequencyChanges><FrequencyChange><Frequency dt:dt=""r8"">3215292</Frequency><Timestamp dt:dt=""r8"">1830945673643</Timestamp><Current dt:dt=""r8"">0</Current><DateUtc dt:dt=""string"">2018-10-26T15:06:46Z</DateUtc></FrequencyChange></FrequencyChanges></Clock>\n",KW_Experiment5A-49-1,59.945,1.0.0.105,2,1290237572,Professional,2.0.10.353,2.0.10.353,10/26/2018,10/26/2018 15:06,11:06:46,2.0.10.248,3,2,1,3,,,,,,,,TrainingProc,BlockList,21,2,Distractor2.bmp,2,0,,0,1,3384240,600,,0,0,yellow,600,3,600,,horizontal,yellow,Distractor2.bmp,purple,Distractor1.bmp,cyan,Distractor1.bmp,red,Target2.bmp,lime,Distractor2.bmp,blue,Distractor1.bmp,,,,TrialProc,2,TrainingTrialList,1,2,-999999,0,3384840,0,2,523,3385363,Target2.bmp,red,2,,,,10,4,69
KW_Experiment5A,49,1,"<?xml version=""1.0""?>\n<Clock xmlns:dt=""urn:schemas-microsoft-com:datatypes""><Description dt:dt=""string"">E-Prime Primary Realtime Clock</Description><StartTime><Timestamp dt:dt=""int"">0</Timestamp><DateUtc dt:dt=""string"">2018-10-26T15:06:46Z</DateUtc></StartTime><FrequencyChanges><FrequencyChange><Frequency dt:dt=""r8"">3215292</Frequency><Timestamp dt:dt=""r8"">1830945673643</Timestamp><Current dt:dt=""r8"">0</Current><DateUtc dt:dt=""string"">2018-10-26T15:06:46Z</DateUtc></FrequencyChange></FrequencyChanges></Clock>\n",KW_Experiment5A-49-1,59.945,1.0.0.105,2,1290237572,Professional,2.0.10.353,2.0.10.353,10/26/2018,10/26/2018 15:06,11:06:46,2.0.10.248,3,2,1,3,,,,,,,,TrainingProc,BlockList,22,2,Distractor1.bmp,1,0,,0,1,3386375,601,,0,0,yellow,600,3,600,,horizontal,yellow,Distractor2.bmp,purple,Distractor2.bmp,lime,Distractor1.bmp,blue,Distractor1.bmp,red,Target2.bmp,cyan,Distractor1.bmp,,,,TrialProc,2,TrainingTrialList,0,2,-999999,1,3386976,0,1,555,3387531,Target2.bmp,red,2,,,,11,4,70
KW_Experiment5A,49,1,"<?xml version=""1.0""?>\n<Clock xmlns:dt=""urn:schemas-microsoft-com:datatypes""><Description dt:dt=""string"">E-Prime Primary Realtime Clock</Description><StartTime><Timestamp dt:dt=""int"">0</Timestamp><DateUtc dt:dt=""string"">2018-10-26T15:06:46Z</DateUtc></StartTime><FrequencyChanges><FrequencyChange><Frequency dt:dt=""r8"">3215292</Frequency><Timestamp dt:dt=""r8"">1830945673643</Timestamp><Current dt:dt=""r8"">0</Current><DateUtc dt:dt=""string"">2018-10-26T15:06:46Z</DateUtc></FrequencyChange></FrequencyChanges></Clock>\n",KW_Experiment5A-49-1,59.945,1.0.0.105,2,1290237572,Professional,2.0.10.353,2.0.10.353,10/26/2018,10/26/2018 15:06,11:06:46,2.0.10.248,3,2,1,3,,,,,,,,TrainingProc,BlockList,23,1,Distractor2.bmp,2,0,,0,1,3388544,400,,0,0,blue,400,1,400,,vertical,blue,Distractor2.bmp,yellow,Distractor1.bmp,purple,Distractor2.bmp,lime,Distractor2.bmp,cyan,Distractor2.bmp,red,Target1.bmp,,,,TrialProc,3,TrainingTrialList,1,1,-999999,0,3388944,0,1,491,3389435,Target1.bmp,red,1,,,,12,4,71
KW_Experiment5A,49,1,"<?xml version=""1.0""?>\n<Clock xmlns:dt=""urn:schemas-microsoft-com:datatypes""><Description dt:dt=""string"">E-Prime Primary Realtime Clock</Description><StartTime><Timestamp dt:dt=""int"">0</Timestamp><DateUtc dt:dt=""string"">2018-10-26T15:06:46Z</DateUtc></StartTime><FrequencyChanges><FrequencyChange><Frequency dt:dt=""r8"">3215292</Frequency><Timestamp dt:dt=""r8"">1830945673643</Timestamp><Current dt:dt=""r8"">0</Current><DateUtc dt:dt=""string"">2018-10-26T15:06:46Z</DateUtc></FrequencyChange></FrequencyChanges></Clock>\n",KW_Experiment5A-49-1,59.945,1.0.0.105,2,1290237572,Professional,2.0.10.353,2.0.10.353,10/26/2018,10/26/2018 15:06,11:06:46,2.0.10.248,3,2,1,3,,,,,,,,TrainingProc,BlockList,24,2,Distractor2.bmp,2,0,,0,1,3390446,400,,0,0,yellow,400,1,400,,horizontal,yellow,Distractor1.bmp,red,Target2.bmp,cyan,Distractor2.bmp,blue,Distractor1.bmp,lime,Distractor1.bmp,purple,Distractor1.bmp,,,,TrialProc,2,TrainingTrialList,1,2,-999999,0,3390846,0,2,421,3391267,Target2.bmp,red,2,,,,8,4,72
KW_Experiment5A,49,1,"<?xml version=""1.0""?>\n<Clock xmlns:dt=""urn:schemas-microsoft-com:datatypes""><Description dt:dt=""string"">E-Prime Primary Realtime Clock</Description><StartTime><Timestamp dt:dt=""int"">0</Timestamp><DateUtc dt:dt=""string"">2018-10-26T15:06:46Z</DateUtc></StartTime><FrequencyChanges><FrequencyChange><Frequency dt:dt=""r8"">3215292</Frequency><Timestamp dt:dt=""r8"">1830945673643</Timestamp><Current dt:dt=""r8"">0</Current><DateUtc dt:dt=""string"">2018-10-26T15:06:46Z</DateUtc></FrequencyChange></FrequencyChanges></Clock>\n",KW_Experiment5A-49-1,59.945,1.0.0.105,2,1290237572,Professional,2.0.10.353,2.0.10.353,10/26/2018,10/26/2018 15:06,11:06:46,2.0.10.248,3,2,1,3,,,,,,,,TrainingProc,BlockList,25,2,Distractor1.bmp,1,0,,0,1,3392281,600,,0,0,yellow,600,3,600,2,horizontal,yellow,Distractor1.bmp,red,Distractor2.bmp,blue,Distractor1.bmp,cyan,Distractor2.bmp,lime,Target2.bmp,purple,Distractor1.bmp,,,,TrialProc,,TrainingTrialList,1,2,-999999,0,3392881,0,2,578,3393459,Target2.bmp,lime,2,,,,5,5,73
KW_Experiment5A,49,1,"<?xml version=""1.0""?>\n<Clock xmlns:dt=""urn:schemas-microsoft-com:datatypes""><Description dt:dt=""string"">E-Prime Primary Realtime Clock</Description><StartTime><Timestamp dt:dt=""int"">0</Timestamp><DateUtc dt:dt=""string"">2018-10-26T15:06:46Z</DateUtc></StartTime><FrequencyChanges><FrequencyChange><Frequency dt:dt=""r8"">3215292</Frequency><Timestamp dt:dt=""r8"">1830945673643</Timestamp><Current dt:dt=""r8"">0</Current><DateUtc dt:dt=""string"">2018-10-26T15:06:46Z</DateUtc></FrequencyChange></FrequencyChanges></Clock>\n",KW_Experiment5A-49-1,59.945,1.0.0.105,2,1290237572,Professional,2.0.10.353,2.0.10.353,10/26/2018,10/26/2018 15:06,11:06:46,2.0.10.248,3,2,1,3,,,,,,,,TrainingProc,BlockList,26,1,Distractor1.bmp,1,0,,0,1,3394483,500,,0,0,red,500,2,500,1,vertical,red,Distractor1.bmp,purple,Distractor1.bmp,cyan,Distractor1.bmp,blue,Distractor1.bmp,yellow,Distractor2.bmp,lime,Target1.bmp,,,,TrialProc,,TrainingTrialList,1,1,-999999,0,3394983,0,1,500,3395483,Target1.bmp,lime,1,,,,6,5,74
KW_Experiment5A,49,1,"<?xml version=""1.0""?>\n<Clock xmlns:dt=""urn:schemas-microsoft-com:datatypes""><Description dt:dt=""string"">E-Prime Primary Realtime Clock</Description><StartTime><Timestamp dt:dt=""int"">0</Timestamp><DateUtc dt:dt=""string"">2018-10-26T15:06:46Z</DateUtc></StartTime><FrequencyChanges><FrequencyChange><Frequency dt:dt=""r8"">3215292</Frequency><Timestamp dt:dt=""r8"">1830945673643</Timestamp><Current dt:dt=""r8"">0</Current><DateUtc dt:dt=""string"">2018-10-26T15:06:46Z</DateUtc></FrequencyChange></FrequencyChanges></Clock>\n",KW_Experiment5A-49-1,59.945,1.0.0.105,2,1290237572,Professional,2.0.10.353,2.0.10.353,10/26/2018,10/26/2018 15:06,11:06:46,2.0.10.248,3,2,1,3,,,,,,,,TrainingProc,BlockList,27,2,Distractor1.bmp,1,0,,0,1,3396501,400,,0,0,blue,400,1,400,3,horizontal,blue,Distractor2.bmp,purple,Distractor1.bmp,red,Distractor2.bmp,lime,Target2.bmp,cyan,Distractor1.bmp,yellow,Distractor1.bmp,,,,TrialProc,,TrainingTrialList,1,2,-999999,0,3396901,0,2,558,3397459,Target2.bmp,lime,2,,,,4,5,75
KW_Experiment5A,49,1,"<?xml version=""1.0""?>\n<Clock xmlns:dt=""urn:schemas-microsoft-com:datatypes""><Description dt:dt=""string"">E-Prime Primary Realtime Clock</Description><StartTime><Timestamp dt:dt=""int"">0</Timestamp><DateUtc dt:dt=""string"">2018-10-26T15:06:46Z</DateUtc></StartTime><FrequencyChanges><FrequencyChange><Frequency dt:dt=""r8"">3215292</Frequency><Timestamp dt:dt=""r8"">1830945673643</Timestamp><Current dt:dt=""r8"">0</Current><DateUtc dt:dt=""string"">2018-10-26T15:06:46Z</DateUtc></FrequencyChange></FrequencyChanges></Clock>\n",KW_Experiment5A-49-1,59.945,1.0.0.105,2,1290237572,Professional,2.0.10.353,2.0.10.353,10/26/2018,10/26/2018 15:06,11:06:46,2.0.10.248,3,2,1,3,,,,,,,,TrainingProc,BlockList,28,1,Distractor1.bmp,1,0,,1,0,3398469,401,,0,0,blue,400,1,400,,vertical,blue,Distractor1.bmp,yellow,Distractor1.bmp,red,Target1.bmp,lime,Distractor1.bmp,cyan,Distractor2.bmp,purple,Distractor2.bmp,,,,TrialProc,3,TrainingTrialList,1,1,-999999,1,3398870,0,1,605,3399475,Target1.bmp,red,1,,,,9,5,76
KW_Experiment5A,49,1,"<?xml version=""1.0""?>\n<Clock xmlns:dt=""urn:schemas-microsoft-com:datatypes""><Description dt:dt=""string"">E-Prime Primary Realtime Clock</Description><StartTime><Timestamp dt:dt=""int"">0</Timestamp><DateUtc dt:dt=""string"">2018-10-26T15:06:46Z</DateUtc></StartTime><FrequencyChanges><FrequencyChange><Frequency dt:dt=""r8"">3215292</Frequency><Timestamp dt:dt=""r8"">1830945673643</Timestamp><Current dt:dt=""r8"">0</Current><DateUtc dt:dt=""string"">2018-10-26T15:06:46Z</DateUtc></FrequencyChange></FrequencyChanges></Clock>\n",KW_Experiment5A-49-1,59.945,1.0.0.105,2,1290237572,Professional,2.0.10.353,2.0.10.353,10/26/2018,10/26/2018 15:06,11:06:46,2.0.10.248,3,2,1,3,,,,,,,,TrainingProc,BlockList,29,2,Distractor1.bmp,1,0,,0,1,3400488,601,,0,0,cyan,600,3,600,,horizontal,red,Target2.bmp,lime,Distractor1.bmp,purple,Distractor1.bmp,yellow,Distractor1.bmp,blue,Distractor2.bmp,cyan,Distractor2.bmp,,,,TrialProc,4,TrainingTrialList,1,2,-999999,1,3401089,0,2,442,3401531,Target2.bmp,red,2,,,,7,5,77
KW_Experiment5A,49,1,"<?xml version=""1.0""?>\n<Clock xmlns:dt=""urn:schemas-microsoft-com:datatypes""><Description dt:dt=""string"">E-Prime Primary Realtime Clock</Description><StartTime><Timestamp dt:dt=""int"">0</Timestamp><DateUtc dt:dt=""string"">2018-10-26T15:06:46Z</DateUtc></StartTime><FrequencyChanges><FrequencyChange><Frequency dt:dt=""r8"">3215292</Frequency><Timestamp dt:dt=""r8"">1830945673643</Timestamp><Current dt:dt=""r8"">0</Current><DateUtc dt:dt=""string"">2018-10-26T15:06:46Z</DateUtc></FrequencyChange></FrequencyChanges></Clock>\n",KW_Experiment5A-49-1,59.945,1.0.0.105,2,1290237572,Professional,2.0.10.353,2.0.10.353,10/26/2018,10/26/2018 15:06,11:06:46,2.0.10.248,3,2,1,3,,,,,,,,TrainingProc,BlockList,30,1,Distractor2.bmp,2,0,,0,1,3402557,400,,0,0,purple,400,1,400,,vertical,purple,Distractor2.bmp,cyan,Distractor2.bmp,blue,Distractor2.bmp,lime,Distractor1.bmp,yellow,Distractor1.bmp,red,Target1.bmp,,,,TrialProc,5,TrainingTrialList,1,1,-999999,0,3402957,0,1,502,3403459,Target1.bmp,red,1,,,,12,5,78
KW_Experiment5A,49,1,"<?xml version=""1.0""?>\n<Clock xmlns:dt=""urn:schemas-microsoft-com:datatypes""><Description dt:dt=""string"">E-Prime Primary Realtime Clock</Description><StartTime><Timestamp dt:dt=""int"">0</Timestamp><DateUtc dt:dt=""string"">2018-10-26T15:06:46Z</DateUtc></StartTime><FrequencyChanges><FrequencyChange><Frequency dt:dt=""r8"">3215292</Frequency><Timestamp dt:dt=""r8"">1830945673643</Timestamp><Current dt:dt=""r8"">0</Current><DateUtc dt:dt=""string"">2018-10-26T15:06:46Z</DateUtc></FrequencyChange></FrequencyChanges></Clock>\n",KW_Experiment5A-49-1,59.945,1.0.0.105,2,1290237572,Professional,2.0.10.353,2.0.10.353,10/26/2018,10/26/2018 15:06,11:06:46,2.0.10.248,3,2,1,3,,,,,,,,TrainingProc,BlockList,31,1,Distractor2.bmp,2,0,,0,1,3404475,500,,0,0,lime,500,2,500,,vertical,lime,Distractor2.bmp,red,Target1.bmp,blue,Distractor2.bmp,purple,Distractor1.bmp,cyan,Distractor2.bmp,yellow,Distractor1.bmp,,,,TrialProc,6,TrainingTrialList,1,1,-999999,0,3404975,0,1,668,3405643,Target1.bmp,red,1,,,,8,5,79
KW_Experiment5A,49,1,"<?xml version=""1.0""?>\n<Clock xmlns:dt=""urn:schemas-microsoft-com:datatypes""><Description dt:dt=""string"">E-Prime Primary Realtime Clock</Description><StartTime><Timestamp dt:dt=""int"">0</Timestamp><DateUtc dt:dt=""string"">2018-10-26T15:06:46Z</DateUtc></StartTime><FrequencyChanges><FrequencyChange><Frequency dt:dt=""r8"">3215292</Frequency><Timestamp dt:dt=""r8"">1830945673643</Timestamp><Current dt:dt=""r8"">0</Current><DateUtc dt:dt=""string"">2018-10-26T15:06:46Z</DateUtc></FrequencyChange></FrequencyChanges></Clock>\n",KW_Experiment5A-49-1,59.945,1.0.0.105,2,1290237572,Professional,2.0.10.353,2.0.10.353,10/26/2018,10/26/2018 15:06,11:06:46,2.0.10.248,3,2,1,3,,,,,,,,TrainingProc,BlockList,32,1,Distractor2.bmp,2,0,,0,1,3406660,601,,0,0,purple,600,3,600,,vertical,red,Target1.bmp,cyan,Distractor2.bmp,yellow,Distractor1.bmp,lime,Distractor2.bmp,blue,Distractor2.bmp,purple,Distractor1.bmp,,,,TrialProc,5,TrainingTrialList,1,1,-999999,1,3407261,0,1,766,3408027,Target1.bmp,red,1,,,,7,5,80
KW_Experiment5A,49,1,"<?xml version=""1.0""?>\n<Clock xmlns:dt=""urn:schemas-microsoft-com:datatypes""><Description dt:dt=""string"">E-Prime Primary Realtime Clock</Description><StartTime><Timestamp dt:dt=""int"">0</Timestamp><DateUtc dt:dt=""string"">2018-10-26T15:06:46Z</DateUtc></StartTime><FrequencyChanges><FrequencyChange><Frequency dt:dt=""r8"">3215292</Frequency><Timestamp dt:dt=""r8"">1830945673643</Timestamp><Current dt:dt=""r8"">0</Current><DateUtc dt:dt=""string"">2018-10-26T15:06:46Z</DateUtc></FrequencyChange></FrequencyChanges></Clock>\n",KW_Experiment5A-49-1,59.945,1.0.0.105,2,1290237572,Professional,2.0.10.353,2.0.10.353,10/26/2018,10/26/2018 15:06,11:06:46,2.0.10.248,3,2,1,3,,,,,,,,TrainingProc,BlockList,33,1,Distractor1.bmp,1,0,,0,1,3409046,500,,0,0,blue,500,2,500,,vertical,blue,Distractor1.bmp,red,Target1.bmp,purple,Distractor1.bmp,cyan,Distractor2.bmp,yellow,Distractor2.bmp,lime,Distractor2.bmp,,,,TrialProc,3,TrainingTrialList,1,1,-999999,0,3409546,0,1,569,3410115,Target1.bmp,red,1,,,,8,5,81
KW_Experiment5A,49,1,"<?xml version=""1.0""?>\n<Clock xmlns:dt=""urn:schemas-microsoft-com:datatypes""><Description dt:dt=""string"">E-Prime Primary Realtime Clock</Description><StartTime><Timestamp dt:dt=""int"">0</Timestamp><DateUtc dt:dt=""string"">2018-10-26T15:06:46Z</DateUtc></StartTime><FrequencyChanges><FrequencyChange><Frequency dt:dt=""r8"">3215292</Frequency><Timestamp dt:dt=""r8"">1830945673643</Timestamp><Current dt:dt=""r8"">0</Current><DateUtc dt:dt=""string"">2018-10-26T15:06:46Z</DateUtc></FrequencyChange></FrequencyChanges></Clock>\n",KW_Experiment5A-49-1,59.945,1.0.0.105,2,1290237572,Professional,2.0.10.353,2.0.10.353,10/26/2018,10/26/2018 15:06,11:06:46,2.0.10.248,3,2,1,3,,,,,,,,TrainingProc,BlockList,34,2,Distractor1.bmp,1,0,,0,1,3411131,500,,0,0,blue,500,2,500,,horizontal,blue,Distractor2.bmp,purple,Distractor1.bmp,red,Target2.bmp,lime,Distractor1.bmp,yellow,Distractor2.bmp,cyan,Distractor2.bmp,,,,TrialProc,3,TrainingTrialList,1,2,-999999,0,3411631,0,2,436,3412067,Target2.bmp,red,2,,,,9,5,82
KW_Experiment5A,49,1,"<?xml version=""1.0""?>\n<Clock xmlns:dt=""urn:schemas-microsoft-com:datatypes""><Description dt:dt=""string"">E-Prime Primary Realtime Clock</Description><StartTime><Timestamp dt:dt=""int"">0</Timestamp><DateUtc dt:dt=""string"">2018-10-26T15:06:46Z</DateUtc></StartTime><FrequencyChanges><FrequencyChange><Frequency dt:dt=""r8"">3215292</Frequency><Timestamp dt:dt=""r8"">1830945673643</Timestamp><Current dt:dt=""r8"">0</Current><DateUtc dt:dt=""string"">2018-10-26T15:06:46Z</DateUtc></FrequencyChange></FrequencyChanges></Clock>\n",KW_Experiment5A-49-1,59.945,1.0.0.105,2,1290237572,Professional,2.0.10.353,2.0.10.353,10/26/2018,10/26/2018 15:06,11:06:46,2.0.10.248,3,2,1,3,,,,,,,,TrainingProc,BlockList,35,2,Distractor1.bmp,1,0,,0,1,3413083,500,,0,0,purple,500,2,500,,horizontal,purple,Distractor2.bmp,cyan,Distractor1.bmp,lime,Distractor1.bmp,blue,Distractor2.bmp,red,Target2.bmp,yellow,Distractor1.bmp,,,,TrialProc,5,TrainingTrialList,0,2,-999999,0,3413583,0,1,356,3413939,Target2.bmp,red,2,,,,11,5,83
KW_Experiment5A,49,1,"<?xml version=""1.0""?>\n<Clock xmlns:dt=""urn:schemas-microsoft-com:datatypes""><Description dt:dt=""string"">E-Prime Primary Realtime Clock</Description><StartTime><Timestamp dt:dt=""int"">0</Timestamp><DateUtc dt:dt=""string"">2018-10-26T15:06:46Z</DateUtc></StartTime><FrequencyChanges><FrequencyChange><Frequency dt:dt=""r8"">3215292</Frequency><Timestamp dt:dt=""r8"">1830945673643</Timestamp><Current dt:dt=""r8"">0</Current><DateUtc dt:dt=""string"">2018-10-26T15:06:46Z</DateUtc></FrequencyChange></FrequencyChanges></Clock>\n",KW_Experiment5A-49-1,59.945,1.0.0.105,2,1290237572,Professional,2.0.10.353,2.0.10.353,10/26/2018,10/26/2018 15:06,11:06:46,2.0.10.248,3,2,1,3,,,,,,,,TrainingProc,BlockList,36,1,Distractor2.bmp,2,0,,0,1,3414951,501,,0,0,cyan,500,2,500,,vertical,cyan,Distractor2.bmp,purple,Distractor1.bmp,yellow,Distractor2.bmp,lime,Distractor2.bmp,blue,Distractor2.bmp,red,Target1.bmp,,,,TrialProc,4,TrainingTrialList,1,1,-999999,1,3415452,0,1,463,3415915,Target1.bmp,red,1,,,,12,5,84
KW_Experiment5A,49,1,"<?xml version=""1.0""?>\n<Clock xmlns:dt=""urn:schemas-microsoft-com:datatypes""><Description dt:dt=""string"">E-Prime Primary Realtime Clock</Description><StartTime><Timestamp dt:dt=""int"">0</Timestamp><DateUtc dt:dt=""string"">2018-10-26T15:06:46Z</DateUtc></StartTime><FrequencyChanges><FrequencyChange><Frequency dt:dt=""r8"">3215292</Frequency><Timestamp dt:dt=""r8"">1830945673643</Timestamp><Current dt:dt=""r8"">0</Current><DateUtc dt:dt=""string"">2018-10-26T15:06:46Z</DateUtc></FrequencyChange></FrequencyChanges></Clock>\n",KW_Experiment5A-49-1,59.945,1.0.0.105,2,1290237572,Professional,2.0.10.353,2.0.10.353,10/26/2018,10/26/2018 15:06,11:06:46,2.0.10.248,3,2,1,3,,,,,,,,TrainingProc,BlockList,37,2,Distractor2.bmp,2,0,,0,1,3416936,401,,0,0,lime,400,1,400,,horizontal,lime,Distractor2.bmp,purple,Distractor1.bmp,red,Target2.bmp,blue,Distractor2.bmp,cyan,Distractor2.bmp,yellow,Distractor1.bmp,,,,TrialProc,6,TrainingTrialList,1,2,-999999,1,3417337,0,2,426,3417763,Target2.bmp,red,2,,,,9,5,85
KW_Experiment5A,49,1,"<?xml version=""1.0""?>\n<Clock xmlns:dt=""urn:schemas-microsoft-com:datatypes""><Description dt:dt=""string"">E-Prime Primary Realtime Clock</Description><StartTime><Timestamp dt:dt=""int"">0</Timestamp><DateUtc dt:dt=""string"">2018-10-26T15:06:46Z</DateUtc></StartTime><FrequencyChanges><FrequencyChange><Frequency dt:dt=""r8"">3215292</Frequency><Timestamp dt:dt=""r8"">1830945673643</Timestamp><Current dt:dt=""r8"">0</Current><DateUtc dt:dt=""string"">2018-10-26T15:06:46Z</DateUtc></FrequencyChange></FrequencyChanges></Clock>\n",KW_Experiment5A-49-1,59.945,1.0.0.105,2,1290237572,Professional,2.0.10.353,2.0.10.353,10/26/2018,10/26/2018 15:06,11:06:46,2.0.10.248,3,2,1,3,,,,,,,,TrainingProc,BlockList,38,2,Distractor1.bmp,1,0,,0,1,3418788,500,,0,0,yellow,500,2,500,2,horizontal,yellow,Distractor1.bmp,red,Distractor2.bmp,lime,Target2.bmp,purple,Distractor1.bmp,cyan,Distractor1.bmp,blue,Distractor2.bmp,,,,TrialProc,,TrainingTrialList,1,2,-999999,0,3419288,0,2,411,3419699,Target2.bmp,lime,2,,,,3,5,86
KW_Experiment5A,49,1,"<?xml version=""1.0""?>\n<Clock xmlns:dt=""urn:schemas-microsoft-com:datatypes""><Description dt:dt=""string"">E-Prime Primary Realtime Clock</Description><StartTime><Timestamp dt:dt=""int"">0</Timestamp><DateUtc dt:dt=""string"">2018-10-26T15:06:46Z</DateUtc></StartTime><FrequencyChanges><FrequencyChange><Frequency dt:dt=""r8"">3215292</Frequency><Timestamp dt:dt=""r8"">1830945673643</Timestamp><Current dt:dt=""r8"">0</Current><DateUtc dt:dt=""string"">2018-10-26T15:06:46Z</DateUtc></FrequencyChange></FrequencyChanges></Clock>\n",KW_Experiment5A-49-1,59.945,1.0.0.105,2,1290237572,Professional,2.0.10.353,2.0.10.353,10/26/2018,10/26/2018 15:06,11:06:46,2.0.10.248,3,2,1,3,,,,,,,,TrainingProc,BlockList,39,1,Distractor1.bmp,1,0,,0,1,3420723,601,,0,0,yellow,600,3,600,,vertical,yellow,Distractor2.bmp,red,Target1.bmp,purple,Distractor1.bmp,cyan,Distractor2.bmp,lime,Distractor1.bmp,blue,Distractor1.bmp,,,,TrialProc,2,TrainingTrialList,1,1,-999999,1,3421324,0,1,439,3421763,Target1.bmp,red,1,,,,8,5,87
KW_Experiment5A,49,1,"<?xml version=""1.0""?>\n<Clock xmlns:dt=""urn:schemas-microsoft-com:datatypes""><Description dt:dt=""string"">E-Prime Primary Realtime Clock</Description><StartTime><Timestamp dt:dt=""int"">0</Timestamp><DateUtc dt:dt=""string"">2018-10-26T15:06:46Z</DateUtc></StartTime><FrequencyChanges><FrequencyChange><Frequency dt:dt=""r8"">3215292</Frequency><Timestamp dt:dt=""r8"">1830945673643</Timestamp><Current dt:dt=""r8"">0</Current><DateUtc dt:dt=""string"">2018-10-26T15:06:46Z</DateUtc></FrequencyChange></FrequencyChanges></Clock>\n",KW_Experiment5A-49-1,59.945,1.0.0.105,2,1290237572,Professional,2.0.10.353,2.0.10.353,10/26/2018,10/26/2018 15:06,11:06:46,2.0.10.248,3,2,1,3,,,,,,,,TrainingProc,BlockList,40,1,Distractor1.bmp,1,0,,0,1,3422775,400,,0,0,yellow,400,1,400,2,vertical,lime,Target1.bmp,yellow,Distractor1.bmp,red,Distractor1.bmp,blue,Distractor2.bmp,cyan,Distractor2.bmp,purple,Distractor1.bmp,,,,TrialProc,,TrainingTrialList,1,1,-999999,0,3423175,0,1,579,3423754,Target1.bmp,lime,1,,,,1,5,88
KW_Experiment5A,49,1,"<?xml version=""1.0""?>\n<Clock xmlns:dt=""urn:schemas-microsoft-com:datatypes""><Description dt:dt=""string"">E-Prime Primary Realtime Clock</Description><StartTime><Timestamp dt:dt=""int"">0</Timestamp><DateUtc dt:dt=""string"">2018-10-26T15:06:46Z</DateUtc></StartTime><FrequencyChanges><FrequencyChange><Frequency dt:dt=""r8"">3215292</Frequency><Timestamp dt:dt=""r8"">1830945673643</Timestamp><Current dt:dt=""r8"">0</Current><DateUtc dt:dt=""string"">2018-10-26T15:06:46Z</DateUtc></FrequencyChange></FrequencyChanges></Clock>\n",KW_Experiment5A-49-1,59.945,1.0.0.105,2,1290237572,Professional,2.0.10.353,2.0.10.353,10/26/2018,10/26/2018 15:06,11:06:46,2.0.10.248,3,2,1,3,,,,,,,,TrainingProc,BlockList,41,2,Distractor2.bmp,2,0,,0,1,3424777,500,,0,0,blue,500,2,500,,horizontal,blue,Distractor2.bmp,purple,Distractor1.bmp,yellow,Distractor2.bmp,cyan,Distractor2.bmp,lime,Distractor2.bmp,red,Target2.bmp,,,,TrialProc,3,TrainingTrialList,0,2,-999999,0,3425277,0,1,525,3425802,Target2.bmp,red,2,,,,12,5,89
