ExperimentName,Subject,Session,Clock.Information,DataFile.Basename,Display.RefreshRate,ExperimentVersion,Group,RandomSeed,RuntimeCapabilities,RuntimeVersion,RuntimeVersionExpected,SessionDate,SessionStartDateTimeUtc,SessionTime,StudioVersion,Block,BlockList,BlockList.Cycle,BlockList.Sample,PostTestQ1.RESP,PostTestQ1CJ.RESP,PostTestQ2.RESP,PostTestQ2CJ.RESP,PostTestQ3.RESP,PostTestQ3CJ.RESP,PostTestSlide.RESP,Procedure[Block],Running[Block],Trial,CorrectResponse,Distractor,DistractorList,Fixation.ACC,Fixation.CRESP,Fixation.DurationError,Fixation.OnsetDelay,Fixation.OnsetTime,Fixation.OnsetToOnsetTime,Fixation.RESP,Fixation.RT,Fixation.RTTime,ItemColor,Jitter,JitterList,JitterTime,Lime0List,Orientation,Pos1Color,Pos1Item,Pos2Color,Pos2Item,Pos3Color,Pos3Item,Pos4Color,Pos4Item,Pos5Color,Pos5Item,Pos6Color,Pos6Item,PracticeTrialList,PracticeTrialList.Cycle,PracticeTrialList.Sample,Procedure[Trial],Red0List,Running[Trial],Stimulus.ACC,Stimulus.CRESP,Stimulus.DurationError,Stimulus.OnsetDelay,Stimulus.OnsetTime,Stimulus.OnsetToOnsetTime,Stimulus.RESP,Stimulus.RT,Stimulus.RTTime,Target,TargetColor,TargetList,TestTrialList,TestTrialList.Cycle,TestTrialList.Sample,TrainingTrialList,TrainingTrialList.Cycle,TrainingTrialList.Sample
KW_Experiment5A,41,1,"<?xml version=""1.0""?>\n<Clock xmlns:dt=""urn:schemas-microsoft-com:datatypes""><Description dt:dt=""string"">E-Prime Primary Realtime Clock</Description><StartTime><Timestamp dt:dt=""int"">0</Timestamp><DateUtc dt:dt=""string"">2018-10-24T17:53:03Z</DateUtc></StartTime><FrequencyChanges><FrequencyChange><Frequency dt:dt=""r8"">3215273</Frequency><Timestamp dt:dt=""r8"">1307687993956</Timestamp><Current dt:dt=""r8"">0</Current><DateUtc dt:dt=""string"">2018-10-24T17:53:03Z</DateUtc></FrequencyChange></FrequencyChanges></Clock>\n",KW_Experiment5A-41-1,59.946,1.0.0.105,2,2018553314,Professional,2.0.10.353,2.0.10.353,10/24/2018,10/24/2018 17:53,13:53:04,2.0.10.248,1,1,1,1,,,,,,,,PracticeProc,BlockList,1,1,Distractor1.bmp,1,0,,0,45,60975,601,,0,0,yellow,600,3,600,,vertical,yellow,Distractor1.bmp,red,Target1.bmp,cyan,Distractor1.bmp,lime,Distractor2.bmp,purple,Distractor1.bmp,blue,Distractor1.bmp,2,1,1,TrialProc,2,PracticeTrialList,1,1,-999999,1,61576,0,1,8826,70402,Target1.bmp,red,1,,,,,,
KW_Experiment5A,41,1,"<?xml version=""1.0""?>\n<Clock xmlns:dt=""urn:schemas-microsoft-com:datatypes""><Description dt:dt=""string"">E-Prime Primary Realtime Clock</Description><StartTime><Timestamp dt:dt=""int"">0</Timestamp><DateUtc dt:dt=""string"">2018-10-24T17:53:03Z</DateUtc></StartTime><FrequencyChanges><FrequencyChange><Frequency dt:dt=""r8"">3215273</Frequency><Timestamp dt:dt=""r8"">1307687993956</Timestamp><Current dt:dt=""r8"">0</Current><DateUtc dt:dt=""string"">2018-10-24T17:53:03Z</DateUtc></FrequencyChange></FrequencyChanges></Clock>\n",KW_Experiment5A-41-1,59.946,1.0.0.105,2,2018553314,Professional,2.0.10.353,2.0.10.353,10/24/2018,10/24/2018 17:53,13:53:04,2.0.10.248,1,1,1,1,,,,,,,,PracticeProc,BlockList,2,2,Distractor2.bmp,2,0,,0,1,71418,401,,0,0,blue,400,1,400,,horizontal,purple,Distractor2.bmp,lime,Distractor2.bmp,cyan,Distractor1.bmp,yellow,Distractor2.bmp,blue,Distractor1.bmp,red,Target2.bmp,6,1,2,TrialProc,3,PracticeTrialList,0,2,-999999,1,71819,0,1,1935,73754,Target2.bmp,red,2,,,,,,
KW_Experiment5A,41,1,"<?xml version=""1.0""?>\n<Clock xmlns:dt=""urn:schemas-microsoft-com:datatypes""><Description dt:dt=""string"">E-Prime Primary Realtime Clock</Description><StartTime><Timestamp dt:dt=""int"">0</Timestamp><DateUtc dt:dt=""string"">2018-10-24T17:53:03Z</DateUtc></StartTime><FrequencyChanges><FrequencyChange><Frequency dt:dt=""r8"">3215273</Frequency><Timestamp dt:dt=""r8"">1307687993956</Timestamp><Current dt:dt=""r8"">0</Current><DateUtc dt:dt=""string"">2018-10-24T17:53:03Z</DateUtc></FrequencyChange></FrequencyChanges></Clock>\n",KW_Experiment5A-41-1,59.946,1.0.0.105,2,2018553314,Professional,2.0.10.353,2.0.10.353,10/24/2018,10/24/2018 17:53,13:53:04,2.0.10.248,1,1,1,1,,,,,,,,PracticeProc,BlockList,3,1,Distractor1.bmp,1,0,,0,1,74771,401,,0,0,purple,400,1,400,5,vertical,lime,Target1.bmp,blue,Distractor1.bmp,cyan,Distractor2.bmp,red,Distractor2.bmp,yellow,Distractor1.bmp,purple,Distractor1.bmp,1,1,3,TrialProc,,PracticeTrialList,1,1,-999999,1,75172,0,1,3045,78217,Target1.bmp,lime,1,,,,,,
KW_Experiment5A,41,1,"<?xml version=""1.0""?>\n<Clock xmlns:dt=""urn:schemas-microsoft-com:datatypes""><Description dt:dt=""string"">E-Prime Primary Realtime Clock</Description><StartTime><Timestamp dt:dt=""int"">0</Timestamp><DateUtc dt:dt=""string"">2018-10-24T17:53:03Z</DateUtc></StartTime><FrequencyChanges><FrequencyChange><Frequency dt:dt=""r8"">3215273</Frequency><Timestamp dt:dt=""r8"">1307687993956</Timestamp><Current dt:dt=""r8"">0</Current><DateUtc dt:dt=""string"">2018-10-24T17:53:03Z</DateUtc></FrequencyChange></FrequencyChanges></Clock>\n",KW_Experiment5A-41-1,59.946,1.0.0.105,2,2018553314,Professional,2.0.10.353,2.0.10.353,10/24/2018,10/24/2018 17:53,13:53:04,2.0.10.248,1,1,1,1,,,,,,,,PracticeProc,BlockList,4,1,Distractor1.bmp,1,0,,0,1,79242,601,,0,0,purple,600,3,600,5,vertical,red,Distractor2.bmp,blue,Distractor1.bmp,yellow,Distractor1.bmp,purple,Distractor2.bmp,lime,Target1.bmp,cyan,Distractor1.bmp,5,1,4,TrialProc,,PracticeTrialList,1,1,-999999,1,79843,0,1,1246,81089,Target1.bmp,lime,1,,,,,,
KW_Experiment5A,41,1,"<?xml version=""1.0""?>\n<Clock xmlns:dt=""urn:schemas-microsoft-com:datatypes""><Description dt:dt=""string"">E-Prime Primary Realtime Clock</Description><StartTime><Timestamp dt:dt=""int"">0</Timestamp><DateUtc dt:dt=""string"">2018-10-24T17:53:03Z</DateUtc></StartTime><FrequencyChanges><FrequencyChange><Frequency dt:dt=""r8"">3215273</Frequency><Timestamp dt:dt=""r8"">1307687993956</Timestamp><Current dt:dt=""r8"">0</Current><DateUtc dt:dt=""string"">2018-10-24T17:53:03Z</DateUtc></FrequencyChange></FrequencyChanges></Clock>\n",KW_Experiment5A-41-1,59.946,1.0.0.105,2,2018553314,Professional,2.0.10.353,2.0.10.353,10/24/2018,10/24/2018 17:53,13:53:04,2.0.10.248,1,1,1,1,,,,,,,,PracticeProc,BlockList,5,2,Distractor2.bmp,2,0,,0,1,82111,401,,0,0,purple,400,1,400,,horizontal,yellow,Distractor1.bmp,blue,Distractor1.bmp,purple,Distractor1.bmp,red,Target2.bmp,lime,Distractor2.bmp,cyan,Distractor2.bmp,4,1,5,TrialProc,5,PracticeTrialList,0,2,-999999,1,82512,0,1,1161,83673,Target2.bmp,red,2,,,,,,
KW_Experiment5A,41,1,"<?xml version=""1.0""?>\n<Clock xmlns:dt=""urn:schemas-microsoft-com:datatypes""><Description dt:dt=""string"">E-Prime Primary Realtime Clock</Description><StartTime><Timestamp dt:dt=""int"">0</Timestamp><DateUtc dt:dt=""string"">2018-10-24T17:53:03Z</DateUtc></StartTime><FrequencyChanges><FrequencyChange><Frequency dt:dt=""r8"">3215273</Frequency><Timestamp dt:dt=""r8"">1307687993956</Timestamp><Current dt:dt=""r8"">0</Current><DateUtc dt:dt=""string"">2018-10-24T17:53:03Z</DateUtc></FrequencyChange></FrequencyChanges></Clock>\n",KW_Experiment5A-41-1,59.946,1.0.0.105,2,2018553314,Professional,2.0.10.353,2.0.10.353,10/24/2018,10/24/2018 17:53,13:53:04,2.0.10.248,1,1,1,1,,,,,,,,PracticeProc,BlockList,6,1,Distractor1.bmp,1,0,,0,1,84697,601,,0,0,red,600,3,600,1,vertical,cyan,Distractor2.bmp,red,Distractor2.bmp,lime,Target1.bmp,purple,Distractor1.bmp,blue,Distractor1.bmp,yellow,Distractor1.bmp,3,1,6,TrialProc,,PracticeTrialList,1,1,-999999,1,85298,0,1,919,86217,Target1.bmp,lime,1,,,,,,
KW_Experiment5A,41,1,"<?xml version=""1.0""?>\n<Clock xmlns:dt=""urn:schemas-microsoft-com:datatypes""><Description dt:dt=""string"">E-Prime Primary Realtime Clock</Description><StartTime><Timestamp dt:dt=""int"">0</Timestamp><DateUtc dt:dt=""string"">2018-10-24T17:53:03Z</DateUtc></StartTime><FrequencyChanges><FrequencyChange><Frequency dt:dt=""r8"">3215273</Frequency><Timestamp dt:dt=""r8"">1307687993956</Timestamp><Current dt:dt=""r8"">0</Current><DateUtc dt:dt=""string"">2018-10-24T17:53:03Z</DateUtc></FrequencyChange></FrequencyChanges></Clock>\n",KW_Experiment5A-41-1,59.946,1.0.0.105,2,2018553314,Professional,2.0.10.353,2.0.10.353,10/24/2018,10/24/2018 17:53,13:53:04,2.0.10.248,2,2,1,2,,,,,,,,TrainingProc,BlockList,1,2,Distractor2.bmp,2,0,,0,21,93238,601,,0,0,cyan,600,3,600,4,horizontal,cyan,Distractor2.bmp,blue,Distractor1.bmp,purple,Distractor1.bmp,red,Distractor1.bmp,lime,Target2.bmp,yellow,Distractor2.bmp,,,,TrialProc,,TrainingTrialList,1,2,-999999,1,93839,0,2,1002,94841,Target2.bmp,lime,2,,,,5,2,1
KW_Experiment5A,41,1,"<?xml version=""1.0""?>\n<Clock xmlns:dt=""urn:schemas-microsoft-com:datatypes""><Description dt:dt=""string"">E-Prime Primary Realtime Clock</Description><StartTime><Timestamp dt:dt=""int"">0</Timestamp><DateUtc dt:dt=""string"">2018-10-24T17:53:03Z</DateUtc></StartTime><FrequencyChanges><FrequencyChange><Frequency dt:dt=""r8"">3215273</Frequency><Timestamp dt:dt=""r8"">1307687993956</Timestamp><Current dt:dt=""r8"">0</Current><DateUtc dt:dt=""string"">2018-10-24T17:53:03Z</DateUtc></FrequencyChange></FrequencyChanges></Clock>\n",KW_Experiment5A-41-1,59.946,1.0.0.105,2,2018553314,Professional,2.0.10.353,2.0.10.353,10/24/2018,10/24/2018 17:53,13:53:04,2.0.10.248,2,2,1,2,,,,,,,,TrainingProc,BlockList,2,2,Distractor2.bmp,2,0,,0,1,95857,501,,0,0,cyan,500,2,500,,horizontal,cyan,Distractor1.bmp,yellow,Distractor1.bmp,purple,Distractor1.bmp,red,Target2.bmp,blue,Distractor2.bmp,lime,Distractor1.bmp,,,,TrialProc,4,TrainingTrialList,0,2,-999999,1,96358,0,1,867,97225,Target2.bmp,red,2,,,,10,2,2
KW_Experiment5A,41,1,"<?xml version=""1.0""?>\n<Clock xmlns:dt=""urn:schemas-microsoft-com:datatypes""><Description dt:dt=""string"">E-Prime Primary Realtime Clock</Description><StartTime><Timestamp dt:dt=""int"">0</Timestamp><DateUtc dt:dt=""string"">2018-10-24T17:53:03Z</DateUtc></StartTime><FrequencyChanges><FrequencyChange><Frequency dt:dt=""r8"">3215273</Frequency><Timestamp dt:dt=""r8"">1307687993956</Timestamp><Current dt:dt=""r8"">0</Current><DateUtc dt:dt=""string"">2018-10-24T17:53:03Z</DateUtc></FrequencyChange></FrequencyChanges></Clock>\n",KW_Experiment5A-41-1,59.946,1.0.0.105,2,2018553314,Professional,2.0.10.353,2.0.10.353,10/24/2018,10/24/2018 17:53,13:53:04,2.0.10.248,2,2,1,2,,,,,,,,TrainingProc,BlockList,3,2,Distractor1.bmp,1,0,,0,1,98243,400,,0,0,cyan,400,1,400,4,horizontal,cyan,Distractor2.bmp,lime,Target2.bmp,blue,Distractor1.bmp,yellow,Distractor1.bmp,red,Distractor2.bmp,purple,Distractor1.bmp,,,,TrialProc,,TrainingTrialList,1,2,-999999,0,98643,0,2,830,99473,Target2.bmp,lime,2,,,,2,2,3
KW_Experiment5A,41,1,"<?xml version=""1.0""?>\n<Clock xmlns:dt=""urn:schemas-microsoft-com:datatypes""><Description dt:dt=""string"">E-Prime Primary Realtime Clock</Description><StartTime><Timestamp dt:dt=""int"">0</Timestamp><DateUtc dt:dt=""string"">2018-10-24T17:53:03Z</DateUtc></StartTime><FrequencyChanges><FrequencyChange><Frequency dt:dt=""r8"">3215273</Frequency><Timestamp dt:dt=""r8"">1307687993956</Timestamp><Current dt:dt=""r8"">0</Current><DateUtc dt:dt=""string"">2018-10-24T17:53:03Z</DateUtc></FrequencyChange></FrequencyChanges></Clock>\n",KW_Experiment5A-41-1,59.946,1.0.0.105,2,2018553314,Professional,2.0.10.353,2.0.10.353,10/24/2018,10/24/2018 17:53,13:53:04,2.0.10.248,2,2,1,2,,,,,,,,TrainingProc,BlockList,4,1,Distractor1.bmp,1,0,,0,1,100495,600,,0,0,blue,600,3,600,3,vertical,lime,Target1.bmp,blue,Distractor1.bmp,purple,Distractor1.bmp,cyan,Distractor1.bmp,red,Distractor2.bmp,yellow,Distractor1.bmp,,,,TrialProc,,TrainingTrialList,1,1,-999999,0,101095,0,1,554,101649,Target1.bmp,lime,1,,,,1,2,4
KW_Experiment5A,41,1,"<?xml version=""1.0""?>\n<Clock xmlns:dt=""urn:schemas-microsoft-com:datatypes""><Description dt:dt=""string"">E-Prime Primary Realtime Clock</Description><StartTime><Timestamp dt:dt=""int"">0</Timestamp><DateUtc dt:dt=""string"">2018-10-24T17:53:03Z</DateUtc></StartTime><FrequencyChanges><FrequencyChange><Frequency dt:dt=""r8"">3215273</Frequency><Timestamp dt:dt=""r8"">1307687993956</Timestamp><Current dt:dt=""r8"">0</Current><DateUtc dt:dt=""string"">2018-10-24T17:53:03Z</DateUtc></FrequencyChange></FrequencyChanges></Clock>\n",KW_Experiment5A-41-1,59.946,1.0.0.105,2,2018553314,Professional,2.0.10.353,2.0.10.353,10/24/2018,10/24/2018 17:53,13:53:04,2.0.10.248,2,2,1,2,,,,,,,,TrainingProc,BlockList,5,1,Distractor1.bmp,1,0,,1,0,102663,601,,0,0,yellow,600,3,600,,vertical,red,Target1.bmp,lime,Distractor1.bmp,blue,Distractor1.bmp,cyan,Distractor2.bmp,purple,Distractor2.bmp,yellow,Distractor1.bmp,,,,TrialProc,2,TrainingTrialList,1,1,-999999,1,103264,0,1,817,104081,Target1.bmp,red,1,,,,7,2,5
KW_Experiment5A,41,1,"<?xml version=""1.0""?>\n<Clock xmlns:dt=""urn:schemas-microsoft-com:datatypes""><Description dt:dt=""string"">E-Prime Primary Realtime Clock</Description><StartTime><Timestamp dt:dt=""int"">0</Timestamp><DateUtc dt:dt=""string"">2018-10-24T17:53:03Z</DateUtc></StartTime><FrequencyChanges><FrequencyChange><Frequency dt:dt=""r8"">3215273</Frequency><Timestamp dt:dt=""r8"">1307687993956</Timestamp><Current dt:dt=""r8"">0</Current><DateUtc dt:dt=""string"">2018-10-24T17:53:03Z</DateUtc></FrequencyChange></FrequencyChanges></Clock>\n",KW_Experiment5A-41-1,59.946,1.0.0.105,2,2018553314,Professional,2.0.10.353,2.0.10.353,10/24/2018,10/24/2018 17:53,13:53:04,2.0.10.248,2,2,1,2,,,,,,,,TrainingProc,BlockList,6,2,Distractor2.bmp,2,0,,0,1,105099,400,,0,0,yellow,400,1,400,,horizontal,yellow,Distractor1.bmp,purple,Distractor1.bmp,blue,Distractor2.bmp,red,Target2.bmp,cyan,Distractor2.bmp,lime,Distractor2.bmp,,,,TrialProc,2,TrainingTrialList,1,2,-999999,0,105499,0,2,598,106097,Target2.bmp,red,2,,,,10,2,6
KW_Experiment5A,41,1,"<?xml version=""1.0""?>\n<Clock xmlns:dt=""urn:schemas-microsoft-com:datatypes""><Description dt:dt=""string"">E-Prime Primary Realtime Clock</Description><StartTime><Timestamp dt:dt=""int"">0</Timestamp><DateUtc dt:dt=""string"">2018-10-24T17:53:03Z</DateUtc></StartTime><FrequencyChanges><FrequencyChange><Frequency dt:dt=""r8"">3215273</Frequency><Timestamp dt:dt=""r8"">1307687993956</Timestamp><Current dt:dt=""r8"">0</Current><DateUtc dt:dt=""string"">2018-10-24T17:53:03Z</DateUtc></FrequencyChange></FrequencyChanges></Clock>\n",KW_Experiment5A-41-1,59.946,1.0.0.105,2,2018553314,Professional,2.0.10.353,2.0.10.353,10/24/2018,10/24/2018 17:53,13:53:04,2.0.10.248,2,2,1,2,,,,,,,,TrainingProc,BlockList,7,1,Distractor2.bmp,2,0,,0,1,107118,500,,0,0,blue,500,2,500,,vertical,red,Target1.bmp,purple,Distractor2.bmp,cyan,Distractor1.bmp,yellow,Distractor1.bmp,lime,Distractor1.bmp,blue,Distractor2.bmp,,,,TrialProc,3,TrainingTrialList,1,1,-999999,0,107618,0,1,471,108089,Target1.bmp,red,1,,,,7,2,7
KW_Experiment5A,41,1,"<?xml version=""1.0""?>\n<Clock xmlns:dt=""urn:schemas-microsoft-com:datatypes""><Description dt:dt=""string"">E-Prime Primary Realtime Clock</Description><StartTime><Timestamp dt:dt=""int"">0</Timestamp><DateUtc dt:dt=""string"">2018-10-24T17:53:03Z</DateUtc></StartTime><FrequencyChanges><FrequencyChange><Frequency dt:dt=""r8"">3215273</Frequency><Timestamp dt:dt=""r8"">1307687993956</Timestamp><Current dt:dt=""r8"">0</Current><DateUtc dt:dt=""string"">2018-10-24T17:53:03Z</DateUtc></FrequencyChange></FrequencyChanges></Clock>\n",KW_Experiment5A-41-1,59.946,1.0.0.105,2,2018553314,Professional,2.0.10.353,2.0.10.353,10/24/2018,10/24/2018 17:53,13:53:04,2.0.10.248,2,2,1,2,,,,,,,,TrainingProc,BlockList,8,1,Distractor2.bmp,2,0,,0,1,109103,400,,0,0,blue,400,1,400,,vertical,blue,Distractor2.bmp,purple,Distractor2.bmp,lime,Distractor2.bmp,cyan,Distractor1.bmp,yellow,Distractor1.bmp,red,Target1.bmp,,,,TrialProc,3,TrainingTrialList,1,1,-999999,0,109503,0,1,810,110313,Target1.bmp,red,1,,,,12,2,8
KW_Experiment5A,41,1,"<?xml version=""1.0""?>\n<Clock xmlns:dt=""urn:schemas-microsoft-com:datatypes""><Description dt:dt=""string"">E-Prime Primary Realtime Clock</Description><StartTime><Timestamp dt:dt=""int"">0</Timestamp><DateUtc dt:dt=""string"">2018-10-24T17:53:03Z</DateUtc></StartTime><FrequencyChanges><FrequencyChange><Frequency dt:dt=""r8"">3215273</Frequency><Timestamp dt:dt=""r8"">1307687993956</Timestamp><Current dt:dt=""r8"">0</Current><DateUtc dt:dt=""string"">2018-10-24T17:53:03Z</DateUtc></FrequencyChange></FrequencyChanges></Clock>\n",KW_Experiment5A-41-1,59.946,1.0.0.105,2,2018553314,Professional,2.0.10.353,2.0.10.353,10/24/2018,10/24/2018 17:53,13:53:04,2.0.10.248,2,2,1,2,,,,,,,,TrainingProc,BlockList,9,1,Distractor2.bmp,2,0,,0,1,111338,400,,0,0,lime,400,1,400,,vertical,lime,Distractor2.bmp,purple,Distractor2.bmp,red,Target1.bmp,yellow,Distractor2.bmp,cyan,Distractor1.bmp,blue,Distractor2.bmp,,,,TrialProc,6,TrainingTrialList,0,1,-999999,0,111738,0,2,583,112321,Target1.bmp,red,1,,,,9,2,9
KW_Experiment5A,41,1,"<?xml version=""1.0""?>\n<Clock xmlns:dt=""urn:schemas-microsoft-com:datatypes""><Description dt:dt=""string"">E-Prime Primary Realtime Clock</Description><StartTime><Timestamp dt:dt=""int"">0</Timestamp><DateUtc dt:dt=""string"">2018-10-24T17:53:03Z</DateUtc></StartTime><FrequencyChanges><FrequencyChange><Frequency dt:dt=""r8"">3215273</Frequency><Timestamp dt:dt=""r8"">1307687993956</Timestamp><Current dt:dt=""r8"">0</Current><DateUtc dt:dt=""string"">2018-10-24T17:53:03Z</DateUtc></FrequencyChange></FrequencyChanges></Clock>\n",KW_Experiment5A-41-1,59.946,1.0.0.105,2,2018553314,Professional,2.0.10.353,2.0.10.353,10/24/2018,10/24/2018 17:53,13:53:04,2.0.10.248,2,2,1,2,,,,,,,,TrainingProc,BlockList,10,2,Distractor2.bmp,2,0,,0,1,113340,400,,0,0,blue,400,1,400,,horizontal,blue,Distractor1.bmp,cyan,Distractor1.bmp,yellow,Distractor1.bmp,lime,Distractor2.bmp,red,Target2.bmp,purple,Distractor2.bmp,,,,TrialProc,3,TrainingTrialList,1,2,-999999,0,113740,0,2,709,114449,Target2.bmp,red,2,,,,11,2,10
KW_Experiment5A,41,1,"<?xml version=""1.0""?>\n<Clock xmlns:dt=""urn:schemas-microsoft-com:datatypes""><Description dt:dt=""string"">E-Prime Primary Realtime Clock</Description><StartTime><Timestamp dt:dt=""int"">0</Timestamp><DateUtc dt:dt=""string"">2018-10-24T17:53:03Z</DateUtc></StartTime><FrequencyChanges><FrequencyChange><Frequency dt:dt=""r8"">3215273</Frequency><Timestamp dt:dt=""r8"">1307687993956</Timestamp><Current dt:dt=""r8"">0</Current><DateUtc dt:dt=""string"">2018-10-24T17:53:03Z</DateUtc></FrequencyChange></FrequencyChanges></Clock>\n",KW_Experiment5A-41-1,59.946,1.0.0.105,2,2018553314,Professional,2.0.10.353,2.0.10.353,10/24/2018,10/24/2018 17:53,13:53:04,2.0.10.248,2,2,1,2,,,,,,,,TrainingProc,BlockList,11,1,Distractor2.bmp,2,0,,0,1,115459,500,,0,0,purple,500,2,500,,vertical,red,Target1.bmp,yellow,Distractor2.bmp,lime,Distractor2.bmp,cyan,Distractor2.bmp,blue,Distractor1.bmp,purple,Distractor1.bmp,,,,TrialProc,5,TrainingTrialList,1,1,-999999,0,115959,0,1,466,116425,Target1.bmp,red,1,,,,7,2,11
KW_Experiment5A,41,1,"<?xml version=""1.0""?>\n<Clock xmlns:dt=""urn:schemas-microsoft-com:datatypes""><Description dt:dt=""string"">E-Prime Primary Realtime Clock</Description><StartTime><Timestamp dt:dt=""int"">0</Timestamp><DateUtc dt:dt=""string"">2018-10-24T17:53:03Z</DateUtc></StartTime><FrequencyChanges><FrequencyChange><Frequency dt:dt=""r8"">3215273</Frequency><Timestamp dt:dt=""r8"">1307687993956</Timestamp><Current dt:dt=""r8"">0</Current><DateUtc dt:dt=""string"">2018-10-24T17:53:03Z</DateUtc></FrequencyChange></FrequencyChanges></Clock>\n",KW_Experiment5A-41-1,59.946,1.0.0.105,2,2018553314,Professional,2.0.10.353,2.0.10.353,10/24/2018,10/24/2018 17:53,13:53:04,2.0.10.248,2,2,1,2,,,,,,,,TrainingProc,BlockList,12,2,Distractor2.bmp,2,0,,0,1,117444,500,,0,0,purple,500,2,500,,horizontal,purple,Distractor1.bmp,lime,Distractor2.bmp,red,Target2.bmp,cyan,Distractor2.bmp,blue,Distractor1.bmp,yellow,Distractor2.bmp,,,,TrialProc,5,TrainingTrialList,1,2,-999999,0,117944,0,2,849,118793,Target2.bmp,red,2,,,,9,2,12
KW_Experiment5A,41,1,"<?xml version=""1.0""?>\n<Clock xmlns:dt=""urn:schemas-microsoft-com:datatypes""><Description dt:dt=""string"">E-Prime Primary Realtime Clock</Description><StartTime><Timestamp dt:dt=""int"">0</Timestamp><DateUtc dt:dt=""string"">2018-10-24T17:53:03Z</DateUtc></StartTime><FrequencyChanges><FrequencyChange><Frequency dt:dt=""r8"">3215273</Frequency><Timestamp dt:dt=""r8"">1307687993956</Timestamp><Current dt:dt=""r8"">0</Current><DateUtc dt:dt=""string"">2018-10-24T17:53:03Z</DateUtc></FrequencyChange></FrequencyChanges></Clock>\n",KW_Experiment5A-41-1,59.946,1.0.0.105,2,2018553314,Professional,2.0.10.353,2.0.10.353,10/24/2018,10/24/2018 17:53,13:53:04,2.0.10.248,2,2,1,2,,,,,,,,TrainingProc,BlockList,13,2,Distractor2.bmp,2,0,,0,1,119813,400,,0,0,cyan,400,1,400,,horizontal,cyan,Distractor2.bmp,blue,Distractor1.bmp,yellow,Distractor2.bmp,purple,Distractor1.bmp,red,Target2.bmp,lime,Distractor2.bmp,,,,TrialProc,4,TrainingTrialList,1,2,-999999,0,120213,0,2,636,120849,Target2.bmp,red,2,,,,11,2,13
KW_Experiment5A,41,1,"<?xml version=""1.0""?>\n<Clock xmlns:dt=""urn:schemas-microsoft-com:datatypes""><Description dt:dt=""string"">E-Prime Primary Realtime Clock</Description><StartTime><Timestamp dt:dt=""int"">0</Timestamp><DateUtc dt:dt=""string"">2018-10-24T17:53:03Z</DateUtc></StartTime><FrequencyChanges><FrequencyChange><Frequency dt:dt=""r8"">3215273</Frequency><Timestamp dt:dt=""r8"">1307687993956</Timestamp><Current dt:dt=""r8"">0</Current><DateUtc dt:dt=""string"">2018-10-24T17:53:03Z</DateUtc></FrequencyChange></FrequencyChanges></Clock>\n",KW_Experiment5A-41-1,59.946,1.0.0.105,2,2018553314,Professional,2.0.10.353,2.0.10.353,10/24/2018,10/24/2018 17:53,13:53:04,2.0.10.248,2,2,1,2,,,,,,,,TrainingProc,BlockList,14,2,Distractor2.bmp,2,0,,0,1,121864,401,,0,0,blue,400,1,400,3,horizontal,blue,Distractor1.bmp,cyan,Distractor2.bmp,lime,Target2.bmp,yellow,Distractor2.bmp,red,Distractor2.bmp,purple,Distractor2.bmp,,,,TrialProc,,TrainingTrialList,1,2,-999999,1,122265,0,2,704,122969,Target2.bmp,lime,2,,,,3,2,14
KW_Experiment5A,41,1,"<?xml version=""1.0""?>\n<Clock xmlns:dt=""urn:schemas-microsoft-com:datatypes""><Description dt:dt=""string"">E-Prime Primary Realtime Clock</Description><StartTime><Timestamp dt:dt=""int"">0</Timestamp><DateUtc dt:dt=""string"">2018-10-24T17:53:03Z</DateUtc></StartTime><FrequencyChanges><FrequencyChange><Frequency dt:dt=""r8"">3215273</Frequency><Timestamp dt:dt=""r8"">1307687993956</Timestamp><Current dt:dt=""r8"">0</Current><DateUtc dt:dt=""string"">2018-10-24T17:53:03Z</DateUtc></FrequencyChange></FrequencyChanges></Clock>\n",KW_Experiment5A-41-1,59.946,1.0.0.105,2,2018553314,Professional,2.0.10.353,2.0.10.353,10/24/2018,10/24/2018 17:53,13:53:04,2.0.10.248,2,2,1,2,,,,,,,,TrainingProc,BlockList,15,2,Distractor2.bmp,2,0,,0,1,123983,500,,0,0,lime,500,2,500,,horizontal,lime,Distractor1.bmp,red,Target2.bmp,yellow,Distractor2.bmp,cyan,Distractor2.bmp,blue,Distractor2.bmp,purple,Distractor1.bmp,,,,TrialProc,6,TrainingTrialList,1,2,-999999,0,124483,0,2,574,125057,Target2.bmp,red,2,,,,8,2,15
KW_Experiment5A,41,1,"<?xml version=""1.0""?>\n<Clock xmlns:dt=""urn:schemas-microsoft-com:datatypes""><Description dt:dt=""string"">E-Prime Primary Realtime Clock</Description><StartTime><Timestamp dt:dt=""int"">0</Timestamp><DateUtc dt:dt=""string"">2018-10-24T17:53:03Z</DateUtc></StartTime><FrequencyChanges><FrequencyChange><Frequency dt:dt=""r8"">3215273</Frequency><Timestamp dt:dt=""r8"">1307687993956</Timestamp><Current dt:dt=""r8"">0</Current><DateUtc dt:dt=""string"">2018-10-24T17:53:03Z</DateUtc></FrequencyChange></FrequencyChanges></Clock>\n",KW_Experiment5A-41-1,59.946,1.0.0.105,2,2018553314,Professional,2.0.10.353,2.0.10.353,10/24/2018,10/24/2018 17:53,13:53:04,2.0.10.248,2,2,1,2,,,,,,,,TrainingProc,BlockList,16,1,Distractor2.bmp,2,0,,0,1,126068,401,,0,0,yellow,400,1,400,,vertical,yellow,Distractor2.bmp,blue,Distractor1.bmp,cyan,Distractor2.bmp,lime,Distractor1.bmp,purple,Distractor2.bmp,red,Target1.bmp,,,,TrialProc,2,TrainingTrialList,1,1,-999999,1,126469,0,1,524,126993,Target1.bmp,red,1,,,,12,2,16
KW_Experiment5A,41,1,"<?xml version=""1.0""?>\n<Clock xmlns:dt=""urn:schemas-microsoft-com:datatypes""><Description dt:dt=""string"">E-Prime Primary Realtime Clock</Description><StartTime><Timestamp dt:dt=""int"">0</Timestamp><DateUtc dt:dt=""string"">2018-10-24T17:53:03Z</DateUtc></StartTime><FrequencyChanges><FrequencyChange><Frequency dt:dt=""r8"">3215273</Frequency><Timestamp dt:dt=""r8"">1307687993956</Timestamp><Current dt:dt=""r8"">0</Current><DateUtc dt:dt=""string"">2018-10-24T17:53:03Z</DateUtc></FrequencyChange></FrequencyChanges></Clock>\n",KW_Experiment5A-41-1,59.946,1.0.0.105,2,2018553314,Professional,2.0.10.353,2.0.10.353,10/24/2018,10/24/2018 17:53,13:53:04,2.0.10.248,2,2,1,2,,,,,,,,TrainingProc,BlockList,17,2,Distractor1.bmp,1,0,,0,1,128003,501,,0,0,blue,500,2,500,3,horizontal,blue,Distractor2.bmp,red,Distractor1.bmp,cyan,Distractor2.bmp,lime,Target2.bmp,yellow,Distractor1.bmp,purple,Distractor2.bmp,,,,TrialProc,,TrainingTrialList,1,2,-999999,1,128504,0,2,601,129105,Target2.bmp,lime,2,,,,4,2,17
KW_Experiment5A,41,1,"<?xml version=""1.0""?>\n<Clock xmlns:dt=""urn:schemas-microsoft-com:datatypes""><Description dt:dt=""string"">E-Prime Primary Realtime Clock</Description><StartTime><Timestamp dt:dt=""int"">0</Timestamp><DateUtc dt:dt=""string"">2018-10-24T17:53:03Z</DateUtc></StartTime><FrequencyChanges><FrequencyChange><Frequency dt:dt=""r8"">3215273</Frequency><Timestamp dt:dt=""r8"">1307687993956</Timestamp><Current dt:dt=""r8"">0</Current><DateUtc dt:dt=""string"">2018-10-24T17:53:03Z</DateUtc></FrequencyChange></FrequencyChanges></Clock>\n",KW_Experiment5A-41-1,59.946,1.0.0.105,2,2018553314,Professional,2.0.10.353,2.0.10.353,10/24/2018,10/24/2018 17:53,13:53:04,2.0.10.248,2,2,1,2,,,,,,,,TrainingProc,BlockList,18,2,Distractor2.bmp,2,0,,0,1,130122,400,,0,0,yellow,400,1,400,,horizontal,yellow,Distractor2.bmp,lime,Distractor2.bmp,cyan,Distractor2.bmp,red,Target2.bmp,blue,Distractor2.bmp,purple,Distractor1.bmp,,,,TrialProc,2,TrainingTrialList,1,2,-999999,0,130522,0,2,526,131048,Target2.bmp,red,2,,,,10,2,18
KW_Experiment5A,41,1,"<?xml version=""1.0""?>\n<Clock xmlns:dt=""urn:schemas-microsoft-com:datatypes""><Description dt:dt=""string"">E-Prime Primary Realtime Clock</Description><StartTime><Timestamp dt:dt=""int"">0</Timestamp><DateUtc dt:dt=""string"">2018-10-24T17:53:03Z</DateUtc></StartTime><FrequencyChanges><FrequencyChange><Frequency dt:dt=""r8"">3215273</Frequency><Timestamp dt:dt=""r8"">1307687993956</Timestamp><Current dt:dt=""r8"">0</Current><DateUtc dt:dt=""string"">2018-10-24T17:53:03Z</DateUtc></FrequencyChange></FrequencyChanges></Clock>\n",KW_Experiment5A-41-1,59.946,1.0.0.105,2,2018553314,Professional,2.0.10.353,2.0.10.353,10/24/2018,10/24/2018 17:53,13:53:04,2.0.10.248,2,2,1,2,,,,,,,,TrainingProc,BlockList,19,2,Distractor1.bmp,1,0,,0,1,132074,500,,0,0,cyan,500,2,500,,horizontal,cyan,Distractor1.bmp,red,Target2.bmp,yellow,Distractor1.bmp,lime,Distractor1.bmp,blue,Distractor2.bmp,purple,Distractor2.bmp,,,,TrialProc,4,TrainingTrialList,1,2,-999999,0,132574,0,2,578,133152,Target2.bmp,red,2,,,,8,2,19
KW_Experiment5A,41,1,"<?xml version=""1.0""?>\n<Clock xmlns:dt=""urn:schemas-microsoft-com:datatypes""><Description dt:dt=""string"">E-Prime Primary Realtime Clock</Description><StartTime><Timestamp dt:dt=""int"">0</Timestamp><DateUtc dt:dt=""string"">2018-10-24T17:53:03Z</DateUtc></StartTime><FrequencyChanges><FrequencyChange><Frequency dt:dt=""r8"">3215273</Frequency><Timestamp dt:dt=""r8"">1307687993956</Timestamp><Current dt:dt=""r8"">0</Current><DateUtc dt:dt=""string"">2018-10-24T17:53:03Z</DateUtc></FrequencyChange></FrequencyChanges></Clock>\n",KW_Experiment5A-41-1,59.946,1.0.0.105,2,2018553314,Professional,2.0.10.353,2.0.10.353,10/24/2018,10/24/2018 17:53,13:53:04,2.0.10.248,2,2,1,2,,,,,,,,TrainingProc,BlockList,20,2,Distractor1.bmp,1,0,,0,1,134176,500,,0,0,purple,500,2,500,5,horizontal,purple,Distractor1.bmp,yellow,Distractor2.bmp,cyan,Distractor1.bmp,red,Distractor2.bmp,blue,Distractor2.bmp,lime,Target2.bmp,,,,TrialProc,,TrainingTrialList,1,2,-999999,0,134676,0,2,764,135440,Target2.bmp,lime,2,,,,6,2,20
KW_Experiment5A,41,1,"<?xml version=""1.0""?>\n<Clock xmlns:dt=""urn:schemas-microsoft-com:datatypes""><Description dt:dt=""string"">E-Prime Primary Realtime Clock</Description><StartTime><Timestamp dt:dt=""int"">0</Timestamp><DateUtc dt:dt=""string"">2018-10-24T17:53:03Z</DateUtc></StartTime><FrequencyChanges><FrequencyChange><Frequency dt:dt=""r8"">3215273</Frequency><Timestamp dt:dt=""r8"">1307687993956</Timestamp><Current dt:dt=""r8"">0</Current><DateUtc dt:dt=""string"">2018-10-24T17:53:03Z</DateUtc></FrequencyChange></FrequencyChanges></Clock>\n",KW_Experiment5A-41-1,59.946,1.0.0.105,2,2018553314,Professional,2.0.10.353,2.0.10.353,10/24/2018,10/24/2018 17:53,13:53:04,2.0.10.248,2,2,1,2,,,,,,,,TrainingProc,BlockList,21,2,Distractor2.bmp,2,0,,0,1,136461,501,,0,0,purple,500,2,500,,horizontal,purple,Distractor2.bmp,red,Target2.bmp,blue,Distractor2.bmp,lime,Distractor1.bmp,cyan,Distractor2.bmp,yellow,Distractor1.bmp,,,,TrialProc,5,TrainingTrialList,1,2,-999999,1,136962,0,2,694,137656,Target2.bmp,red,2,,,,8,2,21
KW_Experiment5A,41,1,"<?xml version=""1.0""?>\n<Clock xmlns:dt=""urn:schemas-microsoft-com:datatypes""><Description dt:dt=""string"">E-Prime Primary Realtime Clock</Description><StartTime><Timestamp dt:dt=""int"">0</Timestamp><DateUtc dt:dt=""string"">2018-10-24T17:53:03Z</DateUtc></StartTime><FrequencyChanges><FrequencyChange><Frequency dt:dt=""r8"">3215273</Frequency><Timestamp dt:dt=""r8"">1307687993956</Timestamp><Current dt:dt=""r8"">0</Current><DateUtc dt:dt=""string"">2018-10-24T17:53:03Z</DateUtc></FrequencyChange></FrequencyChanges></Clock>\n",KW_Experiment5A-41-1,59.946,1.0.0.105,2,2018553314,Professional,2.0.10.353,2.0.10.353,10/24/2018,10/24/2018 17:53,13:53:04,2.0.10.248,2,2,1,2,,,,,,,,TrainingProc,BlockList,22,2,Distractor1.bmp,1,0,,0,1,138680,400,,0,0,cyan,400,1,400,,horizontal,cyan,Distractor1.bmp,lime,Distractor2.bmp,red,Target2.bmp,blue,Distractor1.bmp,yellow,Distractor2.bmp,purple,Distractor1.bmp,,,,TrialProc,4,TrainingTrialList,1,2,-999999,0,139080,0,2,720,139800,Target2.bmp,red,2,,,,9,2,22
KW_Experiment5A,41,1,"<?xml version=""1.0""?>\n<Clock xmlns:dt=""urn:schemas-microsoft-com:datatypes""><Description dt:dt=""string"">E-Prime Primary Realtime Clock</Description><StartTime><Timestamp dt:dt=""int"">0</Timestamp><DateUtc dt:dt=""string"">2018-10-24T17:53:03Z</DateUtc></StartTime><FrequencyChanges><FrequencyChange><Frequency dt:dt=""r8"">3215273</Frequency><Timestamp dt:dt=""r8"">1307687993956</Timestamp><Current dt:dt=""r8"">0</Current><DateUtc dt:dt=""string"">2018-10-24T17:53:03Z</DateUtc></FrequencyChange></FrequencyChanges></Clock>\n",KW_Experiment5A-41-1,59.946,1.0.0.105,2,2018553314,Professional,2.0.10.353,2.0.10.353,10/24/2018,10/24/2018 17:53,13:53:04,2.0.10.248,2,2,1,2,,,,,,,,TrainingProc,BlockList,23,1,Distractor1.bmp,1,0,,0,1,140815,601,,0,0,blue,600,3,600,,vertical,blue,Distractor1.bmp,yellow,Distractor1.bmp,lime,Distractor1.bmp,cyan,Distractor1.bmp,red,Target1.bmp,purple,Distractor1.bmp,,,,TrialProc,3,TrainingTrialList,1,1,-999999,1,141416,0,1,632,142048,Target1.bmp,red,1,,,,11,2,23
KW_Experiment5A,41,1,"<?xml version=""1.0""?>\n<Clock xmlns:dt=""urn:schemas-microsoft-com:datatypes""><Description dt:dt=""string"">E-Prime Primary Realtime Clock</Description><StartTime><Timestamp dt:dt=""int"">0</Timestamp><DateUtc dt:dt=""string"">2018-10-24T17:53:03Z</DateUtc></StartTime><FrequencyChanges><FrequencyChange><Frequency dt:dt=""r8"">3215273</Frequency><Timestamp dt:dt=""r8"">1307687993956</Timestamp><Current dt:dt=""r8"">0</Current><DateUtc dt:dt=""string"">2018-10-24T17:53:03Z</DateUtc></FrequencyChange></FrequencyChanges></Clock>\n",KW_Experiment5A-41-1,59.946,1.0.0.105,2,2018553314,Professional,2.0.10.353,2.0.10.353,10/24/2018,10/24/2018 17:53,13:53:04,2.0.10.248,2,2,1,2,,,,,,,,TrainingProc,BlockList,24,1,Distractor2.bmp,2,0,,0,1,143067,401,,0,0,blue,400,1,400,,vertical,blue,Distractor2.bmp,yellow,Distractor2.bmp,purple,Distractor2.bmp,cyan,Distractor2.bmp,lime,Distractor1.bmp,red,Target1.bmp,,,,TrialProc,3,TrainingTrialList,1,1,-999999,1,143468,0,1,644,144112,Target1.bmp,red,1,,,,12,2,24
KW_Experiment5A,41,1,"<?xml version=""1.0""?>\n<Clock xmlns:dt=""urn:schemas-microsoft-com:datatypes""><Description dt:dt=""string"">E-Prime Primary Realtime Clock</Description><StartTime><Timestamp dt:dt=""int"">0</Timestamp><DateUtc dt:dt=""string"">2018-10-24T17:53:03Z</DateUtc></StartTime><FrequencyChanges><FrequencyChange><Frequency dt:dt=""r8"">3215273</Frequency><Timestamp dt:dt=""r8"">1307687993956</Timestamp><Current dt:dt=""r8"">0</Current><DateUtc dt:dt=""string"">2018-10-24T17:53:03Z</DateUtc></FrequencyChange></FrequencyChanges></Clock>\n",KW_Experiment5A-41-1,59.946,1.0.0.105,2,2018553314,Professional,2.0.10.353,2.0.10.353,10/24/2018,10/24/2018 17:53,13:53:04,2.0.10.248,2,2,1,2,,,,,,,,TrainingProc,BlockList,25,1,Distractor2.bmp,2,0,,0,1,145136,500,,0,0,purple,500,2,500,,vertical,red,Target1.bmp,yellow,Distractor2.bmp,cyan,Distractor1.bmp,lime,Distractor1.bmp,blue,Distractor2.bmp,purple,Distractor1.bmp,,,,TrialProc,5,TrainingTrialList,1,1,-999999,0,145636,0,1,596,146232,Target1.bmp,red,1,,,,7,3,25
KW_Experiment5A,41,1,"<?xml version=""1.0""?>\n<Clock xmlns:dt=""urn:schemas-microsoft-com:datatypes""><Description dt:dt=""string"">E-Prime Primary Realtime Clock</Description><StartTime><Timestamp dt:dt=""int"">0</Timestamp><DateUtc dt:dt=""string"">2018-10-24T17:53:03Z</DateUtc></StartTime><FrequencyChanges><FrequencyChange><Frequency dt:dt=""r8"">3215273</Frequency><Timestamp dt:dt=""r8"">1307687993956</Timestamp><Current dt:dt=""r8"">0</Current><DateUtc dt:dt=""string"">2018-10-24T17:53:03Z</DateUtc></FrequencyChange></FrequencyChanges></Clock>\n",KW_Experiment5A-41-1,59.946,1.0.0.105,2,2018553314,Professional,2.0.10.353,2.0.10.353,10/24/2018,10/24/2018 17:53,13:53:04,2.0.10.248,2,2,1,2,,,,,,,,TrainingProc,BlockList,26,2,Distractor2.bmp,2,0,,0,1,147254,401,,0,0,purple,400,1,400,,horizontal,purple,Distractor1.bmp,blue,Distractor2.bmp,red,Target2.bmp,lime,Distractor2.bmp,cyan,Distractor2.bmp,yellow,Distractor2.bmp,,,,TrialProc,5,TrainingTrialList,1,2,-999999,1,147655,0,2,433,148088,Target2.bmp,red,2,,,,9,3,26
KW_Experiment5A,41,1,"<?xml version=""1.0""?>\n<Clock xmlns:dt=""urn:schemas-microsoft-com:datatypes""><Description dt:dt=""string"">E-Prime Primary Realtime Clock</Description><StartTime><Timestamp dt:dt=""int"">0</Timestamp><DateUtc dt:dt=""string"">2018-10-24T17:53:03Z</DateUtc></StartTime><FrequencyChanges><FrequencyChange><Frequency dt:dt=""r8"">3215273</Frequency><Timestamp dt:dt=""r8"">1307687993956</Timestamp><Current dt:dt=""r8"">0</Current><DateUtc dt:dt=""string"">2018-10-24T17:53:03Z</DateUtc></FrequencyChange></FrequencyChanges></Clock>\n",KW_Experiment5A-41-1,59.946,1.0.0.105,2,2018553314,Professional,2.0.10.353,2.0.10.353,10/24/2018,10/24/2018 17:53,13:53:04,2.0.10.248,2,2,1,2,,,,,,,,TrainingProc,BlockList,27,2,Distractor2.bmp,2,0,,0,1,149106,400,,0,0,lime,400,1,400,,horizontal,lime,Distractor2.bmp,cyan,Distractor1.bmp,red,Target2.bmp,yellow,Distractor2.bmp,blue,Distractor1.bmp,purple,Distractor1.bmp,,,,TrialProc,6,TrainingTrialList,1,2,-999999,0,149506,0,2,374,149880,Target2.bmp,red,2,,,,9,3,27
KW_Experiment5A,41,1,"<?xml version=""1.0""?>\n<Clock xmlns:dt=""urn:schemas-microsoft-com:datatypes""><Description dt:dt=""string"">E-Prime Primary Realtime Clock</Description><StartTime><Timestamp dt:dt=""int"">0</Timestamp><DateUtc dt:dt=""string"">2018-10-24T17:53:03Z</DateUtc></StartTime><FrequencyChanges><FrequencyChange><Frequency dt:dt=""r8"">3215273</Frequency><Timestamp dt:dt=""r8"">1307687993956</Timestamp><Current dt:dt=""r8"">0</Current><DateUtc dt:dt=""string"">2018-10-24T17:53:03Z</DateUtc></FrequencyChange></FrequencyChanges></Clock>\n",KW_Experiment5A-41-1,59.946,1.0.0.105,2,2018553314,Professional,2.0.10.353,2.0.10.353,10/24/2018,10/24/2018 17:53,13:53:04,2.0.10.248,2,2,1,2,,,,,,,,TrainingProc,BlockList,28,1,Distractor1.bmp,1,0,,0,1,150891,400,,0,0,yellow,400,1,400,,vertical,yellow,Distractor1.bmp,lime,Distractor2.bmp,purple,Distractor1.bmp,blue,Distractor2.bmp,cyan,Distractor2.bmp,red,Target1.bmp,,,,TrialProc,2,TrainingTrialList,1,1,-999999,0,151291,0,1,605,151896,Target1.bmp,red,1,,,,12,3,28
KW_Experiment5A,41,1,"<?xml version=""1.0""?>\n<Clock xmlns:dt=""urn:schemas-microsoft-com:datatypes""><Description dt:dt=""string"">E-Prime Primary Realtime Clock</Description><StartTime><Timestamp dt:dt=""int"">0</Timestamp><DateUtc dt:dt=""string"">2018-10-24T17:53:03Z</DateUtc></StartTime><FrequencyChanges><FrequencyChange><Frequency dt:dt=""r8"">3215273</Frequency><Timestamp dt:dt=""r8"">1307687993956</Timestamp><Current dt:dt=""r8"">0</Current><DateUtc dt:dt=""string"">2018-10-24T17:53:03Z</DateUtc></FrequencyChange></FrequencyChanges></Clock>\n",KW_Experiment5A-41-1,59.946,1.0.0.105,2,2018553314,Professional,2.0.10.353,2.0.10.353,10/24/2018,10/24/2018 17:53,13:53:04,2.0.10.248,2,2,1,2,,,,,,,,TrainingProc,BlockList,29,1,Distractor2.bmp,2,0,,1,0,152909,401,,0,0,purple,400,1,400,,vertical,red,Target1.bmp,yellow,Distractor2.bmp,lime,Distractor2.bmp,blue,Distractor1.bmp,cyan,Distractor2.bmp,purple,Distractor2.bmp,,,,TrialProc,5,TrainingTrialList,0,1,-999999,1,153310,0,2,506,153816,Target1.bmp,red,1,,,,7,3,29
KW_Experiment5A,41,1,"<?xml version=""1.0""?>\n<Clock xmlns:dt=""urn:schemas-microsoft-com:datatypes""><Description dt:dt=""string"">E-Prime Primary Realtime Clock</Description><StartTime><Timestamp dt:dt=""int"">0</Timestamp><DateUtc dt:dt=""string"">2018-10-24T17:53:03Z</DateUtc></StartTime><FrequencyChanges><FrequencyChange><Frequency dt:dt=""r8"">3215273</Frequency><Timestamp dt:dt=""r8"">1307687993956</Timestamp><Current dt:dt=""r8"">0</Current><DateUtc dt:dt=""string"">2018-10-24T17:53:03Z</DateUtc></FrequencyChange></FrequencyChanges></Clock>\n",KW_Experiment5A-41-1,59.946,1.0.0.105,2,2018553314,Professional,2.0.10.353,2.0.10.353,10/24/2018,10/24/2018 17:53,13:53:04,2.0.10.248,2,2,1,2,,,,,,,,TrainingProc,BlockList,30,1,Distractor2.bmp,2,0,,0,1,154828,400,,0,0,yellow,400,1,400,,vertical,yellow,Distractor2.bmp,red,Target1.bmp,purple,Distractor2.bmp,lime,Distractor2.bmp,cyan,Distractor1.bmp,blue,Distractor1.bmp,,,,TrialProc,2,TrainingTrialList,1,1,-999999,0,155228,0,1,580,155808,Target1.bmp,red,1,,,,8,3,30
KW_Experiment5A,41,1,"<?xml version=""1.0""?>\n<Clock xmlns:dt=""urn:schemas-microsoft-com:datatypes""><Description dt:dt=""string"">E-Prime Primary Realtime Clock</Description><StartTime><Timestamp dt:dt=""int"">0</Timestamp><DateUtc dt:dt=""string"">2018-10-24T17:53:03Z</DateUtc></StartTime><FrequencyChanges><FrequencyChange><Frequency dt:dt=""r8"">3215273</Frequency><Timestamp dt:dt=""r8"">1307687993956</Timestamp><Current dt:dt=""r8"">0</Current><DateUtc dt:dt=""string"">2018-10-24T17:53:03Z</DateUtc></FrequencyChange></FrequencyChanges></Clock>\n",KW_Experiment5A-41-1,59.946,1.0.0.105,2,2018553314,Professional,2.0.10.353,2.0.10.353,10/24/2018,10/24/2018 17:53,13:53:04,2.0.10.248,2,2,1,2,,,,,,,,TrainingProc,BlockList,31,1,Distractor1.bmp,1,0,,0,1,156830,400,,0,0,red,400,1,400,1,vertical,red,Distractor1.bmp,cyan,Distractor1.bmp,purple,Distractor2.bmp,lime,Target1.bmp,yellow,Distractor1.bmp,blue,Distractor2.bmp,,,,TrialProc,,TrainingTrialList,1,1,-999999,0,157230,0,1,602,157832,Target1.bmp,lime,1,,,,4,3,31
KW_Experiment5A,41,1,"<?xml version=""1.0""?>\n<Clock xmlns:dt=""urn:schemas-microsoft-com:datatypes""><Description dt:dt=""string"">E-Prime Primary Realtime Clock</Description><StartTime><Timestamp dt:dt=""int"">0</Timestamp><DateUtc dt:dt=""string"">2018-10-24T17:53:03Z</DateUtc></StartTime><FrequencyChanges><FrequencyChange><Frequency dt:dt=""r8"">3215273</Frequency><Timestamp dt:dt=""r8"">1307687993956</Timestamp><Current dt:dt=""r8"">0</Current><DateUtc dt:dt=""string"">2018-10-24T17:53:03Z</DateUtc></FrequencyChange></FrequencyChanges></Clock>\n",KW_Experiment5A-41-1,59.946,1.0.0.105,2,2018553314,Professional,2.0.10.353,2.0.10.353,10/24/2018,10/24/2018 17:53,13:53:04,2.0.10.248,2,2,1,2,,,,,,,,TrainingProc,BlockList,32,1,Distractor2.bmp,2,0,,0,1,158848,601,,0,0,purple,600,3,600,5,vertical,purple,Distractor2.bmp,yellow,Distractor2.bmp,cyan,Distractor1.bmp,blue,Distractor1.bmp,lime,Target1.bmp,red,Distractor2.bmp,,,,TrialProc,,TrainingTrialList,1,1,-999999,1,159449,0,1,647,160096,Target1.bmp,lime,1,,,,5,3,32
KW_Experiment5A,41,1,"<?xml version=""1.0""?>\n<Clock xmlns:dt=""urn:schemas-microsoft-com:datatypes""><Description dt:dt=""string"">E-Prime Primary Realtime Clock</Description><StartTime><Timestamp dt:dt=""int"">0</Timestamp><DateUtc dt:dt=""string"">2018-10-24T17:53:03Z</DateUtc></StartTime><FrequencyChanges><FrequencyChange><Frequency dt:dt=""r8"">3215273</Frequency><Timestamp dt:dt=""r8"">1307687993956</Timestamp><Current dt:dt=""r8"">0</Current><DateUtc dt:dt=""string"">2018-10-24T17:53:03Z</DateUtc></FrequencyChange></FrequencyChanges></Clock>\n",KW_Experiment5A-41-1,59.946,1.0.0.105,2,2018553314,Professional,2.0.10.353,2.0.10.353,10/24/2018,10/24/2018 17:53,13:53:04,2.0.10.248,2,2,1,2,,,,,,,,TrainingProc,BlockList,33,1,Distractor1.bmp,1,0,,0,1,161117,400,,0,0,yellow,400,1,400,,vertical,yellow,Distractor1.bmp,red,Target1.bmp,purple,Distractor1.bmp,lime,Distractor2.bmp,cyan,Distractor1.bmp,blue,Distractor2.bmp,,,,TrialProc,2,TrainingTrialList,0,1,-999999,0,161517,0,2,499,162016,Target1.bmp,red,1,,,,8,3,33
KW_Experiment5A,41,1,"<?xml version=""1.0""?>\n<Clock xmlns:dt=""urn:schemas-microsoft-com:datatypes""><Description dt:dt=""string"">E-Prime Primary Realtime Clock</Description><StartTime><Timestamp dt:dt=""int"">0</Timestamp><DateUtc dt:dt=""string"">2018-10-24T17:53:03Z</DateUtc></StartTime><FrequencyChanges><FrequencyChange><Frequency dt:dt=""r8"">3215273</Frequency><Timestamp dt:dt=""r8"">1307687993956</Timestamp><Current dt:dt=""r8"">0</Current><DateUtc dt:dt=""string"">2018-10-24T17:53:03Z</DateUtc></FrequencyChange></FrequencyChanges></Clock>\n",KW_Experiment5A-41-1,59.946,1.0.0.105,2,2018553314,Professional,2.0.10.353,2.0.10.353,10/24/2018,10/24/2018 17:53,13:53:04,2.0.10.248,2,2,1,2,,,,,,,,TrainingProc,BlockList,34,1,Distractor2.bmp,2,0,,0,1,163035,501,,0,0,purple,500,2,500,5,vertical,lime,Target1.bmp,purple,Distractor2.bmp,blue,Distractor2.bmp,red,Distractor1.bmp,cyan,Distractor1.bmp,yellow,Distractor1.bmp,,,,TrialProc,,TrainingTrialList,1,1,-999999,1,163536,0,1,656,164192,Target1.bmp,lime,1,,,,1,3,34
KW_Experiment5A,41,1,"<?xml version=""1.0""?>\n<Clock xmlns:dt=""urn:schemas-microsoft-com:datatypes""><Description dt:dt=""string"">E-Prime Primary Realtime Clock</Description><StartTime><Timestamp dt:dt=""int"">0</Timestamp><DateUtc dt:dt=""string"">2018-10-24T17:53:03Z</DateUtc></StartTime><FrequencyChanges><FrequencyChange><Frequency dt:dt=""r8"">3215273</Frequency><Timestamp dt:dt=""r8"">1307687993956</Timestamp><Current dt:dt=""r8"">0</Current><DateUtc dt:dt=""string"">2018-10-24T17:53:03Z</DateUtc></FrequencyChange></FrequencyChanges></Clock>\n",KW_Experiment5A-41-1,59.946,1.0.0.105,2,2018553314,Professional,2.0.10.353,2.0.10.353,10/24/2018,10/24/2018 17:53,13:53:04,2.0.10.248,2,2,1,2,,,,,,,,TrainingProc,BlockList,35,1,Distractor1.bmp,1,0,,0,1,165204,500,,0,0,blue,500,2,500,,vertical,blue,Distractor1.bmp,lime,Distractor2.bmp,cyan,Distractor1.bmp,red,Target1.bmp,yellow,Distractor1.bmp,purple,Distractor2.bmp,,,,TrialProc,3,TrainingTrialList,1,1,-999999,0,165704,0,1,544,166248,Target1.bmp,red,1,,,,10,3,35
KW_Experiment5A,41,1,"<?xml version=""1.0""?>\n<Clock xmlns:dt=""urn:schemas-microsoft-com:datatypes""><Description dt:dt=""string"">E-Prime Primary Realtime Clock</Description><StartTime><Timestamp dt:dt=""int"">0</Timestamp><DateUtc dt:dt=""string"">2018-10-24T17:53:03Z</DateUtc></StartTime><FrequencyChanges><FrequencyChange><Frequency dt:dt=""r8"">3215273</Frequency><Timestamp dt:dt=""r8"">1307687993956</Timestamp><Current dt:dt=""r8"">0</Current><DateUtc dt:dt=""string"">2018-10-24T17:53:03Z</DateUtc></FrequencyChange></FrequencyChanges></Clock>\n",KW_Experiment5A-41-1,59.946,1.0.0.105,2,2018553314,Professional,2.0.10.353,2.0.10.353,10/24/2018,10/24/2018 17:53,13:53:04,2.0.10.248,2,2,1,2,,,,,,,,TrainingProc,BlockList,36,1,Distractor2.bmp,2,0,,0,1,167273,400,,0,0,blue,400,1,400,,vertical,blue,Distractor1.bmp,red,Target1.bmp,purple,Distractor2.bmp,cyan,Distractor2.bmp,lime,Distractor1.bmp,yellow,Distractor1.bmp,,,,TrialProc,3,TrainingTrialList,1,1,-999999,0,167673,0,1,551,168224,Target1.bmp,red,1,,,,8,3,36
KW_Experiment5A,41,1,"<?xml version=""1.0""?>\n<Clock xmlns:dt=""urn:schemas-microsoft-com:datatypes""><Description dt:dt=""string"">E-Prime Primary Realtime Clock</Description><StartTime><Timestamp dt:dt=""int"">0</Timestamp><DateUtc dt:dt=""string"">2018-10-24T17:53:03Z</DateUtc></StartTime><FrequencyChanges><FrequencyChange><Frequency dt:dt=""r8"">3215273</Frequency><Timestamp dt:dt=""r8"">1307687993956</Timestamp><Current dt:dt=""r8"">0</Current><DateUtc dt:dt=""string"">2018-10-24T17:53:03Z</DateUtc></FrequencyChange></FrequencyChanges></Clock>\n",KW_Experiment5A-41-1,59.946,1.0.0.105,2,2018553314,Professional,2.0.10.353,2.0.10.353,10/24/2018,10/24/2018 17:53,13:53:04,2.0.10.248,2,2,1,2,,,,,,,,TrainingProc,BlockList,37,2,Distractor2.bmp,2,0,,0,1,169241,400,,0,0,purple,400,1,400,,horizontal,purple,Distractor1.bmp,blue,Distractor2.bmp,red,Target2.bmp,lime,Distractor2.bmp,cyan,Distractor1.bmp,yellow,Distractor2.bmp,,,,TrialProc,5,TrainingTrialList,0,2,-999999,0,169641,0,1,543,170184,Target2.bmp,red,2,,,,9,3,37
KW_Experiment5A,41,1,"<?xml version=""1.0""?>\n<Clock xmlns:dt=""urn:schemas-microsoft-com:datatypes""><Description dt:dt=""string"">E-Prime Primary Realtime Clock</Description><StartTime><Timestamp dt:dt=""int"">0</Timestamp><DateUtc dt:dt=""string"">2018-10-24T17:53:03Z</DateUtc></StartTime><FrequencyChanges><FrequencyChange><Frequency dt:dt=""r8"">3215273</Frequency><Timestamp dt:dt=""r8"">1307687993956</Timestamp><Current dt:dt=""r8"">0</Current><DateUtc dt:dt=""string"">2018-10-24T17:53:03Z</DateUtc></FrequencyChange></FrequencyChanges></Clock>\n",KW_Experiment5A-41-1,59.946,1.0.0.105,2,2018553314,Professional,2.0.10.353,2.0.10.353,10/24/2018,10/24/2018 17:53,13:53:04,2.0.10.248,2,2,1,2,,,,,,,,TrainingProc,BlockList,38,2,Distractor1.bmp,1,0,,0,1,171210,500,,0,0,purple,500,2,500,,horizontal,purple,Distractor1.bmp,lime,Distractor1.bmp,blue,Distractor2.bmp,cyan,Distractor2.bmp,yellow,Distractor2.bmp,red,Target2.bmp,,,,TrialProc,5,TrainingTrialList,1,2,-999999,0,171710,0,2,546,172256,Target2.bmp,red,2,,,,12,3,38
KW_Experiment5A,41,1,"<?xml version=""1.0""?>\n<Clock xmlns:dt=""urn:schemas-microsoft-com:datatypes""><Description dt:dt=""string"">E-Prime Primary Realtime Clock</Description><StartTime><Timestamp dt:dt=""int"">0</Timestamp><DateUtc dt:dt=""string"">2018-10-24T17:53:03Z</DateUtc></StartTime><FrequencyChanges><FrequencyChange><Frequency dt:dt=""r8"">3215273</Frequency><Timestamp dt:dt=""r8"">1307687993956</Timestamp><Current dt:dt=""r8"">0</Current><DateUtc dt:dt=""string"">2018-10-24T17:53:03Z</DateUtc></FrequencyChange></FrequencyChanges></Clock>\n",KW_Experiment5A-41-1,59.946,1.0.0.105,2,2018553314,Professional,2.0.10.353,2.0.10.353,10/24/2018,10/24/2018 17:53,13:53:04,2.0.10.248,2,2,1,2,,,,,,,,TrainingProc,BlockList,39,2,Distractor1.bmp,1,0,,0,1,173278,400,,0,0,cyan,400,1,400,,horizontal,cyan,Distractor1.bmp,purple,Distractor2.bmp,blue,Distractor1.bmp,red,Target2.bmp,yellow,Distractor1.bmp,lime,Distractor1.bmp,,,,TrialProc,4,TrainingTrialList,1,2,-999999,0,173678,0,2,498,174176,Target2.bmp,red,2,,,,10,3,39
KW_Experiment5A,41,1,"<?xml version=""1.0""?>\n<Clock xmlns:dt=""urn:schemas-microsoft-com:datatypes""><Description dt:dt=""string"">E-Prime Primary Realtime Clock</Description><StartTime><Timestamp dt:dt=""int"">0</Timestamp><DateUtc dt:dt=""string"">2018-10-24T17:53:03Z</DateUtc></StartTime><FrequencyChanges><FrequencyChange><Frequency dt:dt=""r8"">3215273</Frequency><Timestamp dt:dt=""r8"">1307687993956</Timestamp><Current dt:dt=""r8"">0</Current><DateUtc dt:dt=""string"">2018-10-24T17:53:03Z</DateUtc></FrequencyChange></FrequencyChanges></Clock>\n",KW_Experiment5A-41-1,59.946,1.0.0.105,2,2018553314,Professional,2.0.10.353,2.0.10.353,10/24/2018,10/24/2018 17:53,13:53:04,2.0.10.248,2,2,1,2,,,,,,,,TrainingProc,BlockList,40,2,Distractor2.bmp,2,0,,0,1,175197,600,,0,0,purple,600,3,600,,horizontal,red,Target2.bmp,yellow,Distractor2.bmp,lime,Distractor2.bmp,cyan,Distractor2.bmp,blue,Distractor2.bmp,purple,Distractor2.bmp,,,,TrialProc,5,TrainingTrialList,1,2,-999999,0,175797,0,2,531,176328,Target2.bmp,red,2,,,,7,3,40
KW_Experiment5A,41,1,"<?xml version=""1.0""?>\n<Clock xmlns:dt=""urn:schemas-microsoft-com:datatypes""><Description dt:dt=""string"">E-Prime Primary Realtime Clock</Description><StartTime><Timestamp dt:dt=""int"">0</Timestamp><DateUtc dt:dt=""string"">2018-10-24T17:53:03Z</DateUtc></StartTime><FrequencyChanges><FrequencyChange><Frequency dt:dt=""r8"">3215273</Frequency><Timestamp dt:dt=""r8"">1307687993956</Timestamp><Current dt:dt=""r8"">0</Current><DateUtc dt:dt=""string"">2018-10-24T17:53:03Z</DateUtc></FrequencyChange></FrequencyChanges></Clock>\n",KW_Experiment5A-41-1,59.946,1.0.0.105,2,2018553314,Professional,2.0.10.353,2.0.10.353,10/24/2018,10/24/2018 17:53,13:53:04,2.0.10.248,2,2,1,2,,,,,,,,TrainingProc,BlockList,41,2,Distractor2.bmp,2,0,,1,0,177348,501,,0,0,blue,500,2,500,,horizontal,blue,Distractor1.bmp,cyan,Distractor2.bmp,yellow,Distractor1.bmp,purple,Distractor2.bmp,red,Target2.bmp,lime,Distractor2.bmp,,,,TrialProc,3,TrainingTrialList,1,2,-999999,1,177849,0,2,559,178408,Target2.bmp,red,2,,,,11,3,41
KW_Experiment5A,41,1,"<?xml version=""1.0""?>\n<Clock xmlns:dt=""urn:schemas-microsoft-com:datatypes""><Description dt:dt=""string"">E-Prime Primary Realtime Clock</Description><StartTime><Timestamp dt:dt=""int"">0</Timestamp><DateUtc dt:dt=""string"">2018-10-24T17:53:03Z</DateUtc></StartTime><FrequencyChanges><FrequencyChange><Frequency dt:dt=""r8"">3215273</Frequency><Timestamp dt:dt=""r8"">1307687993956</Timestamp><Current dt:dt=""r8"">0</Current><DateUtc dt:dt=""string"">2018-10-24T17:53:03Z</DateUtc></FrequencyChange></FrequencyChanges></Clock>\n",KW_Experiment5A-41-1,59.946,1.0.0.105,2,2018553314,Professional,2.0.10.353,2.0.10.353,10/24/2018,10/24/2018 17:53,13:53:04,2.0.10.248,2,2,1,2,,,,,,,,TrainingProc,BlockList,42,2,Distractor2.bmp,2,0,,0,1,179417,601,,0,0,purple,600,3,600,5,horizontal,purple,Distractor2.bmp,yellow,Distractor1.bmp,blue,Distractor1.bmp,red,Distractor1.bmp,cyan,Distractor2.bmp,lime,Target2.bmp,,,,TrialProc,,TrainingTrialList,1,2,-999999,1,180018,0,2,614,180632,Target2.bmp,lime,2,,,,6,3,42
KW_Experiment5A,41,1,"<?xml version=""1.0""?>\n<Clock xmlns:dt=""urn:schemas-microsoft-com:datatypes""><Description dt:dt=""string"">E-Prime Primary Realtime Clock</Description><StartTime><Timestamp dt:dt=""int"">0</Timestamp><DateUtc dt:dt=""string"">2018-10-24T17:53:03Z</DateUtc></StartTime><FrequencyChanges><FrequencyChange><Frequency dt:dt=""r8"">3215273</Frequency><Timestamp dt:dt=""r8"">1307687993956</Timestamp><Current dt:dt=""r8"">0</Current><DateUtc dt:dt=""string"">2018-10-24T17:53:03Z</DateUtc></FrequencyChange></FrequencyChanges></Clock>\n",KW_Experiment5A-41-1,59.946,1.0.0.105,2,2018553314,Professional,2.0.10.353,2.0.10.353,10/24/2018,10/24/2018 17:53,13:53:04,2.0.10.248,2,2,1,2,,,,,,,,TrainingProc,BlockList,43,2,Distractor2.bmp,2,0,,1,0,181652,401,,0,0,purple,400,1,400,5,horizontal,purple,Distractor2.bmp,yellow,Distractor2.bmp,lime,Target2.bmp,cyan,Distractor2.bmp,red,Distractor2.bmp,blue,Distractor1.bmp,,,,TrialProc,,TrainingTrialList,1,2,-999999,1,182053,0,2,635,182688,Target2.bmp,lime,2,,,,3,3,43
KW_Experiment5A,41,1,"<?xml version=""1.0""?>\n<Clock xmlns:dt=""urn:schemas-microsoft-com:datatypes""><Description dt:dt=""string"">E-Prime Primary Realtime Clock</Description><StartTime><Timestamp dt:dt=""int"">0</Timestamp><DateUtc dt:dt=""string"">2018-10-24T17:53:03Z</DateUtc></StartTime><FrequencyChanges><FrequencyChange><Frequency dt:dt=""r8"">3215273</Frequency><Timestamp dt:dt=""r8"">1307687993956</Timestamp><Current dt:dt=""r8"">0</Current><DateUtc dt:dt=""string"">2018-10-24T17:53:03Z</DateUtc></FrequencyChange></FrequencyChanges></Clock>\n",KW_Experiment5A-41-1,59.946,1.0.0.105,2,2018553314,Professional,2.0.10.353,2.0.10.353,10/24/2018,10/24/2018 17:53,13:53:04,2.0.10.248,2,2,1,2,,,,,,,,TrainingProc,BlockList,44,1,Distractor2.bmp,2,0,,0,1,183704,601,,0,0,yellow,600,3,600,,vertical,yellow,Distractor2.bmp,blue,Distractor2.bmp,lime,Distractor2.bmp,purple,Distractor2.bmp,cyan,Distractor1.bmp,red,Target1.bmp,,,,TrialProc,2,TrainingTrialList,1,1,-999999,1,184305,0,1,631,184936,Target1.bmp,red,1,,,,12,3,44
KW_Experiment5A,41,1,"<?xml version=""1.0""?>\n<Clock xmlns:dt=""urn:schemas-microsoft-com:datatypes""><Description dt:dt=""string"">E-Prime Primary Realtime Clock</Description><StartTime><Timestamp dt:dt=""int"">0</Timestamp><DateUtc dt:dt=""string"">2018-10-24T17:53:03Z</DateUtc></StartTime><FrequencyChanges><FrequencyChange><Frequency dt:dt=""r8"">3215273</Frequency><Timestamp dt:dt=""r8"">1307687993956</Timestamp><Current dt:dt=""r8"">0</Current><DateUtc dt:dt=""string"">2018-10-24T17:53:03Z</DateUtc></FrequencyChange></FrequencyChanges></Clock>\n",KW_Experiment5A-41-1,59.946,1.0.0.105,2,2018553314,Professional,2.0.10.353,2.0.10.353,10/24/2018,10/24/2018 17:53,13:53:04,2.0.10.248,2,2,1,2,,,,,,,,TrainingProc,BlockList,45,2,Distractor1.bmp,1,0,,0,1,185956,401,,0,0,cyan,400,1,400,4,horizontal,cyan,Distractor2.bmp,lime,Target2.bmp,red,Distractor1.bmp,blue,Distractor1.bmp,yellow,Distractor1.bmp,purple,Distractor2.bmp,,,,TrialProc,,TrainingTrialList,1,2,-999999,1,186357,0,2,602,186959,Target2.bmp,lime,2,,,,2,3,45
KW_Experiment5A,41,1,"<?xml version=""1.0""?>\n<Clock xmlns:dt=""urn:schemas-microsoft-com:datatypes""><Description dt:dt=""string"">E-Prime Primary Realtime Clock</Description><StartTime><Timestamp dt:dt=""int"">0</Timestamp><DateUtc dt:dt=""string"">2018-10-24T17:53:03Z</DateUtc></StartTime><FrequencyChanges><FrequencyChange><Frequency dt:dt=""r8"">3215273</Frequency><Timestamp dt:dt=""r8"">1307687993956</Timestamp><Current dt:dt=""r8"">0</Current><DateUtc dt:dt=""string"">2018-10-24T17:53:03Z</DateUtc></FrequencyChange></FrequencyChanges></Clock>\n",KW_Experiment5A-41-1,59.946,1.0.0.105,2,2018553314,Professional,2.0.10.353,2.0.10.353,10/24/2018,10/24/2018 17:53,13:53:04,2.0.10.248,2,2,1,2,,,,,,,,TrainingProc,BlockList,46,1,Distractor2.bmp,2,0,,0,1,187975,500,,0,0,cyan,500,2,500,,vertical,cyan,Distractor2.bmp,blue,Distractor2.bmp,lime,Distractor1.bmp,red,Target1.bmp,yellow,Distractor2.bmp,purple,Distractor2.bmp,,,,TrialProc,4,TrainingTrialList,1,1,-999999,0,188475,0,1,1212,189687,Target1.bmp,red,1,,,,10,3,46
KW_Experiment5A,41,1,"<?xml version=""1.0""?>\n<Clock xmlns:dt=""urn:schemas-microsoft-com:datatypes""><Description dt:dt=""string"">E-Prime Primary Realtime Clock</Description><StartTime><Timestamp dt:dt=""int"">0</Timestamp><DateUtc dt:dt=""string"">2018-10-24T17:53:03Z</DateUtc></StartTime><FrequencyChanges><FrequencyChange><Frequency dt:dt=""r8"">3215273</Frequency><Timestamp dt:dt=""r8"">1307687993956</Timestamp><Current dt:dt=""r8"">0</Current><DateUtc dt:dt=""string"">2018-10-24T17:53:03Z</DateUtc></FrequencyChange></FrequencyChanges></Clock>\n",KW_Experiment5A-41-1,59.946,1.0.0.105,2,2018553314,Professional,2.0.10.353,2.0.10.353,10/24/2018,10/24/2018 17:53,13:53:04,2.0.10.248,2,2,1,2,,,,,,,,TrainingProc,BlockList,47,2,Distractor2.bmp,2,0,,0,1,190711,500,,0,0,cyan,500,2,500,,horizontal,cyan,Distractor1.bmp,blue,Distractor1.bmp,yellow,Distractor1.bmp,purple,Distractor1.bmp,red,Target2.bmp,lime,Distractor2.bmp,,,,TrialProc,4,TrainingTrialList,1,2,-999999,0,191211,0,2,660,191871,Target2.bmp,red,2,,,,11,3,47
KW_Experiment5A,41,1,"<?xml version=""1.0""?>\n<Clock xmlns:dt=""urn:schemas-microsoft-com:datatypes""><Description dt:dt=""string"">E-Prime Primary Realtime Clock</Description><StartTime><Timestamp dt:dt=""int"">0</Timestamp><DateUtc dt:dt=""string"">2018-10-24T17:53:03Z</DateUtc></StartTime><FrequencyChanges><FrequencyChange><Frequency dt:dt=""r8"">3215273</Frequency><Timestamp dt:dt=""r8"">1307687993956</Timestamp><Current dt:dt=""r8"">0</Current><DateUtc dt:dt=""string"">2018-10-24T17:53:03Z</DateUtc></FrequencyChange></FrequencyChanges></Clock>\n",KW_Experiment5A-41-1,59.946,1.0.0.105,2,2018553314,Professional,2.0.10.353,2.0.10.353,10/24/2018,10/24/2018 17:53,13:53:04,2.0.10.248,2,2,1,2,,,,,,,,TrainingProc,BlockList,48,2,Distractor2.bmp,2,0,,0,1,192896,400,,0,0,yellow,400,1,400,,horizontal,yellow,Distractor1.bmp,blue,Distractor2.bmp,cyan,Distractor2.bmp,purple,Distractor2.bmp,red,Target2.bmp,lime,Distractor2.bmp,,,,TrialProc,2,TrainingTrialList,1,2,-999999,0,193296,0,2,455,193751,Target2.bmp,red,2,,,,11,3,48
KW_Experiment5A,41,1,"<?xml version=""1.0""?>\n<Clock xmlns:dt=""urn:schemas-microsoft-com:datatypes""><Description dt:dt=""string"">E-Prime Primary Realtime Clock</Description><StartTime><Timestamp dt:dt=""int"">0</Timestamp><DateUtc dt:dt=""string"">2018-10-24T17:53:03Z</DateUtc></StartTime><FrequencyChanges><FrequencyChange><Frequency dt:dt=""r8"">3215273</Frequency><Timestamp dt:dt=""r8"">1307687993956</Timestamp><Current dt:dt=""r8"">0</Current><DateUtc dt:dt=""string"">2018-10-24T17:53:03Z</DateUtc></FrequencyChange></FrequencyChanges></Clock>\n",KW_Experiment5A-41-1,59.946,1.0.0.105,2,2018553314,Professional,2.0.10.353,2.0.10.353,10/24/2018,10/24/2018 17:53,13:53:04,2.0.10.248,3,2,1,3,,,,,,,,TrainingProc,BlockList,1,2,Distractor1.bmp,1,0,,0,27,197834,600,,0,0,cyan,600,3,600,,horizontal,cyan,Distractor1.bmp,lime,Distractor1.bmp,red,Target2.bmp,yellow,Distractor1.bmp,purple,Distractor2.bmp,blue,Distractor2.bmp,,,,TrialProc,4,TrainingTrialList,1,2,-999999,0,198434,0,2,597,199031,Target2.bmp,red,2,,,,9,4,49
KW_Experiment5A,41,1,"<?xml version=""1.0""?>\n<Clock xmlns:dt=""urn:schemas-microsoft-com:datatypes""><Description dt:dt=""string"">E-Prime Primary Realtime Clock</Description><StartTime><Timestamp dt:dt=""int"">0</Timestamp><DateUtc dt:dt=""string"">2018-10-24T17:53:03Z</DateUtc></StartTime><FrequencyChanges><FrequencyChange><Frequency dt:dt=""r8"">3215273</Frequency><Timestamp dt:dt=""r8"">1307687993956</Timestamp><Current dt:dt=""r8"">0</Current><DateUtc dt:dt=""string"">2018-10-24T17:53:03Z</DateUtc></FrequencyChange></FrequencyChanges></Clock>\n",KW_Experiment5A-41-1,59.946,1.0.0.105,2,2018553314,Professional,2.0.10.353,2.0.10.353,10/24/2018,10/24/2018 17:53,13:53:04,2.0.10.248,3,2,1,3,,,,,,,,TrainingProc,BlockList,2,2,Distractor2.bmp,2,0,,0,1,200053,600,,0,0,cyan,600,3,600,4,horizontal,lime,Target2.bmp,cyan,Distractor2.bmp,purple,Distractor2.bmp,red,Distractor1.bmp,yellow,Distractor1.bmp,blue,Distractor2.bmp,,,,TrialProc,,TrainingTrialList,1,2,-999999,0,200653,0,2,658,201311,Target2.bmp,lime,2,,,,1,4,50
KW_Experiment5A,41,1,"<?xml version=""1.0""?>\n<Clock xmlns:dt=""urn:schemas-microsoft-com:datatypes""><Description dt:dt=""string"">E-Prime Primary Realtime Clock</Description><StartTime><Timestamp dt:dt=""int"">0</Timestamp><DateUtc dt:dt=""string"">2018-10-24T17:53:03Z</DateUtc></StartTime><FrequencyChanges><FrequencyChange><Frequency dt:dt=""r8"">3215273</Frequency><Timestamp dt:dt=""r8"">1307687993956</Timestamp><Current dt:dt=""r8"">0</Current><DateUtc dt:dt=""string"">2018-10-24T17:53:03Z</DateUtc></FrequencyChange></FrequencyChanges></Clock>\n",KW_Experiment5A-41-1,59.946,1.0.0.105,2,2018553314,Professional,2.0.10.353,2.0.10.353,10/24/2018,10/24/2018 17:53,13:53:04,2.0.10.248,3,2,1,3,,,,,,,,TrainingProc,BlockList,3,1,Distractor2.bmp,2,0,,0,1,202321,601,,0,0,yellow,600,3,600,,vertical,red,Target1.bmp,purple,Distractor2.bmp,cyan,Distractor2.bmp,blue,Distractor2.bmp,lime,Distractor2.bmp,yellow,Distractor2.bmp,,,,TrialProc,2,TrainingTrialList,1,1,-999999,1,202922,0,1,557,203479,Target1.bmp,red,1,,,,7,4,51
KW_Experiment5A,41,1,"<?xml version=""1.0""?>\n<Clock xmlns:dt=""urn:schemas-microsoft-com:datatypes""><Description dt:dt=""string"">E-Prime Primary Realtime Clock</Description><StartTime><Timestamp dt:dt=""int"">0</Timestamp><DateUtc dt:dt=""string"">2018-10-24T17:53:03Z</DateUtc></StartTime><FrequencyChanges><FrequencyChange><Frequency dt:dt=""r8"">3215273</Frequency><Timestamp dt:dt=""r8"">1307687993956</Timestamp><Current dt:dt=""r8"">0</Current><DateUtc dt:dt=""string"">2018-10-24T17:53:03Z</DateUtc></FrequencyChange></FrequencyChanges></Clock>\n",KW_Experiment5A-41-1,59.946,1.0.0.105,2,2018553314,Professional,2.0.10.353,2.0.10.353,10/24/2018,10/24/2018 17:53,13:53:04,2.0.10.248,3,2,1,3,,,,,,,,TrainingProc,BlockList,4,1,Distractor1.bmp,1,0,,0,1,204490,601,,0,0,blue,600,3,600,3,vertical,blue,Distractor1.bmp,red,Distractor1.bmp,cyan,Distractor2.bmp,lime,Target1.bmp,yellow,Distractor1.bmp,purple,Distractor1.bmp,,,,TrialProc,,TrainingTrialList,1,1,-999999,1,205091,0,1,676,205767,Target1.bmp,lime,1,,,,4,4,52
KW_Experiment5A,41,1,"<?xml version=""1.0""?>\n<Clock xmlns:dt=""urn:schemas-microsoft-com:datatypes""><Description dt:dt=""string"">E-Prime Primary Realtime Clock</Description><StartTime><Timestamp dt:dt=""int"">0</Timestamp><DateUtc dt:dt=""string"">2018-10-24T17:53:03Z</DateUtc></StartTime><FrequencyChanges><FrequencyChange><Frequency dt:dt=""r8"">3215273</Frequency><Timestamp dt:dt=""r8"">1307687993956</Timestamp><Current dt:dt=""r8"">0</Current><DateUtc dt:dt=""string"">2018-10-24T17:53:03Z</DateUtc></FrequencyChange></FrequencyChanges></Clock>\n",KW_Experiment5A-41-1,59.946,1.0.0.105,2,2018553314,Professional,2.0.10.353,2.0.10.353,10/24/2018,10/24/2018 17:53,13:53:04,2.0.10.248,3,2,1,3,,,,,,,,TrainingProc,BlockList,5,2,Distractor1.bmp,1,0,,0,1,206792,400,,0,0,cyan,400,1,400,,horizontal,cyan,Distractor1.bmp,blue,Distractor1.bmp,purple,Distractor1.bmp,yellow,Distractor2.bmp,red,Target2.bmp,lime,Distractor1.bmp,,,,TrialProc,4,TrainingTrialList,0,2,-999999,0,207192,0,1,935,208127,Target2.bmp,red,2,,,,11,4,53
KW_Experiment5A,41,1,"<?xml version=""1.0""?>\n<Clock xmlns:dt=""urn:schemas-microsoft-com:datatypes""><Description dt:dt=""string"">E-Prime Primary Realtime Clock</Description><StartTime><Timestamp dt:dt=""int"">0</Timestamp><DateUtc dt:dt=""string"">2018-10-24T17:53:03Z</DateUtc></StartTime><FrequencyChanges><FrequencyChange><Frequency dt:dt=""r8"">3215273</Frequency><Timestamp dt:dt=""r8"">1307687993956</Timestamp><Current dt:dt=""r8"">0</Current><DateUtc dt:dt=""string"">2018-10-24T17:53:03Z</DateUtc></FrequencyChange></FrequencyChanges></Clock>\n",KW_Experiment5A-41-1,59.946,1.0.0.105,2,2018553314,Professional,2.0.10.353,2.0.10.353,10/24/2018,10/24/2018 17:53,13:53:04,2.0.10.248,3,2,1,3,,,,,,,,TrainingProc,BlockList,6,1,Distractor2.bmp,2,0,,0,1,209144,501,,0,0,red,500,2,500,1,vertical,red,Distractor2.bmp,purple,Distractor2.bmp,blue,Distractor2.bmp,cyan,Distractor2.bmp,yellow,Distractor2.bmp,lime,Target1.bmp,,,,TrialProc,,TrainingTrialList,1,1,-999999,1,209645,0,1,1202,210847,Target1.bmp,lime,1,,,,6,4,54
KW_Experiment5A,41,1,"<?xml version=""1.0""?>\n<Clock xmlns:dt=""urn:schemas-microsoft-com:datatypes""><Description dt:dt=""string"">E-Prime Primary Realtime Clock</Description><StartTime><Timestamp dt:dt=""int"">0</Timestamp><DateUtc dt:dt=""string"">2018-10-24T17:53:03Z</DateUtc></StartTime><FrequencyChanges><FrequencyChange><Frequency dt:dt=""r8"">3215273</Frequency><Timestamp dt:dt=""r8"">1307687993956</Timestamp><Current dt:dt=""r8"">0</Current><DateUtc dt:dt=""string"">2018-10-24T17:53:03Z</DateUtc></FrequencyChange></FrequencyChanges></Clock>\n",KW_Experiment5A-41-1,59.946,1.0.0.105,2,2018553314,Professional,2.0.10.353,2.0.10.353,10/24/2018,10/24/2018 17:53,13:53:04,2.0.10.248,3,2,1,3,,,,,,,,TrainingProc,BlockList,7,1,Distractor1.bmp,1,0,,0,1,211863,501,,0,0,yellow,500,2,500,,vertical,yellow,Distractor2.bmp,lime,Distractor2.bmp,purple,Distractor1.bmp,cyan,Distractor2.bmp,red,Target1.bmp,blue,Distractor1.bmp,,,,TrialProc,2,TrainingTrialList,1,1,-999999,1,212364,0,1,683,213047,Target1.bmp,red,1,,,,11,4,55
KW_Experiment5A,41,1,"<?xml version=""1.0""?>\n<Clock xmlns:dt=""urn:schemas-microsoft-com:datatypes""><Description dt:dt=""string"">E-Prime Primary Realtime Clock</Description><StartTime><Timestamp dt:dt=""int"">0</Timestamp><DateUtc dt:dt=""string"">2018-10-24T17:53:03Z</DateUtc></StartTime><FrequencyChanges><FrequencyChange><Frequency dt:dt=""r8"">3215273</Frequency><Timestamp dt:dt=""r8"">1307687993956</Timestamp><Current dt:dt=""r8"">0</Current><DateUtc dt:dt=""string"">2018-10-24T17:53:03Z</DateUtc></FrequencyChange></FrequencyChanges></Clock>\n",KW_Experiment5A-41-1,59.946,1.0.0.105,2,2018553314,Professional,2.0.10.353,2.0.10.353,10/24/2018,10/24/2018 17:53,13:53:04,2.0.10.248,3,2,1,3,,,,,,,,TrainingProc,BlockList,8,1,Distractor1.bmp,1,0,,0,1,214065,501,,0,0,yellow,500,2,500,,vertical,yellow,Distractor2.bmp,lime,Distractor2.bmp,purple,Distractor2.bmp,red,Target1.bmp,cyan,Distractor1.bmp,blue,Distractor2.bmp,,,,TrialProc,2,TrainingTrialList,1,1,-999999,1,214566,0,1,513,215079,Target1.bmp,red,1,,,,10,4,56
KW_Experiment5A,41,1,"<?xml version=""1.0""?>\n<Clock xmlns:dt=""urn:schemas-microsoft-com:datatypes""><Description dt:dt=""string"">E-Prime Primary Realtime Clock</Description><StartTime><Timestamp dt:dt=""int"">0</Timestamp><DateUtc dt:dt=""string"">2018-10-24T17:53:03Z</DateUtc></StartTime><FrequencyChanges><FrequencyChange><Frequency dt:dt=""r8"">3215273</Frequency><Timestamp dt:dt=""r8"">1307687993956</Timestamp><Current dt:dt=""r8"">0</Current><DateUtc dt:dt=""string"">2018-10-24T17:53:03Z</DateUtc></FrequencyChange></FrequencyChanges></Clock>\n",KW_Experiment5A-41-1,59.946,1.0.0.105,2,2018553314,Professional,2.0.10.353,2.0.10.353,10/24/2018,10/24/2018 17:53,13:53:04,2.0.10.248,3,2,1,3,,,,,,,,TrainingProc,BlockList,9,2,Distractor1.bmp,1,0,,0,1,216101,400,,0,0,red,400,1,400,1,horizontal,red,Distractor1.bmp,purple,Distractor1.bmp,cyan,Distractor2.bmp,yellow,Distractor1.bmp,lime,Target2.bmp,blue,Distractor1.bmp,,,,TrialProc,,TrainingTrialList,1,2,-999999,0,216501,0,2,866,217367,Target2.bmp,lime,2,,,,5,4,57
KW_Experiment5A,41,1,"<?xml version=""1.0""?>\n<Clock xmlns:dt=""urn:schemas-microsoft-com:datatypes""><Description dt:dt=""string"">E-Prime Primary Realtime Clock</Description><StartTime><Timestamp dt:dt=""int"">0</Timestamp><DateUtc dt:dt=""string"">2018-10-24T17:53:03Z</DateUtc></StartTime><FrequencyChanges><FrequencyChange><Frequency dt:dt=""r8"">3215273</Frequency><Timestamp dt:dt=""r8"">1307687993956</Timestamp><Current dt:dt=""r8"">0</Current><DateUtc dt:dt=""string"">2018-10-24T17:53:03Z</DateUtc></FrequencyChange></FrequencyChanges></Clock>\n",KW_Experiment5A-41-1,59.946,1.0.0.105,2,2018553314,Professional,2.0.10.353,2.0.10.353,10/24/2018,10/24/2018 17:53,13:53:04,2.0.10.248,3,2,1,3,,,,,,,,TrainingProc,BlockList,10,1,Distractor2.bmp,2,0,,0,1,218386,400,,0,0,cyan,400,1,400,,vertical,cyan,Distractor2.bmp,red,Target1.bmp,lime,Distractor2.bmp,yellow,Distractor1.bmp,blue,Distractor1.bmp,purple,Distractor2.bmp,,,,TrialProc,4,TrainingTrialList,1,1,-999999,0,218786,0,1,613,219399,Target1.bmp,red,1,,,,8,4,58
KW_Experiment5A,41,1,"<?xml version=""1.0""?>\n<Clock xmlns:dt=""urn:schemas-microsoft-com:datatypes""><Description dt:dt=""string"">E-Prime Primary Realtime Clock</Description><StartTime><Timestamp dt:dt=""int"">0</Timestamp><DateUtc dt:dt=""string"">2018-10-24T17:53:03Z</DateUtc></StartTime><FrequencyChanges><FrequencyChange><Frequency dt:dt=""r8"">3215273</Frequency><Timestamp dt:dt=""r8"">1307687993956</Timestamp><Current dt:dt=""r8"">0</Current><DateUtc dt:dt=""string"">2018-10-24T17:53:03Z</DateUtc></FrequencyChange></FrequencyChanges></Clock>\n",KW_Experiment5A-41-1,59.946,1.0.0.105,2,2018553314,Professional,2.0.10.353,2.0.10.353,10/24/2018,10/24/2018 17:53,13:53:04,2.0.10.248,3,2,1,3,,,,,,,,TrainingProc,BlockList,11,1,Distractor2.bmp,2,0,,0,1,220421,401,,0,0,cyan,400,1,400,,vertical,cyan,Distractor2.bmp,blue,Distractor2.bmp,yellow,Distractor2.bmp,purple,Distractor2.bmp,lime,Distractor2.bmp,red,Target1.bmp,,,,TrialProc,4,TrainingTrialList,1,1,-999999,1,220822,0,1,553,221375,Target1.bmp,red,1,,,,12,4,59
KW_Experiment5A,41,1,"<?xml version=""1.0""?>\n<Clock xmlns:dt=""urn:schemas-microsoft-com:datatypes""><Description dt:dt=""string"">E-Prime Primary Realtime Clock</Description><StartTime><Timestamp dt:dt=""int"">0</Timestamp><DateUtc dt:dt=""string"">2018-10-24T17:53:03Z</DateUtc></StartTime><FrequencyChanges><FrequencyChange><Frequency dt:dt=""r8"">3215273</Frequency><Timestamp dt:dt=""r8"">1307687993956</Timestamp><Current dt:dt=""r8"">0</Current><DateUtc dt:dt=""string"">2018-10-24T17:53:03Z</DateUtc></FrequencyChange></FrequencyChanges></Clock>\n",KW_Experiment5A-41-1,59.946,1.0.0.105,2,2018553314,Professional,2.0.10.353,2.0.10.353,10/24/2018,10/24/2018 17:53,13:53:04,2.0.10.248,3,2,1,3,,,,,,,,TrainingProc,BlockList,12,1,Distractor2.bmp,2,0,,0,1,222390,400,,0,0,cyan,400,1,400,,vertical,cyan,Distractor2.bmp,yellow,Distractor2.bmp,blue,Distractor2.bmp,lime,Distractor2.bmp,purple,Distractor2.bmp,red,Target1.bmp,,,,TrialProc,4,TrainingTrialList,1,1,-999999,0,222790,0,1,441,223231,Target1.bmp,red,1,,,,12,4,60
KW_Experiment5A,41,1,"<?xml version=""1.0""?>\n<Clock xmlns:dt=""urn:schemas-microsoft-com:datatypes""><Description dt:dt=""string"">E-Prime Primary Realtime Clock</Description><StartTime><Timestamp dt:dt=""int"">0</Timestamp><DateUtc dt:dt=""string"">2018-10-24T17:53:03Z</DateUtc></StartTime><FrequencyChanges><FrequencyChange><Frequency dt:dt=""r8"">3215273</Frequency><Timestamp dt:dt=""r8"">1307687993956</Timestamp><Current dt:dt=""r8"">0</Current><DateUtc dt:dt=""string"">2018-10-24T17:53:03Z</DateUtc></FrequencyChange></FrequencyChanges></Clock>\n",KW_Experiment5A-41-1,59.946,1.0.0.105,2,2018553314,Professional,2.0.10.353,2.0.10.353,10/24/2018,10/24/2018 17:53,13:53:04,2.0.10.248,3,2,1,3,,,,,,,,TrainingProc,BlockList,13,2,Distractor1.bmp,1,0,,0,1,224258,501,,0,0,blue,500,2,500,,horizontal,blue,Distractor1.bmp,lime,Distractor1.bmp,purple,Distractor2.bmp,red,Target2.bmp,cyan,Distractor1.bmp,yellow,Distractor1.bmp,,,,TrialProc,3,TrainingTrialList,1,2,-999999,1,224759,0,2,592,225351,Target2.bmp,red,2,,,,10,4,61
KW_Experiment5A,41,1,"<?xml version=""1.0""?>\n<Clock xmlns:dt=""urn:schemas-microsoft-com:datatypes""><Description dt:dt=""string"">E-Prime Primary Realtime Clock</Description><StartTime><Timestamp dt:dt=""int"">0</Timestamp><DateUtc dt:dt=""string"">2018-10-24T17:53:03Z</DateUtc></StartTime><FrequencyChanges><FrequencyChange><Frequency dt:dt=""r8"">3215273</Frequency><Timestamp dt:dt=""r8"">1307687993956</Timestamp><Current dt:dt=""r8"">0</Current><DateUtc dt:dt=""string"">2018-10-24T17:53:03Z</DateUtc></FrequencyChange></FrequencyChanges></Clock>\n",KW_Experiment5A-41-1,59.946,1.0.0.105,2,2018553314,Professional,2.0.10.353,2.0.10.353,10/24/2018,10/24/2018 17:53,13:53:04,2.0.10.248,3,2,1,3,,,,,,,,TrainingProc,BlockList,14,1,Distractor1.bmp,1,0,,0,1,226377,600,,0,0,cyan,600,3,600,,vertical,cyan,Distractor1.bmp,lime,Distractor1.bmp,red,Target1.bmp,purple,Distractor1.bmp,yellow,Distractor1.bmp,blue,Distractor1.bmp,,,,TrialProc,4,TrainingTrialList,1,1,-999999,0,226977,0,1,686,227663,Target1.bmp,red,1,,,,9,4,62
KW_Experiment5A,41,1,"<?xml version=""1.0""?>\n<Clock xmlns:dt=""urn:schemas-microsoft-com:datatypes""><Description dt:dt=""string"">E-Prime Primary Realtime Clock</Description><StartTime><Timestamp dt:dt=""int"">0</Timestamp><DateUtc dt:dt=""string"">2018-10-24T17:53:03Z</DateUtc></StartTime><FrequencyChanges><FrequencyChange><Frequency dt:dt=""r8"">3215273</Frequency><Timestamp dt:dt=""r8"">1307687993956</Timestamp><Current dt:dt=""r8"">0</Current><DateUtc dt:dt=""string"">2018-10-24T17:53:03Z</DateUtc></FrequencyChange></FrequencyChanges></Clock>\n",KW_Experiment5A-41-1,59.946,1.0.0.105,2,2018553314,Professional,2.0.10.353,2.0.10.353,10/24/2018,10/24/2018 17:53,13:53:04,2.0.10.248,3,2,1,3,,,,,,,,TrainingProc,BlockList,15,2,Distractor1.bmp,1,0,,0,1,228679,600,,0,0,purple,600,3,600,,horizontal,red,Target2.bmp,lime,Distractor1.bmp,yellow,Distractor1.bmp,cyan,Distractor1.bmp,blue,Distractor1.bmp,purple,Distractor2.bmp,,,,TrialProc,5,TrainingTrialList,1,2,-999999,0,229279,0,2,528,229807,Target2.bmp,red,2,,,,7,4,63
KW_Experiment5A,41,1,"<?xml version=""1.0""?>\n<Clock xmlns:dt=""urn:schemas-microsoft-com:datatypes""><Description dt:dt=""string"">E-Prime Primary Realtime Clock</Description><StartTime><Timestamp dt:dt=""int"">0</Timestamp><DateUtc dt:dt=""string"">2018-10-24T17:53:03Z</DateUtc></StartTime><FrequencyChanges><FrequencyChange><Frequency dt:dt=""r8"">3215273</Frequency><Timestamp dt:dt=""r8"">1307687993956</Timestamp><Current dt:dt=""r8"">0</Current><DateUtc dt:dt=""string"">2018-10-24T17:53:03Z</DateUtc></FrequencyChange></FrequencyChanges></Clock>\n",KW_Experiment5A-41-1,59.946,1.0.0.105,2,2018553314,Professional,2.0.10.353,2.0.10.353,10/24/2018,10/24/2018 17:53,13:53:04,2.0.10.248,3,2,1,3,,,,,,,,TrainingProc,BlockList,16,2,Distractor2.bmp,2,0,,0,1,230831,600,,0,0,purple,600,3,600,,horizontal,purple,Distractor2.bmp,red,Target2.bmp,cyan,Distractor2.bmp,lime,Distractor1.bmp,blue,Distractor1.bmp,yellow,Distractor2.bmp,,,,TrialProc,5,TrainingTrialList,1,2,-999999,0,231431,0,2,472,231903,Target2.bmp,red,2,,,,8,4,64
KW_Experiment5A,41,1,"<?xml version=""1.0""?>\n<Clock xmlns:dt=""urn:schemas-microsoft-com:datatypes""><Description dt:dt=""string"">E-Prime Primary Realtime Clock</Description><StartTime><Timestamp dt:dt=""int"">0</Timestamp><DateUtc dt:dt=""string"">2018-10-24T17:53:03Z</DateUtc></StartTime><FrequencyChanges><FrequencyChange><Frequency dt:dt=""r8"">3215273</Frequency><Timestamp dt:dt=""r8"">1307687993956</Timestamp><Current dt:dt=""r8"">0</Current><DateUtc dt:dt=""string"">2018-10-24T17:53:03Z</DateUtc></FrequencyChange></FrequencyChanges></Clock>\n",KW_Experiment5A-41-1,59.946,1.0.0.105,2,2018553314,Professional,2.0.10.353,2.0.10.353,10/24/2018,10/24/2018 17:53,13:53:04,2.0.10.248,3,2,1,3,,,,,,,,TrainingProc,BlockList,17,2,Distractor2.bmp,2,0,,0,1,232916,500,,0,0,blue,500,2,500,,horizontal,blue,Distractor2.bmp,lime,Distractor2.bmp,cyan,Distractor1.bmp,yellow,Distractor2.bmp,purple,Distractor1.bmp,red,Target2.bmp,,,,TrialProc,3,TrainingTrialList,1,2,-999999,0,233416,0,2,535,233951,Target2.bmp,red,2,,,,12,4,65
KW_Experiment5A,41,1,"<?xml version=""1.0""?>\n<Clock xmlns:dt=""urn:schemas-microsoft-com:datatypes""><Description dt:dt=""string"">E-Prime Primary Realtime Clock</Description><StartTime><Timestamp dt:dt=""int"">0</Timestamp><DateUtc dt:dt=""string"">2018-10-24T17:53:03Z</DateUtc></StartTime><FrequencyChanges><FrequencyChange><Frequency dt:dt=""r8"">3215273</Frequency><Timestamp dt:dt=""r8"">1307687993956</Timestamp><Current dt:dt=""r8"">0</Current><DateUtc dt:dt=""string"">2018-10-24T17:53:03Z</DateUtc></FrequencyChange></FrequencyChanges></Clock>\n",KW_Experiment5A-41-1,59.946,1.0.0.105,2,2018553314,Professional,2.0.10.353,2.0.10.353,10/24/2018,10/24/2018 17:53,13:53:04,2.0.10.248,3,2,1,3,,,,,,,,TrainingProc,BlockList,18,2,Distractor1.bmp,1,0,,0,1,234968,400,,0,0,blue,400,1,400,3,horizontal,blue,Distractor2.bmp,lime,Target2.bmp,red,Distractor1.bmp,cyan,Distractor2.bmp,yellow,Distractor2.bmp,purple,Distractor1.bmp,,,,TrialProc,,TrainingTrialList,1,2,-999999,0,235368,0,2,535,235903,Target2.bmp,lime,2,,,,2,4,66
KW_Experiment5A,41,1,"<?xml version=""1.0""?>\n<Clock xmlns:dt=""urn:schemas-microsoft-com:datatypes""><Description dt:dt=""string"">E-Prime Primary Realtime Clock</Description><StartTime><Timestamp dt:dt=""int"">0</Timestamp><DateUtc dt:dt=""string"">2018-10-24T17:53:03Z</DateUtc></StartTime><FrequencyChanges><FrequencyChange><Frequency dt:dt=""r8"">3215273</Frequency><Timestamp dt:dt=""r8"">1307687993956</Timestamp><Current dt:dt=""r8"">0</Current><DateUtc dt:dt=""string"">2018-10-24T17:53:03Z</DateUtc></FrequencyChange></FrequencyChanges></Clock>\n",KW_Experiment5A-41-1,59.946,1.0.0.105,2,2018553314,Professional,2.0.10.353,2.0.10.353,10/24/2018,10/24/2018 17:53,13:53:04,2.0.10.248,3,2,1,3,,,,,,,,TrainingProc,BlockList,19,2,Distractor2.bmp,2,0,,0,1,236920,600,,0,0,purple,600,3,600,,horizontal,red,Target2.bmp,cyan,Distractor2.bmp,blue,Distractor1.bmp,yellow,Distractor1.bmp,lime,Distractor2.bmp,purple,Distractor1.bmp,,,,TrialProc,5,TrainingTrialList,1,2,-999999,0,237520,0,2,599,238119,Target2.bmp,red,2,,,,7,4,67
KW_Experiment5A,41,1,"<?xml version=""1.0""?>\n<Clock xmlns:dt=""urn:schemas-microsoft-com:datatypes""><Description dt:dt=""string"">E-Prime Primary Realtime Clock</Description><StartTime><Timestamp dt:dt=""int"">0</Timestamp><DateUtc dt:dt=""string"">2018-10-24T17:53:03Z</DateUtc></StartTime><FrequencyChanges><FrequencyChange><Frequency dt:dt=""r8"">3215273</Frequency><Timestamp dt:dt=""r8"">1307687993956</Timestamp><Current dt:dt=""r8"">0</Current><DateUtc dt:dt=""string"">2018-10-24T17:53:03Z</DateUtc></FrequencyChange></FrequencyChanges></Clock>\n",KW_Experiment5A-41-1,59.946,1.0.0.105,2,2018553314,Professional,2.0.10.353,2.0.10.353,10/24/2018,10/24/2018 17:53,13:53:04,2.0.10.248,3,2,1,3,,,,,,,,TrainingProc,BlockList,20,1,Distractor2.bmp,2,0,,0,1,239138,501,,0,0,red,500,2,500,1,vertical,red,Distractor1.bmp,yellow,Distractor2.bmp,lime,Target1.bmp,blue,Distractor2.bmp,cyan,Distractor1.bmp,purple,Distractor2.bmp,,,,TrialProc,,TrainingTrialList,1,1,-999999,1,239639,0,1,776,240415,Target1.bmp,lime,1,,,,3,4,68
KW_Experiment5A,41,1,"<?xml version=""1.0""?>\n<Clock xmlns:dt=""urn:schemas-microsoft-com:datatypes""><Description dt:dt=""string"">E-Prime Primary Realtime Clock</Description><StartTime><Timestamp dt:dt=""int"">0</Timestamp><DateUtc dt:dt=""string"">2018-10-24T17:53:03Z</DateUtc></StartTime><FrequencyChanges><FrequencyChange><Frequency dt:dt=""r8"">3215273</Frequency><Timestamp dt:dt=""r8"">1307687993956</Timestamp><Current dt:dt=""r8"">0</Current><DateUtc dt:dt=""string"">2018-10-24T17:53:03Z</DateUtc></FrequencyChange></FrequencyChanges></Clock>\n",KW_Experiment5A-41-1,59.946,1.0.0.105,2,2018553314,Professional,2.0.10.353,2.0.10.353,10/24/2018,10/24/2018 17:53,13:53:04,2.0.10.248,3,2,1,3,,,,,,,,TrainingProc,BlockList,21,1,Distractor2.bmp,2,0,,1,0,241440,601,,0,0,blue,600,3,600,,vertical,blue,Distractor1.bmp,red,Target1.bmp,yellow,Distractor2.bmp,lime,Distractor2.bmp,purple,Distractor2.bmp,cyan,Distractor2.bmp,,,,TrialProc,3,TrainingTrialList,1,1,-999999,1,242041,0,1,477,242518,Target1.bmp,red,1,,,,8,4,69
KW_Experiment5A,41,1,"<?xml version=""1.0""?>\n<Clock xmlns:dt=""urn:schemas-microsoft-com:datatypes""><Description dt:dt=""string"">E-Prime Primary Realtime Clock</Description><StartTime><Timestamp dt:dt=""int"">0</Timestamp><DateUtc dt:dt=""string"">2018-10-24T17:53:03Z</DateUtc></StartTime><FrequencyChanges><FrequencyChange><Frequency dt:dt=""r8"">3215273</Frequency><Timestamp dt:dt=""r8"">1307687993956</Timestamp><Current dt:dt=""r8"">0</Current><DateUtc dt:dt=""string"">2018-10-24T17:53:03Z</DateUtc></FrequencyChange></FrequencyChanges></Clock>\n",KW_Experiment5A-41-1,59.946,1.0.0.105,2,2018553314,Professional,2.0.10.353,2.0.10.353,10/24/2018,10/24/2018 17:53,13:53:04,2.0.10.248,3,2,1,3,,,,,,,,TrainingProc,BlockList,22,1,Distractor1.bmp,1,0,,0,1,243542,601,,0,0,cyan,600,3,600,,vertical,cyan,Distractor2.bmp,lime,Distractor1.bmp,red,Target1.bmp,yellow,Distractor1.bmp,purple,Distractor2.bmp,blue,Distractor2.bmp,,,,TrialProc,4,TrainingTrialList,1,1,-999999,1,244143,0,1,711,244854,Target1.bmp,red,1,,,,9,4,70
KW_Experiment5A,41,1,"<?xml version=""1.0""?>\n<Clock xmlns:dt=""urn:schemas-microsoft-com:datatypes""><Description dt:dt=""string"">E-Prime Primary Realtime Clock</Description><StartTime><Timestamp dt:dt=""int"">0</Timestamp><DateUtc dt:dt=""string"">2018-10-24T17:53:03Z</DateUtc></StartTime><FrequencyChanges><FrequencyChange><Frequency dt:dt=""r8"">3215273</Frequency><Timestamp dt:dt=""r8"">1307687993956</Timestamp><Current dt:dt=""r8"">0</Current><DateUtc dt:dt=""string"">2018-10-24T17:53:03Z</DateUtc></FrequencyChange></FrequencyChanges></Clock>\n",KW_Experiment5A-41-1,59.946,1.0.0.105,2,2018553314,Professional,2.0.10.353,2.0.10.353,10/24/2018,10/24/2018 17:53,13:53:04,2.0.10.248,3,2,1,3,,,,,,,,TrainingProc,BlockList,23,1,Distractor1.bmp,1,0,,0,1,245878,500,,0,0,purple,500,2,500,,vertical,purple,Distractor2.bmp,lime,Distractor2.bmp,yellow,Distractor1.bmp,red,Target1.bmp,blue,Distractor1.bmp,cyan,Distractor2.bmp,,,,TrialProc,5,TrainingTrialList,1,1,-999999,0,246378,0,1,540,246918,Target1.bmp,red,1,,,,10,4,71
KW_Experiment5A,41,1,"<?xml version=""1.0""?>\n<Clock xmlns:dt=""urn:schemas-microsoft-com:datatypes""><Description dt:dt=""string"">E-Prime Primary Realtime Clock</Description><StartTime><Timestamp dt:dt=""int"">0</Timestamp><DateUtc dt:dt=""string"">2018-10-24T17:53:03Z</DateUtc></StartTime><FrequencyChanges><FrequencyChange><Frequency dt:dt=""r8"">3215273</Frequency><Timestamp dt:dt=""r8"">1307687993956</Timestamp><Current dt:dt=""r8"">0</Current><DateUtc dt:dt=""string"">2018-10-24T17:53:03Z</DateUtc></FrequencyChange></FrequencyChanges></Clock>\n",KW_Experiment5A-41-1,59.946,1.0.0.105,2,2018553314,Professional,2.0.10.353,2.0.10.353,10/24/2018,10/24/2018 17:53,13:53:04,2.0.10.248,3,2,1,3,,,,,,,,TrainingProc,BlockList,24,1,Distractor2.bmp,2,0,,0,1,247946,501,,0,0,cyan,500,2,500,,vertical,cyan,Distractor1.bmp,blue,Distractor1.bmp,yellow,Distractor2.bmp,purple,Distractor1.bmp,red,Target1.bmp,lime,Distractor2.bmp,,,,TrialProc,4,TrainingTrialList,1,1,-999999,1,248447,0,1,463,248910,Target1.bmp,red,1,,,,11,4,72
KW_Experiment5A,41,1,"<?xml version=""1.0""?>\n<Clock xmlns:dt=""urn:schemas-microsoft-com:datatypes""><Description dt:dt=""string"">E-Prime Primary Realtime Clock</Description><StartTime><Timestamp dt:dt=""int"">0</Timestamp><DateUtc dt:dt=""string"">2018-10-24T17:53:03Z</DateUtc></StartTime><FrequencyChanges><FrequencyChange><Frequency dt:dt=""r8"">3215273</Frequency><Timestamp dt:dt=""r8"">1307687993956</Timestamp><Current dt:dt=""r8"">0</Current><DateUtc dt:dt=""string"">2018-10-24T17:53:03Z</DateUtc></FrequencyChange></FrequencyChanges></Clock>\n",KW_Experiment5A-41-1,59.946,1.0.0.105,2,2018553314,Professional,2.0.10.353,2.0.10.353,10/24/2018,10/24/2018 17:53,13:53:04,2.0.10.248,3,2,1,3,,,,,,,,TrainingProc,BlockList,25,1,Distractor2.bmp,2,0,,0,1,249932,600,,0,0,yellow,600,3,600,,vertical,yellow,Distractor2.bmp,purple,Distractor1.bmp,red,Target1.bmp,lime,Distractor2.bmp,cyan,Distractor1.bmp,blue,Distractor1.bmp,,,,TrialProc,2,TrainingTrialList,1,1,-999999,0,250532,0,1,778,251310,Target1.bmp,red,1,,,,9,5,73
KW_Experiment5A,41,1,"<?xml version=""1.0""?>\n<Clock xmlns:dt=""urn:schemas-microsoft-com:datatypes""><Description dt:dt=""string"">E-Prime Primary Realtime Clock</Description><StartTime><Timestamp dt:dt=""int"">0</Timestamp><DateUtc dt:dt=""string"">2018-10-24T17:53:03Z</DateUtc></StartTime><FrequencyChanges><FrequencyChange><Frequency dt:dt=""r8"">3215273</Frequency><Timestamp dt:dt=""r8"">1307687993956</Timestamp><Current dt:dt=""r8"">0</Current><DateUtc dt:dt=""string"">2018-10-24T17:53:03Z</DateUtc></FrequencyChange></FrequencyChanges></Clock>\n",KW_Experiment5A-41-1,59.946,1.0.0.105,2,2018553314,Professional,2.0.10.353,2.0.10.353,10/24/2018,10/24/2018 17:53,13:53:04,2.0.10.248,3,2,1,3,,,,,,,,TrainingProc,BlockList,26,2,Distractor2.bmp,2,0,,0,1,252334,400,,0,0,lime,400,1,400,,horizontal,lime,Distractor2.bmp,red,Target2.bmp,blue,Distractor2.bmp,cyan,Distractor1.bmp,yellow,Distractor1.bmp,purple,Distractor2.bmp,,,,TrialProc,6,TrainingTrialList,1,2,-999999,0,252734,0,2,448,253182,Target2.bmp,red,2,,,,8,5,74
KW_Experiment5A,41,1,"<?xml version=""1.0""?>\n<Clock xmlns:dt=""urn:schemas-microsoft-com:datatypes""><Description dt:dt=""string"">E-Prime Primary Realtime Clock</Description><StartTime><Timestamp dt:dt=""int"">0</Timestamp><DateUtc dt:dt=""string"">2018-10-24T17:53:03Z</DateUtc></StartTime><FrequencyChanges><FrequencyChange><Frequency dt:dt=""r8"">3215273</Frequency><Timestamp dt:dt=""r8"">1307687993956</Timestamp><Current dt:dt=""r8"">0</Current><DateUtc dt:dt=""string"">2018-10-24T17:53:03Z</DateUtc></FrequencyChange></FrequencyChanges></Clock>\n",KW_Experiment5A-41-1,59.946,1.0.0.105,2,2018553314,Professional,2.0.10.353,2.0.10.353,10/24/2018,10/24/2018 17:53,13:53:04,2.0.10.248,3,2,1,3,,,,,,,,TrainingProc,BlockList,27,2,Distractor1.bmp,1,0,,0,1,254202,601,,0,0,yellow,600,3,600,,horizontal,red,Target2.bmp,cyan,Distractor1.bmp,blue,Distractor1.bmp,lime,Distractor2.bmp,purple,Distractor2.bmp,yellow,Distractor1.bmp,,,,TrialProc,2,TrainingTrialList,1,2,-999999,1,254803,0,2,555,255358,Target2.bmp,red,2,,,,7,5,75
KW_Experiment5A,41,1,"<?xml version=""1.0""?>\n<Clock xmlns:dt=""urn:schemas-microsoft-com:datatypes""><Description dt:dt=""string"">E-Prime Primary Realtime Clock</Description><StartTime><Timestamp dt:dt=""int"">0</Timestamp><DateUtc dt:dt=""string"">2018-10-24T17:53:03Z</DateUtc></StartTime><FrequencyChanges><FrequencyChange><Frequency dt:dt=""r8"">3215273</Frequency><Timestamp dt:dt=""r8"">1307687993956</Timestamp><Current dt:dt=""r8"">0</Current><DateUtc dt:dt=""string"">2018-10-24T17:53:03Z</DateUtc></FrequencyChange></FrequencyChanges></Clock>\n",KW_Experiment5A-41-1,59.946,1.0.0.105,2,2018553314,Professional,2.0.10.353,2.0.10.353,10/24/2018,10/24/2018 17:53,13:53:04,2.0.10.248,3,2,1,3,,,,,,,,TrainingProc,BlockList,28,2,Distractor2.bmp,2,0,,0,1,256371,600,,0,0,yellow,600,3,600,2,horizontal,lime,Target2.bmp,yellow,Distractor2.bmp,cyan,Distractor2.bmp,red,Distractor2.bmp,purple,Distractor2.bmp,blue,Distractor2.bmp,,,,TrialProc,,TrainingTrialList,1,2,-999999,0,256971,0,2,443,257414,Target2.bmp,lime,2,,,,1,5,76
KW_Experiment5A,41,1,"<?xml version=""1.0""?>\n<Clock xmlns:dt=""urn:schemas-microsoft-com:datatypes""><Description dt:dt=""string"">E-Prime Primary Realtime Clock</Description><StartTime><Timestamp dt:dt=""int"">0</Timestamp><DateUtc dt:dt=""string"">2018-10-24T17:53:03Z</DateUtc></StartTime><FrequencyChanges><FrequencyChange><Frequency dt:dt=""r8"">3215273</Frequency><Timestamp dt:dt=""r8"">1307687993956</Timestamp><Current dt:dt=""r8"">0</Current><DateUtc dt:dt=""string"">2018-10-24T17:53:03Z</DateUtc></FrequencyChange></FrequencyChanges></Clock>\n",KW_Experiment5A-41-1,59.946,1.0.0.105,2,2018553314,Professional,2.0.10.353,2.0.10.353,10/24/2018,10/24/2018 17:53,13:53:04,2.0.10.248,3,2,1,3,,,,,,,,TrainingProc,BlockList,29,1,Distractor2.bmp,2,0,,0,1,258439,601,,0,0,purple,600,3,600,,vertical,purple,Distractor2.bmp,cyan,Distractor1.bmp,lime,Distractor1.bmp,yellow,Distractor2.bmp,blue,Distractor1.bmp,red,Target1.bmp,,,,TrialProc,5,TrainingTrialList,1,1,-999999,1,259040,0,1,630,259670,Target1.bmp,red,1,,,,12,5,77
KW_Experiment5A,41,1,"<?xml version=""1.0""?>\n<Clock xmlns:dt=""urn:schemas-microsoft-com:datatypes""><Description dt:dt=""string"">E-Prime Primary Realtime Clock</Description><StartTime><Timestamp dt:dt=""int"">0</Timestamp><DateUtc dt:dt=""string"">2018-10-24T17:53:03Z</DateUtc></StartTime><FrequencyChanges><FrequencyChange><Frequency dt:dt=""r8"">3215273</Frequency><Timestamp dt:dt=""r8"">1307687993956</Timestamp><Current dt:dt=""r8"">0</Current><DateUtc dt:dt=""string"">2018-10-24T17:53:03Z</DateUtc></FrequencyChange></FrequencyChanges></Clock>\n",KW_Experiment5A-41-1,59.946,1.0.0.105,2,2018553314,Professional,2.0.10.353,2.0.10.353,10/24/2018,10/24/2018 17:53,13:53:04,2.0.10.248,3,2,1,3,,,,,,,,TrainingProc,BlockList,30,2,Distractor2.bmp,2,0,,0,1,260691,401,,0,0,lime,400,1,400,,horizontal,lime,Distractor2.bmp,red,Target2.bmp,purple,Distractor2.bmp,yellow,Distractor2.bmp,cyan,Distractor1.bmp,blue,Distractor1.bmp,,,,TrialProc,6,TrainingTrialList,1,2,-999999,1,261092,0,2,530,261622,Target2.bmp,red,2,,,,8,5,78
KW_Experiment5A,41,1,"<?xml version=""1.0""?>\n<Clock xmlns:dt=""urn:schemas-microsoft-com:datatypes""><Description dt:dt=""string"">E-Prime Primary Realtime Clock</Description><StartTime><Timestamp dt:dt=""int"">0</Timestamp><DateUtc dt:dt=""string"">2018-10-24T17:53:03Z</DateUtc></StartTime><FrequencyChanges><FrequencyChange><Frequency dt:dt=""r8"">3215273</Frequency><Timestamp dt:dt=""r8"">1307687993956</Timestamp><Current dt:dt=""r8"">0</Current><DateUtc dt:dt=""string"">2018-10-24T17:53:03Z</DateUtc></FrequencyChange></FrequencyChanges></Clock>\n",KW_Experiment5A-41-1,59.946,1.0.0.105,2,2018553314,Professional,2.0.10.353,2.0.10.353,10/24/2018,10/24/2018 17:53,13:53:04,2.0.10.248,3,2,1,3,,,,,,,,TrainingProc,BlockList,31,2,Distractor2.bmp,2,0,,0,1,262643,601,,0,0,purple,600,3,600,5,horizontal,purple,Distractor1.bmp,cyan,Distractor1.bmp,yellow,Distractor1.bmp,blue,Distractor1.bmp,lime,Target2.bmp,red,Distractor2.bmp,,,,TrialProc,,TrainingTrialList,0,2,-999999,1,263244,0,1,442,263686,Target2.bmp,lime,2,,,,5,5,79
KW_Experiment5A,41,1,"<?xml version=""1.0""?>\n<Clock xmlns:dt=""urn:schemas-microsoft-com:datatypes""><Description dt:dt=""string"">E-Prime Primary Realtime Clock</Description><StartTime><Timestamp dt:dt=""int"">0</Timestamp><DateUtc dt:dt=""string"">2018-10-24T17:53:03Z</DateUtc></StartTime><FrequencyChanges><FrequencyChange><Frequency dt:dt=""r8"">3215273</Frequency><Timestamp dt:dt=""r8"">1307687993956</Timestamp><Current dt:dt=""r8"">0</Current><DateUtc dt:dt=""string"">2018-10-24T17:53:03Z</DateUtc></FrequencyChange></FrequencyChanges></Clock>\n",KW_Experiment5A-41-1,59.946,1.0.0.105,2,2018553314,Professional,2.0.10.353,2.0.10.353,10/24/2018,10/24/2018 17:53,13:53:04,2.0.10.248,3,2,1,3,,,,,,,,TrainingProc,BlockList,32,2,Distractor1.bmp,1,0,,0,1,264712,600,,0,0,yellow,600,3,600,,horizontal,yellow,Distractor1.bmp,cyan,Distractor1.bmp,lime,Distractor2.bmp,purple,Distractor1.bmp,blue,Distractor1.bmp,red,Target2.bmp,,,,TrialProc,2,TrainingTrialList,1,2,-999999,0,265312,0,2,686,265998,Target2.bmp,red,2,,,,12,5,80
KW_Experiment5A,41,1,"<?xml version=""1.0""?>\n<Clock xmlns:dt=""urn:schemas-microsoft-com:datatypes""><Description dt:dt=""string"">E-Prime Primary Realtime Clock</Description><StartTime><Timestamp dt:dt=""int"">0</Timestamp><DateUtc dt:dt=""string"">2018-10-24T17:53:03Z</DateUtc></StartTime><FrequencyChanges><FrequencyChange><Frequency dt:dt=""r8"">3215273</Frequency><Timestamp dt:dt=""r8"">1307687993956</Timestamp><Current dt:dt=""r8"">0</Current><DateUtc dt:dt=""string"">2018-10-24T17:53:03Z</DateUtc></FrequencyChange></FrequencyChanges></Clock>\n",KW_Experiment5A-41-1,59.946,1.0.0.105,2,2018553314,Professional,2.0.10.353,2.0.10.353,10/24/2018,10/24/2018 17:53,13:53:04,2.0.10.248,3,2,1,3,,,,,,,,TrainingProc,BlockList,33,2,Distractor1.bmp,1,0,,0,1,267014,500,,0,0,purple,500,2,500,5,horizontal,purple,Distractor2.bmp,cyan,Distractor1.bmp,lime,Target2.bmp,yellow,Distractor1.bmp,red,Distractor1.bmp,blue,Distractor1.bmp,,,,TrialProc,,TrainingTrialList,1,2,-999999,0,267514,0,2,612,268126,Target2.bmp,lime,2,,,,3,5,81
KW_Experiment5A,41,1,"<?xml version=""1.0""?>\n<Clock xmlns:dt=""urn:schemas-microsoft-com:datatypes""><Description dt:dt=""string"">E-Prime Primary Realtime Clock</Description><StartTime><Timestamp dt:dt=""int"">0</Timestamp><DateUtc dt:dt=""string"">2018-10-24T17:53:03Z</DateUtc></StartTime><FrequencyChanges><FrequencyChange><Frequency dt:dt=""r8"">3215273</Frequency><Timestamp dt:dt=""r8"">1307687993956</Timestamp><Current dt:dt=""r8"">0</Current><DateUtc dt:dt=""string"">2018-10-24T17:53:03Z</DateUtc></FrequencyChange></FrequencyChanges></Clock>\n",KW_Experiment5A-41-1,59.946,1.0.0.105,2,2018553314,Professional,2.0.10.353,2.0.10.353,10/24/2018,10/24/2018 17:53,13:53:04,2.0.10.248,3,2,1,3,,,,,,,,TrainingProc,BlockList,34,1,Distractor1.bmp,1,0,,0,1,269149,400,,0,0,yellow,400,1,400,2,vertical,yellow,Distractor1.bmp,blue,Distractor1.bmp,cyan,Distractor2.bmp,red,Distractor1.bmp,purple,Distractor2.bmp,lime,Target1.bmp,,,,TrialProc,,TrainingTrialList,1,1,-999999,0,269549,0,1,849,270398,Target1.bmp,lime,1,,,,6,5,82
KW_Experiment5A,41,1,"<?xml version=""1.0""?>\n<Clock xmlns:dt=""urn:schemas-microsoft-com:datatypes""><Description dt:dt=""string"">E-Prime Primary Realtime Clock</Description><StartTime><Timestamp dt:dt=""int"">0</Timestamp><DateUtc dt:dt=""string"">2018-10-24T17:53:03Z</DateUtc></StartTime><FrequencyChanges><FrequencyChange><Frequency dt:dt=""r8"">3215273</Frequency><Timestamp dt:dt=""r8"">1307687993956</Timestamp><Current dt:dt=""r8"">0</Current><DateUtc dt:dt=""string"">2018-10-24T17:53:03Z</DateUtc></FrequencyChange></FrequencyChanges></Clock>\n",KW_Experiment5A-41-1,59.946,1.0.0.105,2,2018553314,Professional,2.0.10.353,2.0.10.353,10/24/2018,10/24/2018 17:53,13:53:04,2.0.10.248,3,2,1,3,,,,,,,,TrainingProc,BlockList,35,2,Distractor2.bmp,2,0,,0,1,271418,600,,0,0,yellow,600,3,600,,horizontal,red,Target2.bmp,blue,Distractor2.bmp,lime,Distractor1.bmp,cyan,Distractor1.bmp,purple,Distractor2.bmp,yellow,Distractor1.bmp,,,,TrialProc,2,TrainingTrialList,1,2,-999999,0,272018,0,2,500,272518,Target2.bmp,red,2,,,,7,5,83
KW_Experiment5A,41,1,"<?xml version=""1.0""?>\n<Clock xmlns:dt=""urn:schemas-microsoft-com:datatypes""><Description dt:dt=""string"">E-Prime Primary Realtime Clock</Description><StartTime><Timestamp dt:dt=""int"">0</Timestamp><DateUtc dt:dt=""string"">2018-10-24T17:53:03Z</DateUtc></StartTime><FrequencyChanges><FrequencyChange><Frequency dt:dt=""r8"">3215273</Frequency><Timestamp dt:dt=""r8"">1307687993956</Timestamp><Current dt:dt=""r8"">0</Current><DateUtc dt:dt=""string"">2018-10-24T17:53:03Z</DateUtc></FrequencyChange></FrequencyChanges></Clock>\n",KW_Experiment5A-41-1,59.946,1.0.0.105,2,2018553314,Professional,2.0.10.353,2.0.10.353,10/24/2018,10/24/2018 17:53,13:53:04,2.0.10.248,3,2,1,3,,,,,,,,TrainingProc,BlockList,36,1,Distractor1.bmp,1,0,,1,0,273536,601,,0,0,yellow,600,3,600,,vertical,yellow,Distractor1.bmp,blue,Distractor2.bmp,lime,Distractor2.bmp,cyan,Distractor1.bmp,red,Target1.bmp,purple,Distractor1.bmp,,,,TrialProc,2,TrainingTrialList,1,1,-999999,1,274137,0,1,589,274726,Target1.bmp,red,1,,,,11,5,84
KW_Experiment5A,41,1,"<?xml version=""1.0""?>\n<Clock xmlns:dt=""urn:schemas-microsoft-com:datatypes""><Description dt:dt=""string"">E-Prime Primary Realtime Clock</Description><StartTime><Timestamp dt:dt=""int"">0</Timestamp><DateUtc dt:dt=""string"">2018-10-24T17:53:03Z</DateUtc></StartTime><FrequencyChanges><FrequencyChange><Frequency dt:dt=""r8"">3215273</Frequency><Timestamp dt:dt=""r8"">1307687993956</Timestamp><Current dt:dt=""r8"">0</Current><DateUtc dt:dt=""string"">2018-10-24T17:53:03Z</DateUtc></FrequencyChange></FrequencyChanges></Clock>\n",KW_Experiment5A-41-1,59.946,1.0.0.105,2,2018553314,Professional,2.0.10.353,2.0.10.353,10/24/2018,10/24/2018 17:53,13:53:04,2.0.10.248,3,2,1,3,,,,,,,,TrainingProc,BlockList,37,1,Distractor1.bmp,1,0,,0,1,275755,501,,0,0,purple,500,2,500,,vertical,purple,Distractor2.bmp,lime,Distractor1.bmp,cyan,Distractor2.bmp,blue,Distractor2.bmp,red,Target1.bmp,yellow,Distractor1.bmp,,,,TrialProc,5,TrainingTrialList,1,1,-999999,1,276256,0,1,494,276750,Target1.bmp,red,1,,,,11,5,85
KW_Experiment5A,41,1,"<?xml version=""1.0""?>\n<Clock xmlns:dt=""urn:schemas-microsoft-com:datatypes""><Description dt:dt=""string"">E-Prime Primary Realtime Clock</Description><StartTime><Timestamp dt:dt=""int"">0</Timestamp><DateUtc dt:dt=""string"">2018-10-24T17:53:03Z</DateUtc></StartTime><FrequencyChanges><FrequencyChange><Frequency dt:dt=""r8"">3215273</Frequency><Timestamp dt:dt=""r8"">1307687993956</Timestamp><Current dt:dt=""r8"">0</Current><DateUtc dt:dt=""string"">2018-10-24T17:53:03Z</DateUtc></FrequencyChange></FrequencyChanges></Clock>\n",KW_Experiment5A-41-1,59.946,1.0.0.105,2,2018553314,Professional,2.0.10.353,2.0.10.353,10/24/2018,10/24/2018 17:53,13:53:04,2.0.10.248,3,2,1,3,,,,,,,,TrainingProc,BlockList,38,2,Distractor1.bmp,1,0,,0,1,277774,400,,0,0,purple,400,1,400,,horizontal,purple,Distractor1.bmp,yellow,Distractor1.bmp,lime,Distractor2.bmp,blue,Distractor2.bmp,red,Target2.bmp,cyan,Distractor1.bmp,,,,TrialProc,5,TrainingTrialList,1,2,-999999,0,278174,0,2,688,278862,Target2.bmp,red,2,,,,11,5,86
KW_Experiment5A,41,1,"<?xml version=""1.0""?>\n<Clock xmlns:dt=""urn:schemas-microsoft-com:datatypes""><Description dt:dt=""string"">E-Prime Primary Realtime Clock</Description><StartTime><Timestamp dt:dt=""int"">0</Timestamp><DateUtc dt:dt=""string"">2018-10-24T17:53:03Z</DateUtc></StartTime><FrequencyChanges><FrequencyChange><Frequency dt:dt=""r8"">3215273</Frequency><Timestamp dt:dt=""r8"">1307687993956</Timestamp><Current dt:dt=""r8"">0</Current><DateUtc dt:dt=""string"">2018-10-24T17:53:03Z</DateUtc></FrequencyChange></FrequencyChanges></Clock>\n",KW_Experiment5A-41-1,59.946,1.0.0.105,2,2018553314,Professional,2.0.10.353,2.0.10.353,10/24/2018,10/24/2018 17:53,13:53:04,2.0.10.248,3,2,1,3,,,,,,,,TrainingProc,BlockList,39,2,Distractor1.bmp,1,0,,0,1,279876,400,,0,0,purple,400,1,400,,horizontal,purple,Distractor1.bmp,cyan,Distractor1.bmp,yellow,Distractor2.bmp,blue,Distractor2.bmp,lime,Distractor2.bmp,red,Target2.bmp,,,,TrialProc,5,TrainingTrialList,1,2,-999999,0,280276,0,2,578,280854,Target2.bmp,red,2,,,,12,5,87
KW_Experiment5A,41,1,"<?xml version=""1.0""?>\n<Clock xmlns:dt=""urn:schemas-microsoft-com:datatypes""><Description dt:dt=""string"">E-Prime Primary Realtime Clock</Description><StartTime><Timestamp dt:dt=""int"">0</Timestamp><DateUtc dt:dt=""string"">2018-10-24T17:53:03Z</DateUtc></StartTime><FrequencyChanges><FrequencyChange><Frequency dt:dt=""r8"">3215273</Frequency><Timestamp dt:dt=""r8"">1307687993956</Timestamp><Current dt:dt=""r8"">0</Current><DateUtc dt:dt=""string"">2018-10-24T17:53:03Z</DateUtc></FrequencyChange></FrequencyChanges></Clock>\n",KW_Experiment5A-41-1,59.946,1.0.0.105,2,2018553314,Professional,2.0.10.353,2.0.10.353,10/24/2018,10/24/2018 17:53,13:53:04,2.0.10.248,3,2,1,3,,,,,,,,TrainingProc,BlockList,40,1,Distractor1.bmp,1,0,,0,1,281877,601,,0,0,lime,600,3,600,,vertical,lime,Distractor2.bmp,yellow,Distractor2.bmp,red,Target1.bmp,blue,Distractor1.bmp,cyan,Distractor1.bmp,purple,Distractor1.bmp,,,,TrialProc,6,TrainingTrialList,1,1,-999999,1,282478,0,1,736,283214,Target1.bmp,red,1,,,,9,5,88
KW_Experiment5A,41,1,"<?xml version=""1.0""?>\n<Clock xmlns:dt=""urn:schemas-microsoft-com:datatypes""><Description dt:dt=""string"">E-Prime Primary Realtime Clock</Description><StartTime><Timestamp dt:dt=""int"">0</Timestamp><DateUtc dt:dt=""string"">2018-10-24T17:53:03Z</DateUtc></StartTime><FrequencyChanges><FrequencyChange><Frequency dt:dt=""r8"">3215273</Frequency><Timestamp dt:dt=""r8"">1307687993956</Timestamp><Current dt:dt=""r8"">0</Current><DateUtc dt:dt=""string"">2018-10-24T17:53:03Z</DateUtc></FrequencyChange></FrequencyChanges></Clock>\n",KW_Experiment5A-41-1,59.946,1.0.0.105,2,2018553314,Professional,2.0.10.353,2.0.10.353,10/24/2018,10/24/2018 17:53,13:53:04,2.0.10.248,3,2,1,3,,,,,,,,TrainingProc,BlockList,41,2,Distractor2.bmp,2,0,,0,1,284230,500,,0,0,yellow,500,2,500,,horizontal,yellow,Distractor1.bmp,cyan,Distractor2.bmp,lime,Distractor2.bmp,red,Target2.bmp,purple,Distractor2.bmp,blue,Distractor2.bmp,,,,TrialProc,2,TrainingTrialList,1,2,-999999,0,284730,0,2,620,285350,Target2.bmp,red,2,,,,10,5,89
KW_Experiment5A,41,1,"<?xml version=""1.0""?>\n<Clock xmlns:dt=""urn:schemas-microsoft-com:datatypes""><Description dt:dt=""string"">E-Prime Primary Realtime Clock</Description><StartTime><Timestamp dt:dt=""int"">0</Timestamp><DateUtc dt:dt=""string"">2018-10-24T17:53:03Z</DateUtc></StartTime><FrequencyChanges><FrequencyChange><Frequency dt:dt=""r8"">3215273</Frequency><Timestamp dt:dt=""r8"">1307687993956</Timestamp><Current dt:dt=""r8"">0</Current><DateUtc dt:dt=""string"">2018-10-24T17:53:03Z</DateUtc></FrequencyChange></FrequencyChanges></Clock>\n",KW_Experiment5A-41-1,59.946,1.0.0.105,2,2018553314,Professional,2.0.10.353,2.0.10.353,10/24/2018,10/24/2018 17:53,13:53:04,2.0.10.248,3,2,1,3,,,,,,,,TrainingProc,BlockList,42,2,Distractor2.bmp,2,0,,0,1,286365,400,,0,0,purple,400,1,400,,horizontal,purple,Distractor2.bmp,yellow,Distractor2.bmp,red,Target2.bmp,cyan,Distractor2.bmp,blue,Distractor2.bmp,lime,Distractor1.bmp,,,,TrialProc,5,TrainingTrialList,1,2,-999999,0,286765,0,2,481,287246,Target2.bmp,red,2,,,,9,5,90
