ExperimentName,Subject,Session,Clock.Information,DataFile.Basename,Display.RefreshRate,ExperimentVersion,Group,RandomSeed,RuntimeCapabilities,RuntimeVersion,RuntimeVersionExpected,SessionDate,SessionStartDateTimeUtc,SessionTime,StudioVersion,Block,BlockList,BlockList.Cycle,BlockList.Sample,PostTestQ1.RESP,PostTestQ1CJ.RESP,PostTestQ2.RESP,PostTestQ2CJ.RESP,PostTestQ3.RESP,PostTestQ3CJ.RESP,PostTestSlide.RESP,Procedure[Block],Running[Block],Trial,CorrectResponse,Distractor,DistractorList,Fixation.ACC,Fixation.CRESP,Fixation.DurationError,Fixation.OnsetDelay,Fixation.OnsetTime,Fixation.OnsetToOnsetTime,Fixation.RESP,Fixation.RT,Fixation.RTTime,ItemColor,Jitter,JitterList,JitterTime,Lime0List,Orientation,Pos1Color,Pos1Item,Pos2Color,Pos2Item,Pos3Color,Pos3Item,Pos4Color,Pos4Item,Pos5Color,Pos5Item,Pos6Color,Pos6Item,PracticeTrialList,PracticeTrialList.Cycle,PracticeTrialList.Sample,Procedure[Trial],Red0List,Running[Trial],Stimulus.ACC,Stimulus.CRESP,Stimulus.DurationError,Stimulus.OnsetDelay,Stimulus.OnsetTime,Stimulus.OnsetToOnsetTime,Stimulus.RESP,Stimulus.RT,Stimulus.RTTime,Target,TargetColor,TargetList,TestTrialList,TestTrialList.Cycle,TestTrialList.Sample,TrainingTrialList,TrainingTrialList.Cycle,TrainingTrialList.Sample
KW_Experiment5A,21,1,"<?xml version=""1.0""?>\n<Clock xmlns:dt=""urn:schemas-microsoft-com:datatypes""><Description dt:dt=""string"">E-Prime Primary Realtime Clock</Description><StartTime><Timestamp dt:dt=""int"">0</Timestamp><DateUtc dt:dt=""string"">2018-10-15T17:05:57Z</DateUtc></StartTime><FrequencyChanges><FrequencyChange><Frequency dt:dt=""r8"">3215292</Frequency><Timestamp dt:dt=""r8"">5293540642860</Timestamp><Current dt:dt=""r8"">0</Current><DateUtc dt:dt=""string"">2018-10-15T17:05:57Z</DateUtc></FrequencyChange></FrequencyChanges></Clock>\n",KW_Experiment5A-21-1,59.945,1.0.0.105,1,2141577913,Professional,2.0.10.353,2.0.10.353,10/15/2018,10/15/2018 17:05,13:05:57,2.0.10.248,1,1,1,1,,,,,,,,PracticeProc,BlockList,1,2,Distractor1.bmp,1,0,,0,40,186899,401,,0,0,cyan,400,1,400,,horizontal,purple,Distractor1.bmp,lime,Distractor1.bmp,blue,Distractor2.bmp,yellow,Distractor1.bmp,cyan,Distractor2.bmp,red,Target2.bmp,6,1,1,TrialProc,4,PracticeTrialList,1,2,-999999,1,187300,0,2,4182,191482,Target2.bmp,red,2,,,,,,
KW_Experiment5A,21,1,"<?xml version=""1.0""?>\n<Clock xmlns:dt=""urn:schemas-microsoft-com:datatypes""><Description dt:dt=""string"">E-Prime Primary Realtime Clock</Description><StartTime><Timestamp dt:dt=""int"">0</Timestamp><DateUtc dt:dt=""string"">2018-10-15T17:05:57Z</DateUtc></StartTime><FrequencyChanges><FrequencyChange><Frequency dt:dt=""r8"">3215292</Frequency><Timestamp dt:dt=""r8"">5293540642860</Timestamp><Current dt:dt=""r8"">0</Current><DateUtc dt:dt=""string"">2018-10-15T17:05:57Z</DateUtc></FrequencyChange></FrequencyChanges></Clock>\n",KW_Experiment5A-21-1,59.945,1.0.0.105,1,2141577913,Professional,2.0.10.353,2.0.10.353,10/15/2018,10/15/2018 17:05,13:05:57,2.0.10.248,1,1,1,1,,,,,,,,PracticeProc,BlockList,2,1,Distractor1.bmp,1,0,,1,0,192504,401,,0,0,yellow,400,1,400,,vertical,yellow,Distractor1.bmp,red,Target1.bmp,purple,Distractor1.bmp,lime,Distractor1.bmp,blue,Distractor2.bmp,cyan,Distractor2.bmp,2,1,2,TrialProc,2,PracticeTrialList,1,1,-999999,1,192905,0,1,1569,194474,Target1.bmp,red,1,,,,,,
KW_Experiment5A,21,1,"<?xml version=""1.0""?>\n<Clock xmlns:dt=""urn:schemas-microsoft-com:datatypes""><Description dt:dt=""string"">E-Prime Primary Realtime Clock</Description><StartTime><Timestamp dt:dt=""int"">0</Timestamp><DateUtc dt:dt=""string"">2018-10-15T17:05:57Z</DateUtc></StartTime><FrequencyChanges><FrequencyChange><Frequency dt:dt=""r8"">3215292</Frequency><Timestamp dt:dt=""r8"">5293540642860</Timestamp><Current dt:dt=""r8"">0</Current><DateUtc dt:dt=""string"">2018-10-15T17:05:57Z</DateUtc></FrequencyChange></FrequencyChanges></Clock>\n",KW_Experiment5A-21-1,59.945,1.0.0.105,1,2141577913,Professional,2.0.10.353,2.0.10.353,10/15/2018,10/15/2018 17:05,13:05:57,2.0.10.248,1,1,1,1,,,,,,,,PracticeProc,BlockList,3,1,Distractor1.bmp,1,0,,1,0,195490,401,,0,0,blue,400,1,400,,vertical,cyan,Distractor2.bmp,yellow,Distractor2.bmp,blue,Distractor1.bmp,red,Target1.bmp,purple,Distractor1.bmp,lime,Distractor2.bmp,4,1,3,TrialProc,3,PracticeTrialList,1,1,-999999,1,195891,0,1,1607,197498,Target1.bmp,red,1,,,,,,
KW_Experiment5A,21,1,"<?xml version=""1.0""?>\n<Clock xmlns:dt=""urn:schemas-microsoft-com:datatypes""><Description dt:dt=""string"">E-Prime Primary Realtime Clock</Description><StartTime><Timestamp dt:dt=""int"">0</Timestamp><DateUtc dt:dt=""string"">2018-10-15T17:05:57Z</DateUtc></StartTime><FrequencyChanges><FrequencyChange><Frequency dt:dt=""r8"">3215292</Frequency><Timestamp dt:dt=""r8"">5293540642860</Timestamp><Current dt:dt=""r8"">0</Current><DateUtc dt:dt=""string"">2018-10-15T17:05:57Z</DateUtc></FrequencyChange></FrequencyChanges></Clock>\n",KW_Experiment5A-21-1,59.945,1.0.0.105,1,2141577913,Professional,2.0.10.353,2.0.10.353,10/15/2018,10/15/2018 17:05,13:05:57,2.0.10.248,1,1,1,1,,,,,,,,PracticeProc,BlockList,4,1,Distractor2.bmp,2,0,,0,1,198510,400,,0,0,blue,400,1,400,3,vertical,yellow,Distractor1.bmp,red,Distractor2.bmp,cyan,Distractor1.bmp,blue,Distractor1.bmp,lime,Target1.bmp,purple,Distractor2.bmp,5,1,4,TrialProc,,PracticeTrialList,1,1,-999999,0,198910,0,1,1252,200162,Target1.bmp,lime,1,,,,,,
KW_Experiment5A,21,1,"<?xml version=""1.0""?>\n<Clock xmlns:dt=""urn:schemas-microsoft-com:datatypes""><Description dt:dt=""string"">E-Prime Primary Realtime Clock</Description><StartTime><Timestamp dt:dt=""int"">0</Timestamp><DateUtc dt:dt=""string"">2018-10-15T17:05:57Z</DateUtc></StartTime><FrequencyChanges><FrequencyChange><Frequency dt:dt=""r8"">3215292</Frequency><Timestamp dt:dt=""r8"">5293540642860</Timestamp><Current dt:dt=""r8"">0</Current><DateUtc dt:dt=""string"">2018-10-15T17:05:57Z</DateUtc></FrequencyChange></FrequencyChanges></Clock>\n",KW_Experiment5A-21-1,59.945,1.0.0.105,1,2141577913,Professional,2.0.10.353,2.0.10.353,10/15/2018,10/15/2018 17:05,13:05:57,2.0.10.248,1,1,1,1,,,,,,,,PracticeProc,BlockList,5,2,Distractor1.bmp,1,0,,0,1,201179,500,,0,0,blue,500,2,500,3,horizontal,yellow,Distractor2.bmp,blue,Distractor1.bmp,lime,Target2.bmp,red,Distractor1.bmp,cyan,Distractor2.bmp,purple,Distractor2.bmp,3,1,5,TrialProc,,PracticeTrialList,1,2,-999999,0,201679,0,2,1563,203242,Target2.bmp,lime,2,,,,,,
KW_Experiment5A,21,1,"<?xml version=""1.0""?>\n<Clock xmlns:dt=""urn:schemas-microsoft-com:datatypes""><Description dt:dt=""string"">E-Prime Primary Realtime Clock</Description><StartTime><Timestamp dt:dt=""int"">0</Timestamp><DateUtc dt:dt=""string"">2018-10-15T17:05:57Z</DateUtc></StartTime><FrequencyChanges><FrequencyChange><Frequency dt:dt=""r8"">3215292</Frequency><Timestamp dt:dt=""r8"">5293540642860</Timestamp><Current dt:dt=""r8"">0</Current><DateUtc dt:dt=""string"">2018-10-15T17:05:57Z</DateUtc></FrequencyChange></FrequencyChanges></Clock>\n",KW_Experiment5A-21-1,59.945,1.0.0.105,1,2141577913,Professional,2.0.10.353,2.0.10.353,10/15/2018,10/15/2018 17:05,13:05:57,2.0.10.248,1,1,1,1,,,,,,,,PracticeProc,BlockList,6,2,Distractor2.bmp,2,0,,0,1,204265,601,,0,0,purple,600,3,600,5,horizontal,lime,Target2.bmp,blue,Distractor2.bmp,red,Distractor1.bmp,cyan,Distractor1.bmp,yellow,Distractor1.bmp,purple,Distractor1.bmp,1,1,6,TrialProc,,PracticeTrialList,1,2,-999999,1,204866,0,2,968,205834,Target2.bmp,lime,2,,,,,,
KW_Experiment5A,21,1,"<?xml version=""1.0""?>\n<Clock xmlns:dt=""urn:schemas-microsoft-com:datatypes""><Description dt:dt=""string"">E-Prime Primary Realtime Clock</Description><StartTime><Timestamp dt:dt=""int"">0</Timestamp><DateUtc dt:dt=""string"">2018-10-15T17:05:57Z</DateUtc></StartTime><FrequencyChanges><FrequencyChange><Frequency dt:dt=""r8"">3215292</Frequency><Timestamp dt:dt=""r8"">5293540642860</Timestamp><Current dt:dt=""r8"">0</Current><DateUtc dt:dt=""string"">2018-10-15T17:05:57Z</DateUtc></FrequencyChange></FrequencyChanges></Clock>\n",KW_Experiment5A-21-1,59.945,1.0.0.105,1,2141577913,Professional,2.0.10.353,2.0.10.353,10/15/2018,10/15/2018 17:05,13:05:57,2.0.10.248,2,2,1,2,,,,,,,,TrainingProc,BlockList,1,2,Distractor1.bmp,1,0,,0,25,215275,401,,0,0,yellow,400,1,400,2,horizontal,lime,Target2.bmp,yellow,Distractor1.bmp,red,Distractor2.bmp,cyan,Distractor2.bmp,purple,Distractor1.bmp,blue,Distractor2.bmp,,,,TrialProc,,TrainingTrialList,1,2,-999999,1,215676,0,2,854,216530,Target2.bmp,lime,2,,,,1,1,1
KW_Experiment5A,21,1,"<?xml version=""1.0""?>\n<Clock xmlns:dt=""urn:schemas-microsoft-com:datatypes""><Description dt:dt=""string"">E-Prime Primary Realtime Clock</Description><StartTime><Timestamp dt:dt=""int"">0</Timestamp><DateUtc dt:dt=""string"">2018-10-15T17:05:57Z</DateUtc></StartTime><FrequencyChanges><FrequencyChange><Frequency dt:dt=""r8"">3215292</Frequency><Timestamp dt:dt=""r8"">5293540642860</Timestamp><Current dt:dt=""r8"">0</Current><DateUtc dt:dt=""string"">2018-10-15T17:05:57Z</DateUtc></FrequencyChange></FrequencyChanges></Clock>\n",KW_Experiment5A-21-1,59.945,1.0.0.105,1,2141577913,Professional,2.0.10.353,2.0.10.353,10/15/2018,10/15/2018 17:05,13:05:57,2.0.10.248,2,2,1,2,,,,,,,,TrainingProc,BlockList,2,1,Distractor1.bmp,1,0,,0,1,217544,600,,0,0,purple,600,3,600,5,vertical,purple,Distractor1.bmp,yellow,Distractor2.bmp,red,Distractor1.bmp,blue,Distractor2.bmp,cyan,Distractor2.bmp,lime,Target1.bmp,,,,TrialProc,,TrainingTrialList,1,1,-999999,0,218144,0,1,1114,219258,Target1.bmp,lime,1,,,,6,1,2
KW_Experiment5A,21,1,"<?xml version=""1.0""?>\n<Clock xmlns:dt=""urn:schemas-microsoft-com:datatypes""><Description dt:dt=""string"">E-Prime Primary Realtime Clock</Description><StartTime><Timestamp dt:dt=""int"">0</Timestamp><DateUtc dt:dt=""string"">2018-10-15T17:05:57Z</DateUtc></StartTime><FrequencyChanges><FrequencyChange><Frequency dt:dt=""r8"">3215292</Frequency><Timestamp dt:dt=""r8"">5293540642860</Timestamp><Current dt:dt=""r8"">0</Current><DateUtc dt:dt=""string"">2018-10-15T17:05:57Z</DateUtc></FrequencyChange></FrequencyChanges></Clock>\n",KW_Experiment5A-21-1,59.945,1.0.0.105,1,2141577913,Professional,2.0.10.353,2.0.10.353,10/15/2018,10/15/2018 17:05,13:05:57,2.0.10.248,2,2,1,2,,,,,,,,TrainingProc,BlockList,3,2,Distractor2.bmp,2,0,,0,1,220280,400,,0,0,purple,400,1,400,,horizontal,purple,Distractor2.bmp,lime,Distractor2.bmp,red,Target2.bmp,cyan,Distractor2.bmp,blue,Distractor2.bmp,yellow,Distractor2.bmp,,,,TrialProc,5,TrainingTrialList,1,2,-999999,0,220680,0,2,954,221634,Target2.bmp,red,2,,,,9,1,3
KW_Experiment5A,21,1,"<?xml version=""1.0""?>\n<Clock xmlns:dt=""urn:schemas-microsoft-com:datatypes""><Description dt:dt=""string"">E-Prime Primary Realtime Clock</Description><StartTime><Timestamp dt:dt=""int"">0</Timestamp><DateUtc dt:dt=""string"">2018-10-15T17:05:57Z</DateUtc></StartTime><FrequencyChanges><FrequencyChange><Frequency dt:dt=""r8"">3215292</Frequency><Timestamp dt:dt=""r8"">5293540642860</Timestamp><Current dt:dt=""r8"">0</Current><DateUtc dt:dt=""string"">2018-10-15T17:05:57Z</DateUtc></FrequencyChange></FrequencyChanges></Clock>\n",KW_Experiment5A-21-1,59.945,1.0.0.105,1,2141577913,Professional,2.0.10.353,2.0.10.353,10/15/2018,10/15/2018 17:05,13:05:57,2.0.10.248,2,2,1,2,,,,,,,,TrainingProc,BlockList,4,1,Distractor2.bmp,2,0,,0,1,222649,400,,0,0,blue,400,1,400,3,vertical,blue,Distractor2.bmp,red,Distractor2.bmp,lime,Target1.bmp,purple,Distractor2.bmp,yellow,Distractor1.bmp,cyan,Distractor1.bmp,,,,TrialProc,,TrainingTrialList,1,1,-999999,0,223049,0,1,601,223650,Target1.bmp,lime,1,,,,3,1,4
KW_Experiment5A,21,1,"<?xml version=""1.0""?>\n<Clock xmlns:dt=""urn:schemas-microsoft-com:datatypes""><Description dt:dt=""string"">E-Prime Primary Realtime Clock</Description><StartTime><Timestamp dt:dt=""int"">0</Timestamp><DateUtc dt:dt=""string"">2018-10-15T17:05:57Z</DateUtc></StartTime><FrequencyChanges><FrequencyChange><Frequency dt:dt=""r8"">3215292</Frequency><Timestamp dt:dt=""r8"">5293540642860</Timestamp><Current dt:dt=""r8"">0</Current><DateUtc dt:dt=""string"">2018-10-15T17:05:57Z</DateUtc></FrequencyChange></FrequencyChanges></Clock>\n",KW_Experiment5A-21-1,59.945,1.0.0.105,1,2141577913,Professional,2.0.10.353,2.0.10.353,10/15/2018,10/15/2018 17:05,13:05:57,2.0.10.248,2,2,1,2,,,,,,,,TrainingProc,BlockList,5,1,Distractor1.bmp,1,0,,0,1,224667,400,,0,0,red,400,1,400,1,vertical,lime,Target1.bmp,red,Distractor1.bmp,purple,Distractor2.bmp,yellow,Distractor1.bmp,cyan,Distractor1.bmp,blue,Distractor2.bmp,,,,TrialProc,,TrainingTrialList,1,1,-999999,0,225067,0,1,839,225906,Target1.bmp,lime,1,,,,1,1,5
KW_Experiment5A,21,1,"<?xml version=""1.0""?>\n<Clock xmlns:dt=""urn:schemas-microsoft-com:datatypes""><Description dt:dt=""string"">E-Prime Primary Realtime Clock</Description><StartTime><Timestamp dt:dt=""int"">0</Timestamp><DateUtc dt:dt=""string"">2018-10-15T17:05:57Z</DateUtc></StartTime><FrequencyChanges><FrequencyChange><Frequency dt:dt=""r8"">3215292</Frequency><Timestamp dt:dt=""r8"">5293540642860</Timestamp><Current dt:dt=""r8"">0</Current><DateUtc dt:dt=""string"">2018-10-15T17:05:57Z</DateUtc></FrequencyChange></FrequencyChanges></Clock>\n",KW_Experiment5A-21-1,59.945,1.0.0.105,1,2141577913,Professional,2.0.10.353,2.0.10.353,10/15/2018,10/15/2018 17:05,13:05:57,2.0.10.248,2,2,1,2,,,,,,,,TrainingProc,BlockList,6,1,Distractor2.bmp,2,0,,0,1,226919,400,,0,0,blue,400,1,400,3,vertical,blue,Distractor1.bmp,lime,Target1.bmp,cyan,Distractor2.bmp,purple,Distractor2.bmp,yellow,Distractor1.bmp,red,Distractor2.bmp,,,,TrialProc,,TrainingTrialList,0,1,-999999,0,227319,0,2,746,228065,Target1.bmp,lime,1,,,,2,1,6
KW_Experiment5A,21,1,"<?xml version=""1.0""?>\n<Clock xmlns:dt=""urn:schemas-microsoft-com:datatypes""><Description dt:dt=""string"">E-Prime Primary Realtime Clock</Description><StartTime><Timestamp dt:dt=""int"">0</Timestamp><DateUtc dt:dt=""string"">2018-10-15T17:05:57Z</DateUtc></StartTime><FrequencyChanges><FrequencyChange><Frequency dt:dt=""r8"">3215292</Frequency><Timestamp dt:dt=""r8"">5293540642860</Timestamp><Current dt:dt=""r8"">0</Current><DateUtc dt:dt=""string"">2018-10-15T17:05:57Z</DateUtc></FrequencyChange></FrequencyChanges></Clock>\n",KW_Experiment5A-21-1,59.945,1.0.0.105,1,2141577913,Professional,2.0.10.353,2.0.10.353,10/15/2018,10/15/2018 17:05,13:05:57,2.0.10.248,2,2,1,2,,,,,,,,TrainingProc,BlockList,7,2,Distractor1.bmp,1,0,,0,1,229088,400,,0,0,purple,400,1,400,,horizontal,purple,Distractor1.bmp,blue,Distractor1.bmp,yellow,Distractor2.bmp,cyan,Distractor2.bmp,lime,Distractor1.bmp,red,Target2.bmp,,,,TrialProc,5,TrainingTrialList,1,2,-999999,0,229488,0,2,753,230241,Target2.bmp,red,2,,,,12,1,7
KW_Experiment5A,21,1,"<?xml version=""1.0""?>\n<Clock xmlns:dt=""urn:schemas-microsoft-com:datatypes""><Description dt:dt=""string"">E-Prime Primary Realtime Clock</Description><StartTime><Timestamp dt:dt=""int"">0</Timestamp><DateUtc dt:dt=""string"">2018-10-15T17:05:57Z</DateUtc></StartTime><FrequencyChanges><FrequencyChange><Frequency dt:dt=""r8"">3215292</Frequency><Timestamp dt:dt=""r8"">5293540642860</Timestamp><Current dt:dt=""r8"">0</Current><DateUtc dt:dt=""string"">2018-10-15T17:05:57Z</DateUtc></FrequencyChange></FrequencyChanges></Clock>\n",KW_Experiment5A-21-1,59.945,1.0.0.105,1,2141577913,Professional,2.0.10.353,2.0.10.353,10/15/2018,10/15/2018 17:05,13:05:57,2.0.10.248,2,2,1,2,,,,,,,,TrainingProc,BlockList,8,2,Distractor2.bmp,2,0,,0,1,231256,601,,0,0,cyan,600,3,600,4,horizontal,cyan,Distractor1.bmp,lime,Target2.bmp,purple,Distractor2.bmp,blue,Distractor2.bmp,red,Distractor2.bmp,yellow,Distractor2.bmp,,,,TrialProc,,TrainingTrialList,1,2,-999999,1,231857,0,2,760,232617,Target2.bmp,lime,2,,,,2,1,8
KW_Experiment5A,21,1,"<?xml version=""1.0""?>\n<Clock xmlns:dt=""urn:schemas-microsoft-com:datatypes""><Description dt:dt=""string"">E-Prime Primary Realtime Clock</Description><StartTime><Timestamp dt:dt=""int"">0</Timestamp><DateUtc dt:dt=""string"">2018-10-15T17:05:57Z</DateUtc></StartTime><FrequencyChanges><FrequencyChange><Frequency dt:dt=""r8"">3215292</Frequency><Timestamp dt:dt=""r8"">5293540642860</Timestamp><Current dt:dt=""r8"">0</Current><DateUtc dt:dt=""string"">2018-10-15T17:05:57Z</DateUtc></FrequencyChange></FrequencyChanges></Clock>\n",KW_Experiment5A-21-1,59.945,1.0.0.105,1,2141577913,Professional,2.0.10.353,2.0.10.353,10/15/2018,10/15/2018 17:05,13:05:57,2.0.10.248,2,2,1,2,,,,,,,,TrainingProc,BlockList,9,2,Distractor2.bmp,2,0,,0,1,233642,500,,0,0,purple,500,2,500,5,horizontal,purple,Distractor2.bmp,blue,Distractor1.bmp,red,Distractor2.bmp,cyan,Distractor2.bmp,yellow,Distractor2.bmp,lime,Target2.bmp,,,,TrialProc,,TrainingTrialList,1,2,-999999,0,234142,0,2,571,234713,Target2.bmp,lime,2,,,,6,1,9
KW_Experiment5A,21,1,"<?xml version=""1.0""?>\n<Clock xmlns:dt=""urn:schemas-microsoft-com:datatypes""><Description dt:dt=""string"">E-Prime Primary Realtime Clock</Description><StartTime><Timestamp dt:dt=""int"">0</Timestamp><DateUtc dt:dt=""string"">2018-10-15T17:05:57Z</DateUtc></StartTime><FrequencyChanges><FrequencyChange><Frequency dt:dt=""r8"">3215292</Frequency><Timestamp dt:dt=""r8"">5293540642860</Timestamp><Current dt:dt=""r8"">0</Current><DateUtc dt:dt=""string"">2018-10-15T17:05:57Z</DateUtc></FrequencyChange></FrequencyChanges></Clock>\n",KW_Experiment5A-21-1,59.945,1.0.0.105,1,2141577913,Professional,2.0.10.353,2.0.10.353,10/15/2018,10/15/2018 17:05,13:05:57,2.0.10.248,2,2,1,2,,,,,,,,TrainingProc,BlockList,10,2,Distractor1.bmp,1,0,,0,1,235727,501,,0,0,cyan,500,2,500,,horizontal,cyan,Distractor2.bmp,red,Target2.bmp,lime,Distractor1.bmp,purple,Distractor2.bmp,blue,Distractor2.bmp,yellow,Distractor2.bmp,,,,TrialProc,4,TrainingTrialList,1,2,-999999,1,236228,0,2,717,236945,Target2.bmp,red,2,,,,8,1,10
KW_Experiment5A,21,1,"<?xml version=""1.0""?>\n<Clock xmlns:dt=""urn:schemas-microsoft-com:datatypes""><Description dt:dt=""string"">E-Prime Primary Realtime Clock</Description><StartTime><Timestamp dt:dt=""int"">0</Timestamp><DateUtc dt:dt=""string"">2018-10-15T17:05:57Z</DateUtc></StartTime><FrequencyChanges><FrequencyChange><Frequency dt:dt=""r8"">3215292</Frequency><Timestamp dt:dt=""r8"">5293540642860</Timestamp><Current dt:dt=""r8"">0</Current><DateUtc dt:dt=""string"">2018-10-15T17:05:57Z</DateUtc></FrequencyChange></FrequencyChanges></Clock>\n",KW_Experiment5A-21-1,59.945,1.0.0.105,1,2141577913,Professional,2.0.10.353,2.0.10.353,10/15/2018,10/15/2018 17:05,13:05:57,2.0.10.248,2,2,1,2,,,,,,,,TrainingProc,BlockList,11,2,Distractor1.bmp,1,0,,0,0,237962,601,,0,0,cyan,600,3,600,4,horizontal,cyan,Distractor1.bmp,red,Distractor2.bmp,lime,Target2.bmp,yellow,Distractor1.bmp,blue,Distractor2.bmp,purple,Distractor1.bmp,,,,TrialProc,,TrainingTrialList,1,2,-999999,1,238563,0,2,614,239177,Target2.bmp,lime,2,,,,3,1,11
KW_Experiment5A,21,1,"<?xml version=""1.0""?>\n<Clock xmlns:dt=""urn:schemas-microsoft-com:datatypes""><Description dt:dt=""string"">E-Prime Primary Realtime Clock</Description><StartTime><Timestamp dt:dt=""int"">0</Timestamp><DateUtc dt:dt=""string"">2018-10-15T17:05:57Z</DateUtc></StartTime><FrequencyChanges><FrequencyChange><Frequency dt:dt=""r8"">3215292</Frequency><Timestamp dt:dt=""r8"">5293540642860</Timestamp><Current dt:dt=""r8"">0</Current><DateUtc dt:dt=""string"">2018-10-15T17:05:57Z</DateUtc></FrequencyChange></FrequencyChanges></Clock>\n",KW_Experiment5A-21-1,59.945,1.0.0.105,1,2141577913,Professional,2.0.10.353,2.0.10.353,10/15/2018,10/15/2018 17:05,13:05:57,2.0.10.248,2,2,1,2,,,,,,,,TrainingProc,BlockList,12,2,Distractor1.bmp,1,0,,0,1,240198,400,,0,0,cyan,400,1,400,4,horizontal,cyan,Distractor1.bmp,lime,Target2.bmp,purple,Distractor1.bmp,red,Distractor2.bmp,blue,Distractor1.bmp,yellow,Distractor2.bmp,,,,TrialProc,,TrainingTrialList,1,2,-999999,0,240598,0,2,659,241257,Target2.bmp,lime,2,,,,2,1,12
KW_Experiment5A,21,1,"<?xml version=""1.0""?>\n<Clock xmlns:dt=""urn:schemas-microsoft-com:datatypes""><Description dt:dt=""string"">E-Prime Primary Realtime Clock</Description><StartTime><Timestamp dt:dt=""int"">0</Timestamp><DateUtc dt:dt=""string"">2018-10-15T17:05:57Z</DateUtc></StartTime><FrequencyChanges><FrequencyChange><Frequency dt:dt=""r8"">3215292</Frequency><Timestamp dt:dt=""r8"">5293540642860</Timestamp><Current dt:dt=""r8"">0</Current><DateUtc dt:dt=""string"">2018-10-15T17:05:57Z</DateUtc></FrequencyChange></FrequencyChanges></Clock>\n",KW_Experiment5A-21-1,59.945,1.0.0.105,1,2141577913,Professional,2.0.10.353,2.0.10.353,10/15/2018,10/15/2018 17:05,13:05:57,2.0.10.248,2,2,1,2,,,,,,,,TrainingProc,BlockList,13,2,Distractor2.bmp,2,0,,0,1,242266,601,,0,0,yellow,600,3,600,2,horizontal,yellow,Distractor2.bmp,red,Distractor1.bmp,blue,Distractor2.bmp,cyan,Distractor1.bmp,purple,Distractor2.bmp,lime,Target2.bmp,,,,TrialProc,,TrainingTrialList,0,2,-999999,1,242867,0,1,622,243489,Target2.bmp,lime,2,,,,6,1,13
KW_Experiment5A,21,1,"<?xml version=""1.0""?>\n<Clock xmlns:dt=""urn:schemas-microsoft-com:datatypes""><Description dt:dt=""string"">E-Prime Primary Realtime Clock</Description><StartTime><Timestamp dt:dt=""int"">0</Timestamp><DateUtc dt:dt=""string"">2018-10-15T17:05:57Z</DateUtc></StartTime><FrequencyChanges><FrequencyChange><Frequency dt:dt=""r8"">3215292</Frequency><Timestamp dt:dt=""r8"">5293540642860</Timestamp><Current dt:dt=""r8"">0</Current><DateUtc dt:dt=""string"">2018-10-15T17:05:57Z</DateUtc></FrequencyChange></FrequencyChanges></Clock>\n",KW_Experiment5A-21-1,59.945,1.0.0.105,1,2141577913,Professional,2.0.10.353,2.0.10.353,10/15/2018,10/15/2018 17:05,13:05:57,2.0.10.248,2,2,1,2,,,,,,,,TrainingProc,BlockList,14,1,Distractor2.bmp,2,0,,0,1,244502,500,,0,0,blue,500,2,500,3,vertical,blue,Distractor2.bmp,yellow,Distractor1.bmp,purple,Distractor2.bmp,red,Distractor1.bmp,lime,Target1.bmp,cyan,Distractor2.bmp,,,,TrialProc,,TrainingTrialList,1,1,-999999,0,245002,0,1,639,245641,Target1.bmp,lime,1,,,,5,1,14
KW_Experiment5A,21,1,"<?xml version=""1.0""?>\n<Clock xmlns:dt=""urn:schemas-microsoft-com:datatypes""><Description dt:dt=""string"">E-Prime Primary Realtime Clock</Description><StartTime><Timestamp dt:dt=""int"">0</Timestamp><DateUtc dt:dt=""string"">2018-10-15T17:05:57Z</DateUtc></StartTime><FrequencyChanges><FrequencyChange><Frequency dt:dt=""r8"">3215292</Frequency><Timestamp dt:dt=""r8"">5293540642860</Timestamp><Current dt:dt=""r8"">0</Current><DateUtc dt:dt=""string"">2018-10-15T17:05:57Z</DateUtc></FrequencyChange></FrequencyChanges></Clock>\n",KW_Experiment5A-21-1,59.945,1.0.0.105,1,2141577913,Professional,2.0.10.353,2.0.10.353,10/15/2018,10/15/2018 17:05,13:05:57,2.0.10.248,2,2,1,2,,,,,,,,TrainingProc,BlockList,15,2,Distractor1.bmp,1,0,,0,1,246654,600,,0,0,lime,600,3,600,,horizontal,red,Target2.bmp,yellow,Distractor1.bmp,blue,Distractor2.bmp,cyan,Distractor1.bmp,purple,Distractor2.bmp,lime,Distractor1.bmp,,,,TrialProc,6,TrainingTrialList,1,2,-999999,0,247254,0,2,619,247873,Target2.bmp,red,2,,,,7,1,15
KW_Experiment5A,21,1,"<?xml version=""1.0""?>\n<Clock xmlns:dt=""urn:schemas-microsoft-com:datatypes""><Description dt:dt=""string"">E-Prime Primary Realtime Clock</Description><StartTime><Timestamp dt:dt=""int"">0</Timestamp><DateUtc dt:dt=""string"">2018-10-15T17:05:57Z</DateUtc></StartTime><FrequencyChanges><FrequencyChange><Frequency dt:dt=""r8"">3215292</Frequency><Timestamp dt:dt=""r8"">5293540642860</Timestamp><Current dt:dt=""r8"">0</Current><DateUtc dt:dt=""string"">2018-10-15T17:05:57Z</DateUtc></FrequencyChange></FrequencyChanges></Clock>\n",KW_Experiment5A-21-1,59.945,1.0.0.105,1,2141577913,Professional,2.0.10.353,2.0.10.353,10/15/2018,10/15/2018 17:05,13:05:57,2.0.10.248,2,2,1,2,,,,,,,,TrainingProc,BlockList,16,2,Distractor1.bmp,1,0,,0,1,248889,601,,0,0,blue,600,3,600,3,horizontal,blue,Distractor2.bmp,purple,Distractor1.bmp,yellow,Distractor2.bmp,lime,Target2.bmp,red,Distractor1.bmp,cyan,Distractor2.bmp,,,,TrialProc,,TrainingTrialList,1,2,-999999,1,249490,0,2,655,250145,Target2.bmp,lime,2,,,,4,1,16
KW_Experiment5A,21,1,"<?xml version=""1.0""?>\n<Clock xmlns:dt=""urn:schemas-microsoft-com:datatypes""><Description dt:dt=""string"">E-Prime Primary Realtime Clock</Description><StartTime><Timestamp dt:dt=""int"">0</Timestamp><DateUtc dt:dt=""string"">2018-10-15T17:05:57Z</DateUtc></StartTime><FrequencyChanges><FrequencyChange><Frequency dt:dt=""r8"">3215292</Frequency><Timestamp dt:dt=""r8"">5293540642860</Timestamp><Current dt:dt=""r8"">0</Current><DateUtc dt:dt=""string"">2018-10-15T17:05:57Z</DateUtc></FrequencyChange></FrequencyChanges></Clock>\n",KW_Experiment5A-21-1,59.945,1.0.0.105,1,2141577913,Professional,2.0.10.353,2.0.10.353,10/15/2018,10/15/2018 17:05,13:05:57,2.0.10.248,2,2,1,2,,,,,,,,TrainingProc,BlockList,17,2,Distractor2.bmp,2,0,,0,1,251158,400,,0,0,blue,400,1,400,3,horizontal,lime,Target2.bmp,blue,Distractor2.bmp,red,Distractor2.bmp,purple,Distractor2.bmp,yellow,Distractor2.bmp,cyan,Distractor1.bmp,,,,TrialProc,,TrainingTrialList,1,2,-999999,0,251558,0,2,707,252265,Target2.bmp,lime,2,,,,1,1,17
KW_Experiment5A,21,1,"<?xml version=""1.0""?>\n<Clock xmlns:dt=""urn:schemas-microsoft-com:datatypes""><Description dt:dt=""string"">E-Prime Primary Realtime Clock</Description><StartTime><Timestamp dt:dt=""int"">0</Timestamp><DateUtc dt:dt=""string"">2018-10-15T17:05:57Z</DateUtc></StartTime><FrequencyChanges><FrequencyChange><Frequency dt:dt=""r8"">3215292</Frequency><Timestamp dt:dt=""r8"">5293540642860</Timestamp><Current dt:dt=""r8"">0</Current><DateUtc dt:dt=""string"">2018-10-15T17:05:57Z</DateUtc></FrequencyChange></FrequencyChanges></Clock>\n",KW_Experiment5A-21-1,59.945,1.0.0.105,1,2141577913,Professional,2.0.10.353,2.0.10.353,10/15/2018,10/15/2018 17:05,13:05:57,2.0.10.248,2,2,1,2,,,,,,,,TrainingProc,BlockList,18,1,Distractor2.bmp,2,0,,0,1,253276,401,,0,0,red,400,1,400,1,vertical,red,Distractor1.bmp,cyan,Distractor2.bmp,purple,Distractor2.bmp,lime,Target1.bmp,blue,Distractor2.bmp,yellow,Distractor1.bmp,,,,TrialProc,,TrainingTrialList,1,1,-999999,1,253677,0,1,532,254209,Target1.bmp,lime,1,,,,4,1,18
KW_Experiment5A,21,1,"<?xml version=""1.0""?>\n<Clock xmlns:dt=""urn:schemas-microsoft-com:datatypes""><Description dt:dt=""string"">E-Prime Primary Realtime Clock</Description><StartTime><Timestamp dt:dt=""int"">0</Timestamp><DateUtc dt:dt=""string"">2018-10-15T17:05:57Z</DateUtc></StartTime><FrequencyChanges><FrequencyChange><Frequency dt:dt=""r8"">3215292</Frequency><Timestamp dt:dt=""r8"">5293540642860</Timestamp><Current dt:dt=""r8"">0</Current><DateUtc dt:dt=""string"">2018-10-15T17:05:57Z</DateUtc></FrequencyChange></FrequencyChanges></Clock>\n",KW_Experiment5A-21-1,59.945,1.0.0.105,1,2141577913,Professional,2.0.10.353,2.0.10.353,10/15/2018,10/15/2018 17:05,13:05:57,2.0.10.248,2,2,1,2,,,,,,,,TrainingProc,BlockList,19,1,Distractor1.bmp,1,0,,0,1,255228,501,,0,0,blue,500,2,500,3,vertical,blue,Distractor2.bmp,purple,Distractor1.bmp,yellow,Distractor1.bmp,lime,Target1.bmp,cyan,Distractor1.bmp,red,Distractor2.bmp,,,,TrialProc,,TrainingTrialList,1,1,-999999,1,255729,0,1,496,256225,Target1.bmp,lime,1,,,,4,1,19
KW_Experiment5A,21,1,"<?xml version=""1.0""?>\n<Clock xmlns:dt=""urn:schemas-microsoft-com:datatypes""><Description dt:dt=""string"">E-Prime Primary Realtime Clock</Description><StartTime><Timestamp dt:dt=""int"">0</Timestamp><DateUtc dt:dt=""string"">2018-10-15T17:05:57Z</DateUtc></StartTime><FrequencyChanges><FrequencyChange><Frequency dt:dt=""r8"">3215292</Frequency><Timestamp dt:dt=""r8"">5293540642860</Timestamp><Current dt:dt=""r8"">0</Current><DateUtc dt:dt=""string"">2018-10-15T17:05:57Z</DateUtc></FrequencyChange></FrequencyChanges></Clock>\n",KW_Experiment5A-21-1,59.945,1.0.0.105,1,2141577913,Professional,2.0.10.353,2.0.10.353,10/15/2018,10/15/2018 17:05,13:05:57,2.0.10.248,2,2,1,2,,,,,,,,TrainingProc,BlockList,20,2,Distractor2.bmp,2,0,,0,1,257247,500,,0,0,blue,500,2,500,3,horizontal,blue,Distractor2.bmp,red,Distractor2.bmp,cyan,Distractor1.bmp,yellow,Distractor1.bmp,lime,Target2.bmp,purple,Distractor2.bmp,,,,TrialProc,,TrainingTrialList,1,2,-999999,0,257747,0,2,846,258593,Target2.bmp,lime,2,,,,5,1,20
KW_Experiment5A,21,1,"<?xml version=""1.0""?>\n<Clock xmlns:dt=""urn:schemas-microsoft-com:datatypes""><Description dt:dt=""string"">E-Prime Primary Realtime Clock</Description><StartTime><Timestamp dt:dt=""int"">0</Timestamp><DateUtc dt:dt=""string"">2018-10-15T17:05:57Z</DateUtc></StartTime><FrequencyChanges><FrequencyChange><Frequency dt:dt=""r8"">3215292</Frequency><Timestamp dt:dt=""r8"">5293540642860</Timestamp><Current dt:dt=""r8"">0</Current><DateUtc dt:dt=""string"">2018-10-15T17:05:57Z</DateUtc></FrequencyChange></FrequencyChanges></Clock>\n",KW_Experiment5A-21-1,59.945,1.0.0.105,1,2141577913,Professional,2.0.10.353,2.0.10.353,10/15/2018,10/15/2018 17:05,13:05:57,2.0.10.248,2,2,1,2,,,,,,,,TrainingProc,BlockList,21,2,Distractor1.bmp,1,0,,1,0,259615,401,,0,0,blue,400,1,400,,horizontal,blue,Distractor1.bmp,cyan,Distractor2.bmp,yellow,Distractor2.bmp,purple,Distractor2.bmp,red,Target2.bmp,lime,Distractor1.bmp,,,,TrialProc,3,TrainingTrialList,1,2,-999999,1,260016,0,2,737,260753,Target2.bmp,red,2,,,,11,1,21
KW_Experiment5A,21,1,"<?xml version=""1.0""?>\n<Clock xmlns:dt=""urn:schemas-microsoft-com:datatypes""><Description dt:dt=""string"">E-Prime Primary Realtime Clock</Description><StartTime><Timestamp dt:dt=""int"">0</Timestamp><DateUtc dt:dt=""string"">2018-10-15T17:05:57Z</DateUtc></StartTime><FrequencyChanges><FrequencyChange><Frequency dt:dt=""r8"">3215292</Frequency><Timestamp dt:dt=""r8"">5293540642860</Timestamp><Current dt:dt=""r8"">0</Current><DateUtc dt:dt=""string"">2018-10-15T17:05:57Z</DateUtc></FrequencyChange></FrequencyChanges></Clock>\n",KW_Experiment5A-21-1,59.945,1.0.0.105,1,2141577913,Professional,2.0.10.353,2.0.10.353,10/15/2018,10/15/2018 17:05,13:05:57,2.0.10.248,2,2,1,2,,,,,,,,TrainingProc,BlockList,22,2,Distractor1.bmp,1,0,,0,0,261767,601,,0,0,purple,600,3,600,,horizontal,purple,Distractor2.bmp,lime,Distractor1.bmp,yellow,Distractor2.bmp,red,Target2.bmp,cyan,Distractor1.bmp,blue,Distractor1.bmp,,,,TrialProc,5,TrainingTrialList,1,2,-999999,1,262368,0,2,513,262881,Target2.bmp,red,2,,,,10,1,22
KW_Experiment5A,21,1,"<?xml version=""1.0""?>\n<Clock xmlns:dt=""urn:schemas-microsoft-com:datatypes""><Description dt:dt=""string"">E-Prime Primary Realtime Clock</Description><StartTime><Timestamp dt:dt=""int"">0</Timestamp><DateUtc dt:dt=""string"">2018-10-15T17:05:57Z</DateUtc></StartTime><FrequencyChanges><FrequencyChange><Frequency dt:dt=""r8"">3215292</Frequency><Timestamp dt:dt=""r8"">5293540642860</Timestamp><Current dt:dt=""r8"">0</Current><DateUtc dt:dt=""string"">2018-10-15T17:05:57Z</DateUtc></FrequencyChange></FrequencyChanges></Clock>\n",KW_Experiment5A-21-1,59.945,1.0.0.105,1,2141577913,Professional,2.0.10.353,2.0.10.353,10/15/2018,10/15/2018 17:05,13:05:57,2.0.10.248,2,2,1,2,,,,,,,,TrainingProc,BlockList,23,1,Distractor1.bmp,1,0,,0,1,263903,500,,0,0,yellow,500,2,500,2,vertical,yellow,Distractor2.bmp,purple,Distractor2.bmp,cyan,Distractor1.bmp,blue,Distractor2.bmp,lime,Target1.bmp,red,Distractor1.bmp,,,,TrialProc,,TrainingTrialList,1,1,-999999,0,264403,0,1,622,265025,Target1.bmp,lime,1,,,,5,1,23
KW_Experiment5A,21,1,"<?xml version=""1.0""?>\n<Clock xmlns:dt=""urn:schemas-microsoft-com:datatypes""><Description dt:dt=""string"">E-Prime Primary Realtime Clock</Description><StartTime><Timestamp dt:dt=""int"">0</Timestamp><DateUtc dt:dt=""string"">2018-10-15T17:05:57Z</DateUtc></StartTime><FrequencyChanges><FrequencyChange><Frequency dt:dt=""r8"">3215292</Frequency><Timestamp dt:dt=""r8"">5293540642860</Timestamp><Current dt:dt=""r8"">0</Current><DateUtc dt:dt=""string"">2018-10-15T17:05:57Z</DateUtc></FrequencyChange></FrequencyChanges></Clock>\n",KW_Experiment5A-21-1,59.945,1.0.0.105,1,2141577913,Professional,2.0.10.353,2.0.10.353,10/15/2018,10/15/2018 17:05,13:05:57,2.0.10.248,2,2,1,2,,,,,,,,TrainingProc,BlockList,24,1,Distractor2.bmp,2,0,,0,1,266038,600,,0,0,blue,600,3,600,3,vertical,blue,Distractor2.bmp,yellow,Distractor1.bmp,lime,Target1.bmp,purple,Distractor2.bmp,red,Distractor2.bmp,cyan,Distractor2.bmp,,,,TrialProc,,TrainingTrialList,0,1,-999999,0,266638,0,2,715,267353,Target1.bmp,lime,1,,,,3,1,24
KW_Experiment5A,21,1,"<?xml version=""1.0""?>\n<Clock xmlns:dt=""urn:schemas-microsoft-com:datatypes""><Description dt:dt=""string"">E-Prime Primary Realtime Clock</Description><StartTime><Timestamp dt:dt=""int"">0</Timestamp><DateUtc dt:dt=""string"">2018-10-15T17:05:57Z</DateUtc></StartTime><FrequencyChanges><FrequencyChange><Frequency dt:dt=""r8"">3215292</Frequency><Timestamp dt:dt=""r8"">5293540642860</Timestamp><Current dt:dt=""r8"">0</Current><DateUtc dt:dt=""string"">2018-10-15T17:05:57Z</DateUtc></FrequencyChange></FrequencyChanges></Clock>\n",KW_Experiment5A-21-1,59.945,1.0.0.105,1,2141577913,Professional,2.0.10.353,2.0.10.353,10/15/2018,10/15/2018 17:05,13:05:57,2.0.10.248,2,2,1,2,,,,,,,,TrainingProc,BlockList,25,1,Distractor1.bmp,1,0,,0,1,268373,401,,0,0,yellow,400,1,400,2,vertical,yellow,Distractor2.bmp,cyan,Distractor1.bmp,lime,Target1.bmp,blue,Distractor1.bmp,purple,Distractor2.bmp,red,Distractor2.bmp,,,,TrialProc,,TrainingTrialList,1,1,-999999,1,268774,0,1,570,269344,Target1.bmp,lime,1,,,,3,2,25
KW_Experiment5A,21,1,"<?xml version=""1.0""?>\n<Clock xmlns:dt=""urn:schemas-microsoft-com:datatypes""><Description dt:dt=""string"">E-Prime Primary Realtime Clock</Description><StartTime><Timestamp dt:dt=""int"">0</Timestamp><DateUtc dt:dt=""string"">2018-10-15T17:05:57Z</DateUtc></StartTime><FrequencyChanges><FrequencyChange><Frequency dt:dt=""r8"">3215292</Frequency><Timestamp dt:dt=""r8"">5293540642860</Timestamp><Current dt:dt=""r8"">0</Current><DateUtc dt:dt=""string"">2018-10-15T17:05:57Z</DateUtc></FrequencyChange></FrequencyChanges></Clock>\n",KW_Experiment5A-21-1,59.945,1.0.0.105,1,2141577913,Professional,2.0.10.353,2.0.10.353,10/15/2018,10/15/2018 17:05,13:05:57,2.0.10.248,2,2,1,2,,,,,,,,TrainingProc,BlockList,26,2,Distractor1.bmp,1,0,,0,1,270359,600,,0,0,blue,600,3,600,3,horizontal,blue,Distractor1.bmp,yellow,Distractor1.bmp,red,Distractor2.bmp,purple,Distractor2.bmp,lime,Target2.bmp,cyan,Distractor1.bmp,,,,TrialProc,,TrainingTrialList,1,2,-999999,0,270959,0,2,553,271512,Target2.bmp,lime,2,,,,5,2,26
KW_Experiment5A,21,1,"<?xml version=""1.0""?>\n<Clock xmlns:dt=""urn:schemas-microsoft-com:datatypes""><Description dt:dt=""string"">E-Prime Primary Realtime Clock</Description><StartTime><Timestamp dt:dt=""int"">0</Timestamp><DateUtc dt:dt=""string"">2018-10-15T17:05:57Z</DateUtc></StartTime><FrequencyChanges><FrequencyChange><Frequency dt:dt=""r8"">3215292</Frequency><Timestamp dt:dt=""r8"">5293540642860</Timestamp><Current dt:dt=""r8"">0</Current><DateUtc dt:dt=""string"">2018-10-15T17:05:57Z</DateUtc></FrequencyChange></FrequencyChanges></Clock>\n",KW_Experiment5A-21-1,59.945,1.0.0.105,1,2141577913,Professional,2.0.10.353,2.0.10.353,10/15/2018,10/15/2018 17:05,13:05:57,2.0.10.248,2,2,1,2,,,,,,,,TrainingProc,BlockList,27,1,Distractor2.bmp,2,0,,0,1,272527,601,,0,0,yellow,600,3,600,2,vertical,yellow,Distractor1.bmp,lime,Target1.bmp,red,Distractor2.bmp,purple,Distractor2.bmp,blue,Distractor2.bmp,cyan,Distractor2.bmp,,,,TrialProc,,TrainingTrialList,1,1,-999999,1,273128,0,1,496,273624,Target1.bmp,lime,1,,,,2,2,27
KW_Experiment5A,21,1,"<?xml version=""1.0""?>\n<Clock xmlns:dt=""urn:schemas-microsoft-com:datatypes""><Description dt:dt=""string"">E-Prime Primary Realtime Clock</Description><StartTime><Timestamp dt:dt=""int"">0</Timestamp><DateUtc dt:dt=""string"">2018-10-15T17:05:57Z</DateUtc></StartTime><FrequencyChanges><FrequencyChange><Frequency dt:dt=""r8"">3215292</Frequency><Timestamp dt:dt=""r8"">5293540642860</Timestamp><Current dt:dt=""r8"">0</Current><DateUtc dt:dt=""string"">2018-10-15T17:05:57Z</DateUtc></FrequencyChange></FrequencyChanges></Clock>\n",KW_Experiment5A-21-1,59.945,1.0.0.105,1,2141577913,Professional,2.0.10.353,2.0.10.353,10/15/2018,10/15/2018 17:05,13:05:57,2.0.10.248,2,2,1,2,,,,,,,,TrainingProc,BlockList,28,1,Distractor2.bmp,2,0,,0,1,274646,600,,0,0,yellow,600,3,600,2,vertical,yellow,Distractor1.bmp,purple,Distractor1.bmp,cyan,Distractor2.bmp,lime,Target1.bmp,blue,Distractor2.bmp,red,Distractor1.bmp,,,,TrialProc,,TrainingTrialList,1,1,-999999,0,275246,0,1,482,275728,Target1.bmp,lime,1,,,,4,2,28
KW_Experiment5A,21,1,"<?xml version=""1.0""?>\n<Clock xmlns:dt=""urn:schemas-microsoft-com:datatypes""><Description dt:dt=""string"">E-Prime Primary Realtime Clock</Description><StartTime><Timestamp dt:dt=""int"">0</Timestamp><DateUtc dt:dt=""string"">2018-10-15T17:05:57Z</DateUtc></StartTime><FrequencyChanges><FrequencyChange><Frequency dt:dt=""r8"">3215292</Frequency><Timestamp dt:dt=""r8"">5293540642860</Timestamp><Current dt:dt=""r8"">0</Current><DateUtc dt:dt=""string"">2018-10-15T17:05:57Z</DateUtc></FrequencyChange></FrequencyChanges></Clock>\n",KW_Experiment5A-21-1,59.945,1.0.0.105,1,2141577913,Professional,2.0.10.353,2.0.10.353,10/15/2018,10/15/2018 17:05,13:05:57,2.0.10.248,2,2,1,2,,,,,,,,TrainingProc,BlockList,29,1,Distractor2.bmp,2,0,,0,1,276748,600,,0,0,purple,600,3,600,5,vertical,purple,Distractor1.bmp,red,Distractor1.bmp,lime,Target1.bmp,cyan,Distractor2.bmp,yellow,Distractor1.bmp,blue,Distractor1.bmp,,,,TrialProc,,TrainingTrialList,1,1,-999999,0,277348,0,1,684,278032,Target1.bmp,lime,1,,,,3,2,29
KW_Experiment5A,21,1,"<?xml version=""1.0""?>\n<Clock xmlns:dt=""urn:schemas-microsoft-com:datatypes""><Description dt:dt=""string"">E-Prime Primary Realtime Clock</Description><StartTime><Timestamp dt:dt=""int"">0</Timestamp><DateUtc dt:dt=""string"">2018-10-15T17:05:57Z</DateUtc></StartTime><FrequencyChanges><FrequencyChange><Frequency dt:dt=""r8"">3215292</Frequency><Timestamp dt:dt=""r8"">5293540642860</Timestamp><Current dt:dt=""r8"">0</Current><DateUtc dt:dt=""string"">2018-10-15T17:05:57Z</DateUtc></FrequencyChange></FrequencyChanges></Clock>\n",KW_Experiment5A-21-1,59.945,1.0.0.105,1,2141577913,Professional,2.0.10.353,2.0.10.353,10/15/2018,10/15/2018 17:05,13:05:57,2.0.10.248,2,2,1,2,,,,,,,,TrainingProc,BlockList,30,2,Distractor2.bmp,2,0,,0,1,279050,500,,0,0,cyan,500,2,500,4,horizontal,cyan,Distractor2.bmp,lime,Target2.bmp,yellow,Distractor2.bmp,purple,Distractor2.bmp,blue,Distractor2.bmp,red,Distractor2.bmp,,,,TrialProc,,TrainingTrialList,1,2,-999999,0,279550,0,2,594,280144,Target2.bmp,lime,2,,,,2,2,30
KW_Experiment5A,21,1,"<?xml version=""1.0""?>\n<Clock xmlns:dt=""urn:schemas-microsoft-com:datatypes""><Description dt:dt=""string"">E-Prime Primary Realtime Clock</Description><StartTime><Timestamp dt:dt=""int"">0</Timestamp><DateUtc dt:dt=""string"">2018-10-15T17:05:57Z</DateUtc></StartTime><FrequencyChanges><FrequencyChange><Frequency dt:dt=""r8"">3215292</Frequency><Timestamp dt:dt=""r8"">5293540642860</Timestamp><Current dt:dt=""r8"">0</Current><DateUtc dt:dt=""string"">2018-10-15T17:05:57Z</DateUtc></FrequencyChange></FrequencyChanges></Clock>\n",KW_Experiment5A-21-1,59.945,1.0.0.105,1,2141577913,Professional,2.0.10.353,2.0.10.353,10/15/2018,10/15/2018 17:05,13:05:57,2.0.10.248,2,2,1,2,,,,,,,,TrainingProc,BlockList,31,2,Distractor1.bmp,1,0,,0,1,281168,401,,0,0,yellow,400,1,400,2,horizontal,yellow,Distractor2.bmp,lime,Target2.bmp,red,Distractor1.bmp,purple,Distractor1.bmp,cyan,Distractor2.bmp,blue,Distractor2.bmp,,,,TrialProc,,TrainingTrialList,1,2,-999999,1,281569,0,2,727,282296,Target2.bmp,lime,2,,,,2,2,31
KW_Experiment5A,21,1,"<?xml version=""1.0""?>\n<Clock xmlns:dt=""urn:schemas-microsoft-com:datatypes""><Description dt:dt=""string"">E-Prime Primary Realtime Clock</Description><StartTime><Timestamp dt:dt=""int"">0</Timestamp><DateUtc dt:dt=""string"">2018-10-15T17:05:57Z</DateUtc></StartTime><FrequencyChanges><FrequencyChange><Frequency dt:dt=""r8"">3215292</Frequency><Timestamp dt:dt=""r8"">5293540642860</Timestamp><Current dt:dt=""r8"">0</Current><DateUtc dt:dt=""string"">2018-10-15T17:05:57Z</DateUtc></FrequencyChange></FrequencyChanges></Clock>\n",KW_Experiment5A-21-1,59.945,1.0.0.105,1,2141577913,Professional,2.0.10.353,2.0.10.353,10/15/2018,10/15/2018 17:05,13:05:57,2.0.10.248,2,2,1,2,,,,,,,,TrainingProc,BlockList,32,1,Distractor1.bmp,1,0,,0,1,283320,401,,0,0,lime,400,1,400,,vertical,lime,Distractor2.bmp,purple,Distractor2.bmp,yellow,Distractor1.bmp,cyan,Distractor2.bmp,red,Target1.bmp,blue,Distractor1.bmp,,,,TrialProc,6,TrainingTrialList,1,1,-999999,1,283721,0,1,551,284272,Target1.bmp,red,1,,,,11,2,32
KW_Experiment5A,21,1,"<?xml version=""1.0""?>\n<Clock xmlns:dt=""urn:schemas-microsoft-com:datatypes""><Description dt:dt=""string"">E-Prime Primary Realtime Clock</Description><StartTime><Timestamp dt:dt=""int"">0</Timestamp><DateUtc dt:dt=""string"">2018-10-15T17:05:57Z</DateUtc></StartTime><FrequencyChanges><FrequencyChange><Frequency dt:dt=""r8"">3215292</Frequency><Timestamp dt:dt=""r8"">5293540642860</Timestamp><Current dt:dt=""r8"">0</Current><DateUtc dt:dt=""string"">2018-10-15T17:05:57Z</DateUtc></FrequencyChange></FrequencyChanges></Clock>\n",KW_Experiment5A-21-1,59.945,1.0.0.105,1,2141577913,Professional,2.0.10.353,2.0.10.353,10/15/2018,10/15/2018 17:05,13:05:57,2.0.10.248,2,2,1,2,,,,,,,,TrainingProc,BlockList,33,2,Distractor2.bmp,2,0,,0,1,285289,500,,0,0,blue,500,2,500,3,horizontal,blue,Distractor1.bmp,cyan,Distractor2.bmp,red,Distractor1.bmp,purple,Distractor1.bmp,lime,Target2.bmp,yellow,Distractor2.bmp,,,,TrialProc,,TrainingTrialList,0,2,-999999,0,285789,0,1,579,286368,Target2.bmp,lime,2,,,,5,2,33
KW_Experiment5A,21,1,"<?xml version=""1.0""?>\n<Clock xmlns:dt=""urn:schemas-microsoft-com:datatypes""><Description dt:dt=""string"">E-Prime Primary Realtime Clock</Description><StartTime><Timestamp dt:dt=""int"">0</Timestamp><DateUtc dt:dt=""string"">2018-10-15T17:05:57Z</DateUtc></StartTime><FrequencyChanges><FrequencyChange><Frequency dt:dt=""r8"">3215292</Frequency><Timestamp dt:dt=""r8"">5293540642860</Timestamp><Current dt:dt=""r8"">0</Current><DateUtc dt:dt=""string"">2018-10-15T17:05:57Z</DateUtc></FrequencyChange></FrequencyChanges></Clock>\n",KW_Experiment5A-21-1,59.945,1.0.0.105,1,2141577913,Professional,2.0.10.353,2.0.10.353,10/15/2018,10/15/2018 17:05,13:05:57,2.0.10.248,2,2,1,2,,,,,,,,TrainingProc,BlockList,34,1,Distractor2.bmp,2,0,,0,1,287391,600,,0,0,lime,600,3,600,,vertical,lime,Distractor2.bmp,purple,Distractor2.bmp,cyan,Distractor1.bmp,blue,Distractor2.bmp,yellow,Distractor1.bmp,red,Target1.bmp,,,,TrialProc,6,TrainingTrialList,1,1,-999999,0,287991,0,1,473,288464,Target1.bmp,red,1,,,,12,2,34
KW_Experiment5A,21,1,"<?xml version=""1.0""?>\n<Clock xmlns:dt=""urn:schemas-microsoft-com:datatypes""><Description dt:dt=""string"">E-Prime Primary Realtime Clock</Description><StartTime><Timestamp dt:dt=""int"">0</Timestamp><DateUtc dt:dt=""string"">2018-10-15T17:05:57Z</DateUtc></StartTime><FrequencyChanges><FrequencyChange><Frequency dt:dt=""r8"">3215292</Frequency><Timestamp dt:dt=""r8"">5293540642860</Timestamp><Current dt:dt=""r8"">0</Current><DateUtc dt:dt=""string"">2018-10-15T17:05:57Z</DateUtc></FrequencyChange></FrequencyChanges></Clock>\n",KW_Experiment5A-21-1,59.945,1.0.0.105,1,2141577913,Professional,2.0.10.353,2.0.10.353,10/15/2018,10/15/2018 17:05,13:05:57,2.0.10.248,2,2,1,2,,,,,,,,TrainingProc,BlockList,35,1,Distractor1.bmp,1,0,,0,1,289476,600,,0,0,yellow,600,3,600,2,vertical,yellow,Distractor1.bmp,cyan,Distractor1.bmp,red,Distractor1.bmp,blue,Distractor1.bmp,purple,Distractor2.bmp,lime,Target1.bmp,,,,TrialProc,,TrainingTrialList,1,1,-999999,0,290076,0,1,428,290504,Target1.bmp,lime,1,,,,6,2,35
KW_Experiment5A,21,1,"<?xml version=""1.0""?>\n<Clock xmlns:dt=""urn:schemas-microsoft-com:datatypes""><Description dt:dt=""string"">E-Prime Primary Realtime Clock</Description><StartTime><Timestamp dt:dt=""int"">0</Timestamp><DateUtc dt:dt=""string"">2018-10-15T17:05:57Z</DateUtc></StartTime><FrequencyChanges><FrequencyChange><Frequency dt:dt=""r8"">3215292</Frequency><Timestamp dt:dt=""r8"">5293540642860</Timestamp><Current dt:dt=""r8"">0</Current><DateUtc dt:dt=""string"">2018-10-15T17:05:57Z</DateUtc></FrequencyChange></FrequencyChanges></Clock>\n",KW_Experiment5A-21-1,59.945,1.0.0.105,1,2141577913,Professional,2.0.10.353,2.0.10.353,10/15/2018,10/15/2018 17:05,13:05:57,2.0.10.248,2,2,1,2,,,,,,,,TrainingProc,BlockList,36,2,Distractor1.bmp,1,0,,0,1,291528,600,,0,0,yellow,600,3,600,2,horizontal,lime,Target2.bmp,yellow,Distractor1.bmp,red,Distractor1.bmp,cyan,Distractor1.bmp,blue,Distractor2.bmp,purple,Distractor2.bmp,,,,TrialProc,,TrainingTrialList,1,2,-999999,0,292128,0,2,944,293072,Target2.bmp,lime,2,,,,1,2,36
KW_Experiment5A,21,1,"<?xml version=""1.0""?>\n<Clock xmlns:dt=""urn:schemas-microsoft-com:datatypes""><Description dt:dt=""string"">E-Prime Primary Realtime Clock</Description><StartTime><Timestamp dt:dt=""int"">0</Timestamp><DateUtc dt:dt=""string"">2018-10-15T17:05:57Z</DateUtc></StartTime><FrequencyChanges><FrequencyChange><Frequency dt:dt=""r8"">3215292</Frequency><Timestamp dt:dt=""r8"">5293540642860</Timestamp><Current dt:dt=""r8"">0</Current><DateUtc dt:dt=""string"">2018-10-15T17:05:57Z</DateUtc></FrequencyChange></FrequencyChanges></Clock>\n",KW_Experiment5A-21-1,59.945,1.0.0.105,1,2141577913,Professional,2.0.10.353,2.0.10.353,10/15/2018,10/15/2018 17:05,13:05:57,2.0.10.248,2,2,1,2,,,,,,,,TrainingProc,BlockList,37,1,Distractor2.bmp,2,0,,0,1,294097,400,,0,0,blue,400,1,400,3,vertical,blue,Distractor2.bmp,yellow,Distractor1.bmp,cyan,Distractor1.bmp,lime,Target1.bmp,red,Distractor2.bmp,purple,Distractor1.bmp,,,,TrialProc,,TrainingTrialList,1,1,-999999,0,294497,0,1,663,295160,Target1.bmp,lime,1,,,,4,2,37
KW_Experiment5A,21,1,"<?xml version=""1.0""?>\n<Clock xmlns:dt=""urn:schemas-microsoft-com:datatypes""><Description dt:dt=""string"">E-Prime Primary Realtime Clock</Description><StartTime><Timestamp dt:dt=""int"">0</Timestamp><DateUtc dt:dt=""string"">2018-10-15T17:05:57Z</DateUtc></StartTime><FrequencyChanges><FrequencyChange><Frequency dt:dt=""r8"">3215292</Frequency><Timestamp dt:dt=""r8"">5293540642860</Timestamp><Current dt:dt=""r8"">0</Current><DateUtc dt:dt=""string"">2018-10-15T17:05:57Z</DateUtc></FrequencyChange></FrequencyChanges></Clock>\n",KW_Experiment5A-21-1,59.945,1.0.0.105,1,2141577913,Professional,2.0.10.353,2.0.10.353,10/15/2018,10/15/2018 17:05,13:05:57,2.0.10.248,2,2,1,2,,,,,,,,TrainingProc,BlockList,38,1,Distractor2.bmp,2,0,,0,1,296182,500,,0,0,yellow,500,2,500,,vertical,yellow,Distractor2.bmp,purple,Distractor1.bmp,red,Target1.bmp,cyan,Distractor2.bmp,blue,Distractor1.bmp,lime,Distractor2.bmp,,,,TrialProc,2,TrainingTrialList,1,1,-999999,0,296682,0,1,902,297584,Target1.bmp,red,1,,,,9,2,38
KW_Experiment5A,21,1,"<?xml version=""1.0""?>\n<Clock xmlns:dt=""urn:schemas-microsoft-com:datatypes""><Description dt:dt=""string"">E-Prime Primary Realtime Clock</Description><StartTime><Timestamp dt:dt=""int"">0</Timestamp><DateUtc dt:dt=""string"">2018-10-15T17:05:57Z</DateUtc></StartTime><FrequencyChanges><FrequencyChange><Frequency dt:dt=""r8"">3215292</Frequency><Timestamp dt:dt=""r8"">5293540642860</Timestamp><Current dt:dt=""r8"">0</Current><DateUtc dt:dt=""string"">2018-10-15T17:05:57Z</DateUtc></FrequencyChange></FrequencyChanges></Clock>\n",KW_Experiment5A-21-1,59.945,1.0.0.105,1,2141577913,Professional,2.0.10.353,2.0.10.353,10/15/2018,10/15/2018 17:05,13:05:57,2.0.10.248,2,2,1,2,,,,,,,,TrainingProc,BlockList,39,2,Distractor1.bmp,1,0,,0,1,298601,500,,0,0,cyan,500,2,500,4,horizontal,cyan,Distractor1.bmp,blue,Distractor2.bmp,lime,Target2.bmp,red,Distractor1.bmp,purple,Distractor2.bmp,yellow,Distractor1.bmp,,,,TrialProc,,TrainingTrialList,1,2,-999999,0,299101,0,2,731,299832,Target2.bmp,lime,2,,,,3,2,39
KW_Experiment5A,21,1,"<?xml version=""1.0""?>\n<Clock xmlns:dt=""urn:schemas-microsoft-com:datatypes""><Description dt:dt=""string"">E-Prime Primary Realtime Clock</Description><StartTime><Timestamp dt:dt=""int"">0</Timestamp><DateUtc dt:dt=""string"">2018-10-15T17:05:57Z</DateUtc></StartTime><FrequencyChanges><FrequencyChange><Frequency dt:dt=""r8"">3215292</Frequency><Timestamp dt:dt=""r8"">5293540642860</Timestamp><Current dt:dt=""r8"">0</Current><DateUtc dt:dt=""string"">2018-10-15T17:05:57Z</DateUtc></FrequencyChange></FrequencyChanges></Clock>\n",KW_Experiment5A-21-1,59.945,1.0.0.105,1,2141577913,Professional,2.0.10.353,2.0.10.353,10/15/2018,10/15/2018 17:05,13:05:57,2.0.10.248,2,2,1,2,,,,,,,,TrainingProc,BlockList,40,1,Distractor1.bmp,1,0,,0,1,300853,500,,0,0,blue,500,2,500,3,vertical,lime,Target1.bmp,blue,Distractor1.bmp,cyan,Distractor2.bmp,red,Distractor1.bmp,yellow,Distractor2.bmp,purple,Distractor1.bmp,,,,TrialProc,,TrainingTrialList,1,1,-999999,0,301353,0,1,679,302032,Target1.bmp,lime,1,,,,1,2,40
KW_Experiment5A,21,1,"<?xml version=""1.0""?>\n<Clock xmlns:dt=""urn:schemas-microsoft-com:datatypes""><Description dt:dt=""string"">E-Prime Primary Realtime Clock</Description><StartTime><Timestamp dt:dt=""int"">0</Timestamp><DateUtc dt:dt=""string"">2018-10-15T17:05:57Z</DateUtc></StartTime><FrequencyChanges><FrequencyChange><Frequency dt:dt=""r8"">3215292</Frequency><Timestamp dt:dt=""r8"">5293540642860</Timestamp><Current dt:dt=""r8"">0</Current><DateUtc dt:dt=""string"">2018-10-15T17:05:57Z</DateUtc></FrequencyChange></FrequencyChanges></Clock>\n",KW_Experiment5A-21-1,59.945,1.0.0.105,1,2141577913,Professional,2.0.10.353,2.0.10.353,10/15/2018,10/15/2018 17:05,13:05:57,2.0.10.248,2,2,1,2,,,,,,,,TrainingProc,BlockList,41,1,Distractor2.bmp,2,0,,0,1,303055,500,,0,0,yellow,500,2,500,2,vertical,lime,Target1.bmp,yellow,Distractor2.bmp,blue,Distractor2.bmp,purple,Distractor2.bmp,red,Distractor1.bmp,cyan,Distractor1.bmp,,,,TrialProc,,TrainingTrialList,1,1,-999999,0,303555,0,1,973,304528,Target1.bmp,lime,1,,,,1,2,41
KW_Experiment5A,21,1,"<?xml version=""1.0""?>\n<Clock xmlns:dt=""urn:schemas-microsoft-com:datatypes""><Description dt:dt=""string"">E-Prime Primary Realtime Clock</Description><StartTime><Timestamp dt:dt=""int"">0</Timestamp><DateUtc dt:dt=""string"">2018-10-15T17:05:57Z</DateUtc></StartTime><FrequencyChanges><FrequencyChange><Frequency dt:dt=""r8"">3215292</Frequency><Timestamp dt:dt=""r8"">5293540642860</Timestamp><Current dt:dt=""r8"">0</Current><DateUtc dt:dt=""string"">2018-10-15T17:05:57Z</DateUtc></FrequencyChange></FrequencyChanges></Clock>\n",KW_Experiment5A-21-1,59.945,1.0.0.105,1,2141577913,Professional,2.0.10.353,2.0.10.353,10/15/2018,10/15/2018 17:05,13:05:57,2.0.10.248,2,2,1,2,,,,,,,,TrainingProc,BlockList,42,1,Distractor2.bmp,2,0,,1,0,305540,501,,0,0,cyan,500,2,500,4,vertical,cyan,Distractor2.bmp,red,Distractor2.bmp,purple,Distractor2.bmp,blue,Distractor1.bmp,yellow,Distractor1.bmp,lime,Target1.bmp,,,,TrialProc,,TrainingTrialList,1,1,-999999,1,306041,0,1,431,306472,Target1.bmp,lime,1,,,,6,2,42
KW_Experiment5A,21,1,"<?xml version=""1.0""?>\n<Clock xmlns:dt=""urn:schemas-microsoft-com:datatypes""><Description dt:dt=""string"">E-Prime Primary Realtime Clock</Description><StartTime><Timestamp dt:dt=""int"">0</Timestamp><DateUtc dt:dt=""string"">2018-10-15T17:05:57Z</DateUtc></StartTime><FrequencyChanges><FrequencyChange><Frequency dt:dt=""r8"">3215292</Frequency><Timestamp dt:dt=""r8"">5293540642860</Timestamp><Current dt:dt=""r8"">0</Current><DateUtc dt:dt=""string"">2018-10-15T17:05:57Z</DateUtc></FrequencyChange></FrequencyChanges></Clock>\n",KW_Experiment5A-21-1,59.945,1.0.0.105,1,2141577913,Professional,2.0.10.353,2.0.10.353,10/15/2018,10/15/2018 17:05,13:05:57,2.0.10.248,2,2,1,2,,,,,,,,TrainingProc,BlockList,43,2,Distractor1.bmp,1,0,,0,1,307492,401,,0,0,purple,400,1,400,,horizontal,purple,Distractor1.bmp,yellow,Distractor1.bmp,lime,Distractor1.bmp,red,Target2.bmp,cyan,Distractor1.bmp,blue,Distractor1.bmp,,,,TrialProc,5,TrainingTrialList,1,2,-999999,1,307893,0,2,554,308447,Target2.bmp,red,2,,,,10,2,43
KW_Experiment5A,21,1,"<?xml version=""1.0""?>\n<Clock xmlns:dt=""urn:schemas-microsoft-com:datatypes""><Description dt:dt=""string"">E-Prime Primary Realtime Clock</Description><StartTime><Timestamp dt:dt=""int"">0</Timestamp><DateUtc dt:dt=""string"">2018-10-15T17:05:57Z</DateUtc></StartTime><FrequencyChanges><FrequencyChange><Frequency dt:dt=""r8"">3215292</Frequency><Timestamp dt:dt=""r8"">5293540642860</Timestamp><Current dt:dt=""r8"">0</Current><DateUtc dt:dt=""string"">2018-10-15T17:05:57Z</DateUtc></FrequencyChange></FrequencyChanges></Clock>\n",KW_Experiment5A-21-1,59.945,1.0.0.105,1,2141577913,Professional,2.0.10.353,2.0.10.353,10/15/2018,10/15/2018 17:05,13:05:57,2.0.10.248,2,2,1,2,,,,,,,,TrainingProc,BlockList,44,2,Distractor1.bmp,1,0,,0,1,309461,500,,0,0,yellow,500,2,500,2,horizontal,yellow,Distractor1.bmp,purple,Distractor2.bmp,cyan,Distractor2.bmp,red,Distractor1.bmp,blue,Distractor2.bmp,lime,Target2.bmp,,,,TrialProc,,TrainingTrialList,0,2,-999999,0,309961,0,1,414,310375,Target2.bmp,lime,2,,,,6,2,44
KW_Experiment5A,21,1,"<?xml version=""1.0""?>\n<Clock xmlns:dt=""urn:schemas-microsoft-com:datatypes""><Description dt:dt=""string"">E-Prime Primary Realtime Clock</Description><StartTime><Timestamp dt:dt=""int"">0</Timestamp><DateUtc dt:dt=""string"">2018-10-15T17:05:57Z</DateUtc></StartTime><FrequencyChanges><FrequencyChange><Frequency dt:dt=""r8"">3215292</Frequency><Timestamp dt:dt=""r8"">5293540642860</Timestamp><Current dt:dt=""r8"">0</Current><DateUtc dt:dt=""string"">2018-10-15T17:05:57Z</DateUtc></FrequencyChange></FrequencyChanges></Clock>\n",KW_Experiment5A-21-1,59.945,1.0.0.105,1,2141577913,Professional,2.0.10.353,2.0.10.353,10/15/2018,10/15/2018 17:05,13:05:57,2.0.10.248,2,2,1,2,,,,,,,,TrainingProc,BlockList,45,1,Distractor2.bmp,2,0,,0,1,311396,600,,0,0,lime,600,3,600,,vertical,red,Target1.bmp,purple,Distractor2.bmp,blue,Distractor2.bmp,cyan,Distractor2.bmp,yellow,Distractor1.bmp,lime,Distractor1.bmp,,,,TrialProc,6,TrainingTrialList,1,1,-999999,0,311996,0,1,651,312647,Target1.bmp,red,1,,,,7,2,45
KW_Experiment5A,21,1,"<?xml version=""1.0""?>\n<Clock xmlns:dt=""urn:schemas-microsoft-com:datatypes""><Description dt:dt=""string"">E-Prime Primary Realtime Clock</Description><StartTime><Timestamp dt:dt=""int"">0</Timestamp><DateUtc dt:dt=""string"">2018-10-15T17:05:57Z</DateUtc></StartTime><FrequencyChanges><FrequencyChange><Frequency dt:dt=""r8"">3215292</Frequency><Timestamp dt:dt=""r8"">5293540642860</Timestamp><Current dt:dt=""r8"">0</Current><DateUtc dt:dt=""string"">2018-10-15T17:05:57Z</DateUtc></FrequencyChange></FrequencyChanges></Clock>\n",KW_Experiment5A-21-1,59.945,1.0.0.105,1,2141577913,Professional,2.0.10.353,2.0.10.353,10/15/2018,10/15/2018 17:05,13:05:57,2.0.10.248,2,2,1,2,,,,,,,,TrainingProc,BlockList,46,2,Distractor1.bmp,1,0,,0,1,313665,500,,0,0,lime,500,2,500,,horizontal,lime,Distractor1.bmp,red,Target2.bmp,blue,Distractor1.bmp,cyan,Distractor2.bmp,yellow,Distractor1.bmp,purple,Distractor1.bmp,,,,TrialProc,6,TrainingTrialList,1,2,-999999,0,314165,0,2,778,314943,Target2.bmp,red,2,,,,8,2,46
KW_Experiment5A,21,1,"<?xml version=""1.0""?>\n<Clock xmlns:dt=""urn:schemas-microsoft-com:datatypes""><Description dt:dt=""string"">E-Prime Primary Realtime Clock</Description><StartTime><Timestamp dt:dt=""int"">0</Timestamp><DateUtc dt:dt=""string"">2018-10-15T17:05:57Z</DateUtc></StartTime><FrequencyChanges><FrequencyChange><Frequency dt:dt=""r8"">3215292</Frequency><Timestamp dt:dt=""r8"">5293540642860</Timestamp><Current dt:dt=""r8"">0</Current><DateUtc dt:dt=""string"">2018-10-15T17:05:57Z</DateUtc></FrequencyChange></FrequencyChanges></Clock>\n",KW_Experiment5A-21-1,59.945,1.0.0.105,1,2141577913,Professional,2.0.10.353,2.0.10.353,10/15/2018,10/15/2018 17:05,13:05:57,2.0.10.248,2,2,1,2,,,,,,,,TrainingProc,BlockList,47,1,Distractor2.bmp,2,0,,0,1,315967,600,,0,0,cyan,600,3,600,4,vertical,cyan,Distractor2.bmp,purple,Distractor2.bmp,yellow,Distractor2.bmp,red,Distractor1.bmp,lime,Target1.bmp,blue,Distractor2.bmp,,,,TrialProc,,TrainingTrialList,1,1,-999999,0,316567,0,1,512,317079,Target1.bmp,lime,1,,,,5,2,47
KW_Experiment5A,21,1,"<?xml version=""1.0""?>\n<Clock xmlns:dt=""urn:schemas-microsoft-com:datatypes""><Description dt:dt=""string"">E-Prime Primary Realtime Clock</Description><StartTime><Timestamp dt:dt=""int"">0</Timestamp><DateUtc dt:dt=""string"">2018-10-15T17:05:57Z</DateUtc></StartTime><FrequencyChanges><FrequencyChange><Frequency dt:dt=""r8"">3215292</Frequency><Timestamp dt:dt=""r8"">5293540642860</Timestamp><Current dt:dt=""r8"">0</Current><DateUtc dt:dt=""string"">2018-10-15T17:05:57Z</DateUtc></FrequencyChange></FrequencyChanges></Clock>\n",KW_Experiment5A-21-1,59.945,1.0.0.105,1,2141577913,Professional,2.0.10.353,2.0.10.353,10/15/2018,10/15/2018 17:05,13:05:57,2.0.10.248,2,2,1,2,,,,,,,,TrainingProc,BlockList,48,1,Distractor1.bmp,1,0,,0,1,318102,400,,0,0,yellow,400,1,400,2,vertical,yellow,Distractor2.bmp,red,Distractor2.bmp,cyan,Distractor1.bmp,lime,Target1.bmp,blue,Distractor1.bmp,purple,Distractor2.bmp,,,,TrialProc,,TrainingTrialList,1,1,-999999,0,318502,0,1,417,318919,Target1.bmp,lime,1,,,,4,2,48
KW_Experiment5A,21,1,"<?xml version=""1.0""?>\n<Clock xmlns:dt=""urn:schemas-microsoft-com:datatypes""><Description dt:dt=""string"">E-Prime Primary Realtime Clock</Description><StartTime><Timestamp dt:dt=""int"">0</Timestamp><DateUtc dt:dt=""string"">2018-10-15T17:05:57Z</DateUtc></StartTime><FrequencyChanges><FrequencyChange><Frequency dt:dt=""r8"">3215292</Frequency><Timestamp dt:dt=""r8"">5293540642860</Timestamp><Current dt:dt=""r8"">0</Current><DateUtc dt:dt=""string"">2018-10-15T17:05:57Z</DateUtc></FrequencyChange></FrequencyChanges></Clock>\n",KW_Experiment5A-21-1,59.945,1.0.0.105,1,2141577913,Professional,2.0.10.353,2.0.10.353,10/15/2018,10/15/2018 17:05,13:05:57,2.0.10.248,3,2,1,3,,,,,,,,TrainingProc,BlockList,1,2,Distractor2.bmp,2,0,,0,21,321388,601,,0,0,purple,600,3,600,5,horizontal,purple,Distractor2.bmp,red,Distractor2.bmp,yellow,Distractor2.bmp,blue,Distractor2.bmp,lime,Target2.bmp,cyan,Distractor2.bmp,,,,TrialProc,,TrainingTrialList,1,2,-999999,1,321989,0,2,626,322615,Target2.bmp,lime,2,,,,5,3,49
KW_Experiment5A,21,1,"<?xml version=""1.0""?>\n<Clock xmlns:dt=""urn:schemas-microsoft-com:datatypes""><Description dt:dt=""string"">E-Prime Primary Realtime Clock</Description><StartTime><Timestamp dt:dt=""int"">0</Timestamp><DateUtc dt:dt=""string"">2018-10-15T17:05:57Z</DateUtc></StartTime><FrequencyChanges><FrequencyChange><Frequency dt:dt=""r8"">3215292</Frequency><Timestamp dt:dt=""r8"">5293540642860</Timestamp><Current dt:dt=""r8"">0</Current><DateUtc dt:dt=""string"">2018-10-15T17:05:57Z</DateUtc></FrequencyChange></FrequencyChanges></Clock>\n",KW_Experiment5A-21-1,59.945,1.0.0.105,1,2141577913,Professional,2.0.10.353,2.0.10.353,10/15/2018,10/15/2018 17:05,13:05:57,2.0.10.248,3,2,1,3,,,,,,,,TrainingProc,BlockList,2,2,Distractor2.bmp,2,0,,0,1,323640,601,,0,0,yellow,600,3,600,2,horizontal,yellow,Distractor2.bmp,cyan,Distractor2.bmp,purple,Distractor1.bmp,red,Distractor2.bmp,blue,Distractor1.bmp,lime,Target2.bmp,,,,TrialProc,,TrainingTrialList,1,2,-999999,1,324241,0,2,534,324775,Target2.bmp,lime,2,,,,6,3,50
KW_Experiment5A,21,1,"<?xml version=""1.0""?>\n<Clock xmlns:dt=""urn:schemas-microsoft-com:datatypes""><Description dt:dt=""string"">E-Prime Primary Realtime Clock</Description><StartTime><Timestamp dt:dt=""int"">0</Timestamp><DateUtc dt:dt=""string"">2018-10-15T17:05:57Z</DateUtc></StartTime><FrequencyChanges><FrequencyChange><Frequency dt:dt=""r8"">3215292</Frequency><Timestamp dt:dt=""r8"">5293540642860</Timestamp><Current dt:dt=""r8"">0</Current><DateUtc dt:dt=""string"">2018-10-15T17:05:57Z</DateUtc></FrequencyChange></FrequencyChanges></Clock>\n",KW_Experiment5A-21-1,59.945,1.0.0.105,1,2141577913,Professional,2.0.10.353,2.0.10.353,10/15/2018,10/15/2018 17:05,13:05:57,2.0.10.248,3,2,1,3,,,,,,,,TrainingProc,BlockList,3,1,Distractor1.bmp,1,0,,0,1,325792,401,,0,0,blue,400,1,400,3,vertical,blue,Distractor1.bmp,lime,Target1.bmp,purple,Distractor1.bmp,red,Distractor1.bmp,yellow,Distractor1.bmp,cyan,Distractor1.bmp,,,,TrialProc,,TrainingTrialList,1,1,-999999,1,326193,0,1,758,326951,Target1.bmp,lime,1,,,,2,3,51
KW_Experiment5A,21,1,"<?xml version=""1.0""?>\n<Clock xmlns:dt=""urn:schemas-microsoft-com:datatypes""><Description dt:dt=""string"">E-Prime Primary Realtime Clock</Description><StartTime><Timestamp dt:dt=""int"">0</Timestamp><DateUtc dt:dt=""string"">2018-10-15T17:05:57Z</DateUtc></StartTime><FrequencyChanges><FrequencyChange><Frequency dt:dt=""r8"">3215292</Frequency><Timestamp dt:dt=""r8"">5293540642860</Timestamp><Current dt:dt=""r8"">0</Current><DateUtc dt:dt=""string"">2018-10-15T17:05:57Z</DateUtc></FrequencyChange></FrequencyChanges></Clock>\n",KW_Experiment5A-21-1,59.945,1.0.0.105,1,2141577913,Professional,2.0.10.353,2.0.10.353,10/15/2018,10/15/2018 17:05,13:05:57,2.0.10.248,3,2,1,3,,,,,,,,TrainingProc,BlockList,4,2,Distractor2.bmp,2,0,,0,1,327961,600,,0,0,purple,600,3,600,5,horizontal,purple,Distractor2.bmp,lime,Target2.bmp,red,Distractor2.bmp,cyan,Distractor2.bmp,yellow,Distractor2.bmp,blue,Distractor2.bmp,,,,TrialProc,,TrainingTrialList,1,2,-999999,0,328561,0,2,558,329119,Target2.bmp,lime,2,,,,2,3,52
KW_Experiment5A,21,1,"<?xml version=""1.0""?>\n<Clock xmlns:dt=""urn:schemas-microsoft-com:datatypes""><Description dt:dt=""string"">E-Prime Primary Realtime Clock</Description><StartTime><Timestamp dt:dt=""int"">0</Timestamp><DateUtc dt:dt=""string"">2018-10-15T17:05:57Z</DateUtc></StartTime><FrequencyChanges><FrequencyChange><Frequency dt:dt=""r8"">3215292</Frequency><Timestamp dt:dt=""r8"">5293540642860</Timestamp><Current dt:dt=""r8"">0</Current><DateUtc dt:dt=""string"">2018-10-15T17:05:57Z</DateUtc></FrequencyChange></FrequencyChanges></Clock>\n",KW_Experiment5A-21-1,59.945,1.0.0.105,1,2141577913,Professional,2.0.10.353,2.0.10.353,10/15/2018,10/15/2018 17:05,13:05:57,2.0.10.248,3,2,1,3,,,,,,,,TrainingProc,BlockList,5,1,Distractor1.bmp,1,0,,0,1,330130,500,,0,0,blue,500,2,500,,vertical,red,Target1.bmp,yellow,Distractor1.bmp,lime,Distractor2.bmp,purple,Distractor2.bmp,cyan,Distractor1.bmp,blue,Distractor1.bmp,,,,TrialProc,3,TrainingTrialList,1,1,-999999,0,330630,0,1,833,331463,Target1.bmp,red,1,,,,7,3,53
KW_Experiment5A,21,1,"<?xml version=""1.0""?>\n<Clock xmlns:dt=""urn:schemas-microsoft-com:datatypes""><Description dt:dt=""string"">E-Prime Primary Realtime Clock</Description><StartTime><Timestamp dt:dt=""int"">0</Timestamp><DateUtc dt:dt=""string"">2018-10-15T17:05:57Z</DateUtc></StartTime><FrequencyChanges><FrequencyChange><Frequency dt:dt=""r8"">3215292</Frequency><Timestamp dt:dt=""r8"">5293540642860</Timestamp><Current dt:dt=""r8"">0</Current><DateUtc dt:dt=""string"">2018-10-15T17:05:57Z</DateUtc></FrequencyChange></FrequencyChanges></Clock>\n",KW_Experiment5A-21-1,59.945,1.0.0.105,1,2141577913,Professional,2.0.10.353,2.0.10.353,10/15/2018,10/15/2018 17:05,13:05:57,2.0.10.248,3,2,1,3,,,,,,,,TrainingProc,BlockList,6,1,Distractor1.bmp,1,0,,0,1,332482,600,,0,0,cyan,600,3,600,4,vertical,cyan,Distractor1.bmp,red,Distractor2.bmp,purple,Distractor2.bmp,blue,Distractor2.bmp,yellow,Distractor2.bmp,lime,Target1.bmp,,,,TrialProc,,TrainingTrialList,1,1,-999999,0,333082,0,1,493,333575,Target1.bmp,lime,1,,,,6,3,54
KW_Experiment5A,21,1,"<?xml version=""1.0""?>\n<Clock xmlns:dt=""urn:schemas-microsoft-com:datatypes""><Description dt:dt=""string"">E-Prime Primary Realtime Clock</Description><StartTime><Timestamp dt:dt=""int"">0</Timestamp><DateUtc dt:dt=""string"">2018-10-15T17:05:57Z</DateUtc></StartTime><FrequencyChanges><FrequencyChange><Frequency dt:dt=""r8"">3215292</Frequency><Timestamp dt:dt=""r8"">5293540642860</Timestamp><Current dt:dt=""r8"">0</Current><DateUtc dt:dt=""string"">2018-10-15T17:05:57Z</DateUtc></FrequencyChange></FrequencyChanges></Clock>\n",KW_Experiment5A-21-1,59.945,1.0.0.105,1,2141577913,Professional,2.0.10.353,2.0.10.353,10/15/2018,10/15/2018 17:05,13:05:57,2.0.10.248,3,2,1,3,,,,,,,,TrainingProc,BlockList,7,1,Distractor1.bmp,1,0,,0,1,334600,501,,0,0,yellow,500,2,500,2,vertical,yellow,Distractor2.bmp,purple,Distractor2.bmp,cyan,Distractor1.bmp,lime,Target1.bmp,blue,Distractor1.bmp,red,Distractor1.bmp,,,,TrialProc,,TrainingTrialList,1,1,-999999,1,335101,0,1,698,335799,Target1.bmp,lime,1,,,,4,3,55
KW_Experiment5A,21,1,"<?xml version=""1.0""?>\n<Clock xmlns:dt=""urn:schemas-microsoft-com:datatypes""><Description dt:dt=""string"">E-Prime Primary Realtime Clock</Description><StartTime><Timestamp dt:dt=""int"">0</Timestamp><DateUtc dt:dt=""string"">2018-10-15T17:05:57Z</DateUtc></StartTime><FrequencyChanges><FrequencyChange><Frequency dt:dt=""r8"">3215292</Frequency><Timestamp dt:dt=""r8"">5293540642860</Timestamp><Current dt:dt=""r8"">0</Current><DateUtc dt:dt=""string"">2018-10-15T17:05:57Z</DateUtc></FrequencyChange></FrequencyChanges></Clock>\n",KW_Experiment5A-21-1,59.945,1.0.0.105,1,2141577913,Professional,2.0.10.353,2.0.10.353,10/15/2018,10/15/2018 17:05,13:05:57,2.0.10.248,3,2,1,3,,,,,,,,TrainingProc,BlockList,8,1,Distractor1.bmp,1,0,,0,1,336819,500,,0,0,blue,500,2,500,,vertical,blue,Distractor1.bmp,purple,Distractor1.bmp,cyan,Distractor1.bmp,lime,Distractor2.bmp,red,Target1.bmp,yellow,Distractor1.bmp,,,,TrialProc,3,TrainingTrialList,1,1,-999999,0,337319,0,1,552,337871,Target1.bmp,red,1,,,,11,3,56
KW_Experiment5A,21,1,"<?xml version=""1.0""?>\n<Clock xmlns:dt=""urn:schemas-microsoft-com:datatypes""><Description dt:dt=""string"">E-Prime Primary Realtime Clock</Description><StartTime><Timestamp dt:dt=""int"">0</Timestamp><DateUtc dt:dt=""string"">2018-10-15T17:05:57Z</DateUtc></StartTime><FrequencyChanges><FrequencyChange><Frequency dt:dt=""r8"">3215292</Frequency><Timestamp dt:dt=""r8"">5293540642860</Timestamp><Current dt:dt=""r8"">0</Current><DateUtc dt:dt=""string"">2018-10-15T17:05:57Z</DateUtc></FrequencyChange></FrequencyChanges></Clock>\n",KW_Experiment5A-21-1,59.945,1.0.0.105,1,2141577913,Professional,2.0.10.353,2.0.10.353,10/15/2018,10/15/2018 17:05,13:05:57,2.0.10.248,3,2,1,3,,,,,,,,TrainingProc,BlockList,9,1,Distractor1.bmp,1,0,,1,0,338887,501,,0,0,yellow,500,2,500,2,vertical,yellow,Distractor1.bmp,blue,Distractor2.bmp,purple,Distractor2.bmp,cyan,Distractor1.bmp,red,Distractor1.bmp,lime,Target1.bmp,,,,TrialProc,,TrainingTrialList,1,1,-999999,1,339388,0,1,467,339855,Target1.bmp,lime,1,,,,6,3,57
KW_Experiment5A,21,1,"<?xml version=""1.0""?>\n<Clock xmlns:dt=""urn:schemas-microsoft-com:datatypes""><Description dt:dt=""string"">E-Prime Primary Realtime Clock</Description><StartTime><Timestamp dt:dt=""int"">0</Timestamp><DateUtc dt:dt=""string"">2018-10-15T17:05:57Z</DateUtc></StartTime><FrequencyChanges><FrequencyChange><Frequency dt:dt=""r8"">3215292</Frequency><Timestamp dt:dt=""r8"">5293540642860</Timestamp><Current dt:dt=""r8"">0</Current><DateUtc dt:dt=""string"">2018-10-15T17:05:57Z</DateUtc></FrequencyChange></FrequencyChanges></Clock>\n",KW_Experiment5A-21-1,59.945,1.0.0.105,1,2141577913,Professional,2.0.10.353,2.0.10.353,10/15/2018,10/15/2018 17:05,13:05:57,2.0.10.248,3,2,1,3,,,,,,,,TrainingProc,BlockList,10,1,Distractor1.bmp,1,0,,0,1,340873,400,,0,0,red,400,1,400,1,vertical,lime,Target1.bmp,red,Distractor1.bmp,yellow,Distractor2.bmp,purple,Distractor1.bmp,cyan,Distractor2.bmp,blue,Distractor2.bmp,,,,TrialProc,,TrainingTrialList,1,1,-999999,0,341273,0,1,486,341759,Target1.bmp,lime,1,,,,1,3,58
KW_Experiment5A,21,1,"<?xml version=""1.0""?>\n<Clock xmlns:dt=""urn:schemas-microsoft-com:datatypes""><Description dt:dt=""string"">E-Prime Primary Realtime Clock</Description><StartTime><Timestamp dt:dt=""int"">0</Timestamp><DateUtc dt:dt=""string"">2018-10-15T17:05:57Z</DateUtc></StartTime><FrequencyChanges><FrequencyChange><Frequency dt:dt=""r8"">3215292</Frequency><Timestamp dt:dt=""r8"">5293540642860</Timestamp><Current dt:dt=""r8"">0</Current><DateUtc dt:dt=""string"">2018-10-15T17:05:57Z</DateUtc></FrequencyChange></FrequencyChanges></Clock>\n",KW_Experiment5A-21-1,59.945,1.0.0.105,1,2141577913,Professional,2.0.10.353,2.0.10.353,10/15/2018,10/15/2018 17:05,13:05:57,2.0.10.248,3,2,1,3,,,,,,,,TrainingProc,BlockList,11,1,Distractor2.bmp,2,0,,0,1,342774,601,,0,0,purple,600,3,600,5,vertical,lime,Target1.bmp,purple,Distractor2.bmp,red,Distractor2.bmp,cyan,Distractor1.bmp,blue,Distractor1.bmp,yellow,Distractor1.bmp,,,,TrialProc,,TrainingTrialList,1,1,-999999,1,343375,0,1,520,343895,Target1.bmp,lime,1,,,,1,3,59
KW_Experiment5A,21,1,"<?xml version=""1.0""?>\n<Clock xmlns:dt=""urn:schemas-microsoft-com:datatypes""><Description dt:dt=""string"">E-Prime Primary Realtime Clock</Description><StartTime><Timestamp dt:dt=""int"">0</Timestamp><DateUtc dt:dt=""string"">2018-10-15T17:05:57Z</DateUtc></StartTime><FrequencyChanges><FrequencyChange><Frequency dt:dt=""r8"">3215292</Frequency><Timestamp dt:dt=""r8"">5293540642860</Timestamp><Current dt:dt=""r8"">0</Current><DateUtc dt:dt=""string"">2018-10-15T17:05:57Z</DateUtc></FrequencyChange></FrequencyChanges></Clock>\n",KW_Experiment5A-21-1,59.945,1.0.0.105,1,2141577913,Professional,2.0.10.353,2.0.10.353,10/15/2018,10/15/2018 17:05,13:05:57,2.0.10.248,3,2,1,3,,,,,,,,TrainingProc,BlockList,12,2,Distractor1.bmp,1,0,,0,1,344910,400,,0,0,blue,400,1,400,,horizontal,blue,Distractor2.bmp,cyan,Distractor2.bmp,red,Target2.bmp,yellow,Distractor1.bmp,purple,Distractor2.bmp,lime,Distractor1.bmp,,,,TrialProc,3,TrainingTrialList,1,2,-999999,0,345310,0,2,569,345879,Target2.bmp,red,2,,,,9,3,60
KW_Experiment5A,21,1,"<?xml version=""1.0""?>\n<Clock xmlns:dt=""urn:schemas-microsoft-com:datatypes""><Description dt:dt=""string"">E-Prime Primary Realtime Clock</Description><StartTime><Timestamp dt:dt=""int"">0</Timestamp><DateUtc dt:dt=""string"">2018-10-15T17:05:57Z</DateUtc></StartTime><FrequencyChanges><FrequencyChange><Frequency dt:dt=""r8"">3215292</Frequency><Timestamp dt:dt=""r8"">5293540642860</Timestamp><Current dt:dt=""r8"">0</Current><DateUtc dt:dt=""string"">2018-10-15T17:05:57Z</DateUtc></FrequencyChange></FrequencyChanges></Clock>\n",KW_Experiment5A-21-1,59.945,1.0.0.105,1,2141577913,Professional,2.0.10.353,2.0.10.353,10/15/2018,10/15/2018 17:05,13:05:57,2.0.10.248,3,2,1,3,,,,,,,,TrainingProc,BlockList,13,1,Distractor1.bmp,1,0,,0,1,346895,400,,0,0,yellow,400,1,400,2,vertical,yellow,Distractor2.bmp,red,Distractor1.bmp,lime,Target1.bmp,cyan,Distractor1.bmp,blue,Distractor1.bmp,purple,Distractor2.bmp,,,,TrialProc,,TrainingTrialList,1,1,-999999,0,347295,0,1,624,347919,Target1.bmp,lime,1,,,,3,3,61
KW_Experiment5A,21,1,"<?xml version=""1.0""?>\n<Clock xmlns:dt=""urn:schemas-microsoft-com:datatypes""><Description dt:dt=""string"">E-Prime Primary Realtime Clock</Description><StartTime><Timestamp dt:dt=""int"">0</Timestamp><DateUtc dt:dt=""string"">2018-10-15T17:05:57Z</DateUtc></StartTime><FrequencyChanges><FrequencyChange><Frequency dt:dt=""r8"">3215292</Frequency><Timestamp dt:dt=""r8"">5293540642860</Timestamp><Current dt:dt=""r8"">0</Current><DateUtc dt:dt=""string"">2018-10-15T17:05:57Z</DateUtc></FrequencyChange></FrequencyChanges></Clock>\n",KW_Experiment5A-21-1,59.945,1.0.0.105,1,2141577913,Professional,2.0.10.353,2.0.10.353,10/15/2018,10/15/2018 17:05,13:05:57,2.0.10.248,3,2,1,3,,,,,,,,TrainingProc,BlockList,14,1,Distractor2.bmp,2,0,,0,1,348930,600,,0,0,cyan,600,3,600,4,vertical,cyan,Distractor1.bmp,purple,Distractor1.bmp,yellow,Distractor2.bmp,blue,Distractor2.bmp,lime,Target1.bmp,red,Distractor2.bmp,,,,TrialProc,,TrainingTrialList,1,1,-999999,0,349530,0,1,428,349958,Target1.bmp,lime,1,,,,5,3,62
KW_Experiment5A,21,1,"<?xml version=""1.0""?>\n<Clock xmlns:dt=""urn:schemas-microsoft-com:datatypes""><Description dt:dt=""string"">E-Prime Primary Realtime Clock</Description><StartTime><Timestamp dt:dt=""int"">0</Timestamp><DateUtc dt:dt=""string"">2018-10-15T17:05:57Z</DateUtc></StartTime><FrequencyChanges><FrequencyChange><Frequency dt:dt=""r8"">3215292</Frequency><Timestamp dt:dt=""r8"">5293540642860</Timestamp><Current dt:dt=""r8"">0</Current><DateUtc dt:dt=""string"">2018-10-15T17:05:57Z</DateUtc></FrequencyChange></FrequencyChanges></Clock>\n",KW_Experiment5A-21-1,59.945,1.0.0.105,1,2141577913,Professional,2.0.10.353,2.0.10.353,10/15/2018,10/15/2018 17:05,13:05:57,2.0.10.248,3,2,1,3,,,,,,,,TrainingProc,BlockList,15,1,Distractor2.bmp,2,0,,0,1,350982,500,,0,0,purple,500,2,500,,vertical,purple,Distractor2.bmp,red,Target1.bmp,lime,Distractor2.bmp,cyan,Distractor1.bmp,blue,Distractor2.bmp,yellow,Distractor2.bmp,,,,TrialProc,5,TrainingTrialList,1,1,-999999,0,351482,0,1,620,352102,Target1.bmp,red,1,,,,8,3,63
KW_Experiment5A,21,1,"<?xml version=""1.0""?>\n<Clock xmlns:dt=""urn:schemas-microsoft-com:datatypes""><Description dt:dt=""string"">E-Prime Primary Realtime Clock</Description><StartTime><Timestamp dt:dt=""int"">0</Timestamp><DateUtc dt:dt=""string"">2018-10-15T17:05:57Z</DateUtc></StartTime><FrequencyChanges><FrequencyChange><Frequency dt:dt=""r8"">3215292</Frequency><Timestamp dt:dt=""r8"">5293540642860</Timestamp><Current dt:dt=""r8"">0</Current><DateUtc dt:dt=""string"">2018-10-15T17:05:57Z</DateUtc></FrequencyChange></FrequencyChanges></Clock>\n",KW_Experiment5A-21-1,59.945,1.0.0.105,1,2141577913,Professional,2.0.10.353,2.0.10.353,10/15/2018,10/15/2018 17:05,13:05:57,2.0.10.248,3,2,1,3,,,,,,,,TrainingProc,BlockList,16,1,Distractor1.bmp,1,0,,0,1,353117,501,,0,0,lime,500,2,500,,vertical,lime,Distractor1.bmp,yellow,Distractor2.bmp,cyan,Distractor1.bmp,blue,Distractor2.bmp,purple,Distractor2.bmp,red,Target1.bmp,,,,TrialProc,6,TrainingTrialList,1,1,-999999,1,353618,0,1,500,354118,Target1.bmp,red,1,,,,12,3,64
KW_Experiment5A,21,1,"<?xml version=""1.0""?>\n<Clock xmlns:dt=""urn:schemas-microsoft-com:datatypes""><Description dt:dt=""string"">E-Prime Primary Realtime Clock</Description><StartTime><Timestamp dt:dt=""int"">0</Timestamp><DateUtc dt:dt=""string"">2018-10-15T17:05:57Z</DateUtc></StartTime><FrequencyChanges><FrequencyChange><Frequency dt:dt=""r8"">3215292</Frequency><Timestamp dt:dt=""r8"">5293540642860</Timestamp><Current dt:dt=""r8"">0</Current><DateUtc dt:dt=""string"">2018-10-15T17:05:57Z</DateUtc></FrequencyChange></FrequencyChanges></Clock>\n",KW_Experiment5A-21-1,59.945,1.0.0.105,1,2141577913,Professional,2.0.10.353,2.0.10.353,10/15/2018,10/15/2018 17:05,13:05:57,2.0.10.248,3,2,1,3,,,,,,,,TrainingProc,BlockList,17,2,Distractor2.bmp,2,0,,0,1,355136,500,,0,0,red,500,2,500,1,horizontal,red,Distractor1.bmp,yellow,Distractor1.bmp,cyan,Distractor2.bmp,purple,Distractor2.bmp,lime,Target2.bmp,blue,Distractor2.bmp,,,,TrialProc,,TrainingTrialList,1,2,-999999,0,355636,0,2,538,356174,Target2.bmp,lime,2,,,,5,3,65
KW_Experiment5A,21,1,"<?xml version=""1.0""?>\n<Clock xmlns:dt=""urn:schemas-microsoft-com:datatypes""><Description dt:dt=""string"">E-Prime Primary Realtime Clock</Description><StartTime><Timestamp dt:dt=""int"">0</Timestamp><DateUtc dt:dt=""string"">2018-10-15T17:05:57Z</DateUtc></StartTime><FrequencyChanges><FrequencyChange><Frequency dt:dt=""r8"">3215292</Frequency><Timestamp dt:dt=""r8"">5293540642860</Timestamp><Current dt:dt=""r8"">0</Current><DateUtc dt:dt=""string"">2018-10-15T17:05:57Z</DateUtc></FrequencyChange></FrequencyChanges></Clock>\n",KW_Experiment5A-21-1,59.945,1.0.0.105,1,2141577913,Professional,2.0.10.353,2.0.10.353,10/15/2018,10/15/2018 17:05,13:05:57,2.0.10.248,3,2,1,3,,,,,,,,TrainingProc,BlockList,18,1,Distractor1.bmp,1,0,,1,0,357187,601,,0,0,blue,600,3,600,3,vertical,blue,Distractor1.bmp,cyan,Distractor1.bmp,lime,Target1.bmp,purple,Distractor1.bmp,yellow,Distractor1.bmp,red,Distractor1.bmp,,,,TrialProc,,TrainingTrialList,1,1,-999999,1,357788,0,1,498,358286,Target1.bmp,lime,1,,,,3,3,66
KW_Experiment5A,21,1,"<?xml version=""1.0""?>\n<Clock xmlns:dt=""urn:schemas-microsoft-com:datatypes""><Description dt:dt=""string"">E-Prime Primary Realtime Clock</Description><StartTime><Timestamp dt:dt=""int"">0</Timestamp><DateUtc dt:dt=""string"">2018-10-15T17:05:57Z</DateUtc></StartTime><FrequencyChanges><FrequencyChange><Frequency dt:dt=""r8"">3215292</Frequency><Timestamp dt:dt=""r8"">5293540642860</Timestamp><Current dt:dt=""r8"">0</Current><DateUtc dt:dt=""string"">2018-10-15T17:05:57Z</DateUtc></FrequencyChange></FrequencyChanges></Clock>\n",KW_Experiment5A-21-1,59.945,1.0.0.105,1,2141577913,Professional,2.0.10.353,2.0.10.353,10/15/2018,10/15/2018 17:05,13:05:57,2.0.10.248,3,2,1,3,,,,,,,,TrainingProc,BlockList,19,2,Distractor1.bmp,1,0,,0,1,359306,601,,0,0,purple,600,3,600,,horizontal,purple,Distractor1.bmp,cyan,Distractor1.bmp,lime,Distractor1.bmp,red,Target2.bmp,yellow,Distractor1.bmp,blue,Distractor2.bmp,,,,TrialProc,5,TrainingTrialList,0,2,-999999,1,359907,0,1,739,360646,Target2.bmp,red,2,,,,10,3,67
KW_Experiment5A,21,1,"<?xml version=""1.0""?>\n<Clock xmlns:dt=""urn:schemas-microsoft-com:datatypes""><Description dt:dt=""string"">E-Prime Primary Realtime Clock</Description><StartTime><Timestamp dt:dt=""int"">0</Timestamp><DateUtc dt:dt=""string"">2018-10-15T17:05:57Z</DateUtc></StartTime><FrequencyChanges><FrequencyChange><Frequency dt:dt=""r8"">3215292</Frequency><Timestamp dt:dt=""r8"">5293540642860</Timestamp><Current dt:dt=""r8"">0</Current><DateUtc dt:dt=""string"">2018-10-15T17:05:57Z</DateUtc></FrequencyChange></FrequencyChanges></Clock>\n",KW_Experiment5A-21-1,59.945,1.0.0.105,1,2141577913,Professional,2.0.10.353,2.0.10.353,10/15/2018,10/15/2018 17:05,13:05:57,2.0.10.248,3,2,1,3,,,,,,,,TrainingProc,BlockList,20,1,Distractor1.bmp,1,0,,0,1,361658,401,,0,0,cyan,400,1,400,4,vertical,cyan,Distractor2.bmp,yellow,Distractor2.bmp,purple,Distractor1.bmp,lime,Target1.bmp,blue,Distractor1.bmp,red,Distractor2.bmp,,,,TrialProc,,TrainingTrialList,1,1,-999999,1,362059,0,1,443,362502,Target1.bmp,lime,1,,,,4,3,68
KW_Experiment5A,21,1,"<?xml version=""1.0""?>\n<Clock xmlns:dt=""urn:schemas-microsoft-com:datatypes""><Description dt:dt=""string"">E-Prime Primary Realtime Clock</Description><StartTime><Timestamp dt:dt=""int"">0</Timestamp><DateUtc dt:dt=""string"">2018-10-15T17:05:57Z</DateUtc></StartTime><FrequencyChanges><FrequencyChange><Frequency dt:dt=""r8"">3215292</Frequency><Timestamp dt:dt=""r8"">5293540642860</Timestamp><Current dt:dt=""r8"">0</Current><DateUtc dt:dt=""string"">2018-10-15T17:05:57Z</DateUtc></FrequencyChange></FrequencyChanges></Clock>\n",KW_Experiment5A-21-1,59.945,1.0.0.105,1,2141577913,Professional,2.0.10.353,2.0.10.353,10/15/2018,10/15/2018 17:05,13:05:57,2.0.10.248,3,2,1,3,,,,,,,,TrainingProc,BlockList,21,1,Distractor1.bmp,1,0,,0,1,363527,400,,0,0,yellow,400,1,400,2,vertical,yellow,Distractor1.bmp,cyan,Distractor1.bmp,red,Distractor2.bmp,lime,Target1.bmp,blue,Distractor1.bmp,purple,Distractor1.bmp,,,,TrialProc,,TrainingTrialList,1,1,-999999,0,363927,0,1,415,364342,Target1.bmp,lime,1,,,,4,3,69
KW_Experiment5A,21,1,"<?xml version=""1.0""?>\n<Clock xmlns:dt=""urn:schemas-microsoft-com:datatypes""><Description dt:dt=""string"">E-Prime Primary Realtime Clock</Description><StartTime><Timestamp dt:dt=""int"">0</Timestamp><DateUtc dt:dt=""string"">2018-10-15T17:05:57Z</DateUtc></StartTime><FrequencyChanges><FrequencyChange><Frequency dt:dt=""r8"">3215292</Frequency><Timestamp dt:dt=""r8"">5293540642860</Timestamp><Current dt:dt=""r8"">0</Current><DateUtc dt:dt=""string"">2018-10-15T17:05:57Z</DateUtc></FrequencyChange></FrequencyChanges></Clock>\n",KW_Experiment5A-21-1,59.945,1.0.0.105,1,2141577913,Professional,2.0.10.353,2.0.10.353,10/15/2018,10/15/2018 17:05,13:05:57,2.0.10.248,3,2,1,3,,,,,,,,TrainingProc,BlockList,22,2,Distractor1.bmp,1,0,,0,1,365362,500,,0,0,blue,500,2,500,3,horizontal,blue,Distractor1.bmp,lime,Target2.bmp,purple,Distractor1.bmp,yellow,Distractor1.bmp,red,Distractor1.bmp,cyan,Distractor1.bmp,,,,TrialProc,,TrainingTrialList,1,2,-999999,0,365862,0,2,504,366366,Target2.bmp,lime,2,,,,2,3,70
KW_Experiment5A,21,1,"<?xml version=""1.0""?>\n<Clock xmlns:dt=""urn:schemas-microsoft-com:datatypes""><Description dt:dt=""string"">E-Prime Primary Realtime Clock</Description><StartTime><Timestamp dt:dt=""int"">0</Timestamp><DateUtc dt:dt=""string"">2018-10-15T17:05:57Z</DateUtc></StartTime><FrequencyChanges><FrequencyChange><Frequency dt:dt=""r8"">3215292</Frequency><Timestamp dt:dt=""r8"">5293540642860</Timestamp><Current dt:dt=""r8"">0</Current><DateUtc dt:dt=""string"">2018-10-15T17:05:57Z</DateUtc></FrequencyChange></FrequencyChanges></Clock>\n",KW_Experiment5A-21-1,59.945,1.0.0.105,1,2141577913,Professional,2.0.10.353,2.0.10.353,10/15/2018,10/15/2018 17:05,13:05:57,2.0.10.248,3,2,1,3,,,,,,,,TrainingProc,BlockList,23,2,Distractor1.bmp,1,0,,0,1,367380,500,,0,0,yellow,500,2,500,2,horizontal,yellow,Distractor1.bmp,blue,Distractor2.bmp,lime,Target2.bmp,cyan,Distractor1.bmp,purple,Distractor2.bmp,red,Distractor2.bmp,,,,TrialProc,,TrainingTrialList,1,2,-999999,0,367880,0,2,934,368814,Target2.bmp,lime,2,,,,3,3,71
KW_Experiment5A,21,1,"<?xml version=""1.0""?>\n<Clock xmlns:dt=""urn:schemas-microsoft-com:datatypes""><Description dt:dt=""string"">E-Prime Primary Realtime Clock</Description><StartTime><Timestamp dt:dt=""int"">0</Timestamp><DateUtc dt:dt=""string"">2018-10-15T17:05:57Z</DateUtc></StartTime><FrequencyChanges><FrequencyChange><Frequency dt:dt=""r8"">3215292</Frequency><Timestamp dt:dt=""r8"">5293540642860</Timestamp><Current dt:dt=""r8"">0</Current><DateUtc dt:dt=""string"">2018-10-15T17:05:57Z</DateUtc></FrequencyChange></FrequencyChanges></Clock>\n",KW_Experiment5A-21-1,59.945,1.0.0.105,1,2141577913,Professional,2.0.10.353,2.0.10.353,10/15/2018,10/15/2018 17:05,13:05:57,2.0.10.248,3,2,1,3,,,,,,,,TrainingProc,BlockList,24,2,Distractor1.bmp,1,0,,0,1,369832,601,,0,0,blue,600,3,600,3,horizontal,lime,Target2.bmp,blue,Distractor1.bmp,cyan,Distractor1.bmp,red,Distractor2.bmp,purple,Distractor1.bmp,yellow,Distractor1.bmp,,,,TrialProc,,TrainingTrialList,1,2,-999999,1,370433,0,2,637,371070,Target2.bmp,lime,2,,,,1,3,72
KW_Experiment5A,21,1,"<?xml version=""1.0""?>\n<Clock xmlns:dt=""urn:schemas-microsoft-com:datatypes""><Description dt:dt=""string"">E-Prime Primary Realtime Clock</Description><StartTime><Timestamp dt:dt=""int"">0</Timestamp><DateUtc dt:dt=""string"">2018-10-15T17:05:57Z</DateUtc></StartTime><FrequencyChanges><FrequencyChange><Frequency dt:dt=""r8"">3215292</Frequency><Timestamp dt:dt=""r8"">5293540642860</Timestamp><Current dt:dt=""r8"">0</Current><DateUtc dt:dt=""string"">2018-10-15T17:05:57Z</DateUtc></FrequencyChange></FrequencyChanges></Clock>\n",KW_Experiment5A-21-1,59.945,1.0.0.105,1,2141577913,Professional,2.0.10.353,2.0.10.353,10/15/2018,10/15/2018 17:05,13:05:57,2.0.10.248,3,2,1,3,,,,,,,,TrainingProc,BlockList,25,2,Distractor2.bmp,2,0,,0,1,372084,601,,0,0,purple,600,3,600,5,horizontal,purple,Distractor2.bmp,cyan,Distractor2.bmp,yellow,Distractor2.bmp,red,Distractor2.bmp,blue,Distractor2.bmp,lime,Target2.bmp,,,,TrialProc,,TrainingTrialList,0,2,-999999,1,372685,0,1,457,373142,Target2.bmp,lime,2,,,,6,4,73
KW_Experiment5A,21,1,"<?xml version=""1.0""?>\n<Clock xmlns:dt=""urn:schemas-microsoft-com:datatypes""><Description dt:dt=""string"">E-Prime Primary Realtime Clock</Description><StartTime><Timestamp dt:dt=""int"">0</Timestamp><DateUtc dt:dt=""string"">2018-10-15T17:05:57Z</DateUtc></StartTime><FrequencyChanges><FrequencyChange><Frequency dt:dt=""r8"">3215292</Frequency><Timestamp dt:dt=""r8"">5293540642860</Timestamp><Current dt:dt=""r8"">0</Current><DateUtc dt:dt=""string"">2018-10-15T17:05:57Z</DateUtc></FrequencyChange></FrequencyChanges></Clock>\n",KW_Experiment5A-21-1,59.945,1.0.0.105,1,2141577913,Professional,2.0.10.353,2.0.10.353,10/15/2018,10/15/2018 17:05,13:05:57,2.0.10.248,3,2,1,3,,,,,,,,TrainingProc,BlockList,26,2,Distractor1.bmp,1,0,,0,1,374153,600,,0,0,cyan,600,3,600,,horizontal,cyan,Distractor1.bmp,lime,Distractor1.bmp,purple,Distractor1.bmp,yellow,Distractor1.bmp,blue,Distractor1.bmp,red,Target2.bmp,,,,TrialProc,4,TrainingTrialList,1,2,-999999,0,374753,0,2,565,375318,Target2.bmp,red,2,,,,12,4,74
KW_Experiment5A,21,1,"<?xml version=""1.0""?>\n<Clock xmlns:dt=""urn:schemas-microsoft-com:datatypes""><Description dt:dt=""string"">E-Prime Primary Realtime Clock</Description><StartTime><Timestamp dt:dt=""int"">0</Timestamp><DateUtc dt:dt=""string"">2018-10-15T17:05:57Z</DateUtc></StartTime><FrequencyChanges><FrequencyChange><Frequency dt:dt=""r8"">3215292</Frequency><Timestamp dt:dt=""r8"">5293540642860</Timestamp><Current dt:dt=""r8"">0</Current><DateUtc dt:dt=""string"">2018-10-15T17:05:57Z</DateUtc></FrequencyChange></FrequencyChanges></Clock>\n",KW_Experiment5A-21-1,59.945,1.0.0.105,1,2141577913,Professional,2.0.10.353,2.0.10.353,10/15/2018,10/15/2018 17:05,13:05:57,2.0.10.248,3,2,1,3,,,,,,,,TrainingProc,BlockList,27,1,Distractor1.bmp,1,0,,0,1,376338,401,,0,0,cyan,400,1,400,4,vertical,lime,Target1.bmp,cyan,Distractor1.bmp,yellow,Distractor1.bmp,purple,Distractor1.bmp,blue,Distractor2.bmp,red,Distractor2.bmp,,,,TrialProc,,TrainingTrialList,1,1,-999999,1,376739,0,1,635,377374,Target1.bmp,lime,1,,,,1,4,75
KW_Experiment5A,21,1,"<?xml version=""1.0""?>\n<Clock xmlns:dt=""urn:schemas-microsoft-com:datatypes""><Description dt:dt=""string"">E-Prime Primary Realtime Clock</Description><StartTime><Timestamp dt:dt=""int"">0</Timestamp><DateUtc dt:dt=""string"">2018-10-15T17:05:57Z</DateUtc></StartTime><FrequencyChanges><FrequencyChange><Frequency dt:dt=""r8"">3215292</Frequency><Timestamp dt:dt=""r8"">5293540642860</Timestamp><Current dt:dt=""r8"">0</Current><DateUtc dt:dt=""string"">2018-10-15T17:05:57Z</DateUtc></FrequencyChange></FrequencyChanges></Clock>\n",KW_Experiment5A-21-1,59.945,1.0.0.105,1,2141577913,Professional,2.0.10.353,2.0.10.353,10/15/2018,10/15/2018 17:05,13:05:57,2.0.10.248,3,2,1,3,,,,,,,,TrainingProc,BlockList,28,2,Distractor2.bmp,2,0,,0,1,378390,601,,0,0,yellow,600,3,600,2,horizontal,yellow,Distractor1.bmp,purple,Distractor2.bmp,cyan,Distractor2.bmp,lime,Target2.bmp,blue,Distractor2.bmp,red,Distractor1.bmp,,,,TrialProc,,TrainingTrialList,1,2,-999999,1,378991,0,2,591,379582,Target2.bmp,lime,2,,,,4,4,76
KW_Experiment5A,21,1,"<?xml version=""1.0""?>\n<Clock xmlns:dt=""urn:schemas-microsoft-com:datatypes""><Description dt:dt=""string"">E-Prime Primary Realtime Clock</Description><StartTime><Timestamp dt:dt=""int"">0</Timestamp><DateUtc dt:dt=""string"">2018-10-15T17:05:57Z</DateUtc></StartTime><FrequencyChanges><FrequencyChange><Frequency dt:dt=""r8"">3215292</Frequency><Timestamp dt:dt=""r8"">5293540642860</Timestamp><Current dt:dt=""r8"">0</Current><DateUtc dt:dt=""string"">2018-10-15T17:05:57Z</DateUtc></FrequencyChange></FrequencyChanges></Clock>\n",KW_Experiment5A-21-1,59.945,1.0.0.105,1,2141577913,Professional,2.0.10.353,2.0.10.353,10/15/2018,10/15/2018 17:05,13:05:57,2.0.10.248,3,2,1,3,,,,,,,,TrainingProc,BlockList,29,1,Distractor2.bmp,2,0,,0,1,380592,500,,0,0,yellow,500,2,500,2,vertical,yellow,Distractor1.bmp,red,Distractor1.bmp,blue,Distractor1.bmp,purple,Distractor1.bmp,lime,Target1.bmp,cyan,Distractor2.bmp,,,,TrialProc,,TrainingTrialList,1,1,-999999,0,381092,0,1,786,381878,Target1.bmp,lime,1,,,,5,4,77
KW_Experiment5A,21,1,"<?xml version=""1.0""?>\n<Clock xmlns:dt=""urn:schemas-microsoft-com:datatypes""><Description dt:dt=""string"">E-Prime Primary Realtime Clock</Description><StartTime><Timestamp dt:dt=""int"">0</Timestamp><DateUtc dt:dt=""string"">2018-10-15T17:05:57Z</DateUtc></StartTime><FrequencyChanges><FrequencyChange><Frequency dt:dt=""r8"">3215292</Frequency><Timestamp dt:dt=""r8"">5293540642860</Timestamp><Current dt:dt=""r8"">0</Current><DateUtc dt:dt=""string"">2018-10-15T17:05:57Z</DateUtc></FrequencyChange></FrequencyChanges></Clock>\n",KW_Experiment5A-21-1,59.945,1.0.0.105,1,2141577913,Professional,2.0.10.353,2.0.10.353,10/15/2018,10/15/2018 17:05,13:05:57,2.0.10.248,3,2,1,3,,,,,,,,TrainingProc,BlockList,30,2,Distractor1.bmp,1,0,,0,1,382894,601,,0,0,red,600,3,600,1,horizontal,red,Distractor1.bmp,blue,Distractor2.bmp,lime,Target2.bmp,purple,Distractor1.bmp,yellow,Distractor2.bmp,cyan,Distractor1.bmp,,,,TrialProc,,TrainingTrialList,1,2,-999999,1,383495,0,2,527,384022,Target2.bmp,lime,2,,,,3,4,78
KW_Experiment5A,21,1,"<?xml version=""1.0""?>\n<Clock xmlns:dt=""urn:schemas-microsoft-com:datatypes""><Description dt:dt=""string"">E-Prime Primary Realtime Clock</Description><StartTime><Timestamp dt:dt=""int"">0</Timestamp><DateUtc dt:dt=""string"">2018-10-15T17:05:57Z</DateUtc></StartTime><FrequencyChanges><FrequencyChange><Frequency dt:dt=""r8"">3215292</Frequency><Timestamp dt:dt=""r8"">5293540642860</Timestamp><Current dt:dt=""r8"">0</Current><DateUtc dt:dt=""string"">2018-10-15T17:05:57Z</DateUtc></FrequencyChange></FrequencyChanges></Clock>\n",KW_Experiment5A-21-1,59.945,1.0.0.105,1,2141577913,Professional,2.0.10.353,2.0.10.353,10/15/2018,10/15/2018 17:05,13:05:57,2.0.10.248,3,2,1,3,,,,,,,,TrainingProc,BlockList,31,2,Distractor1.bmp,1,0,,0,1,385046,400,,0,0,yellow,400,1,400,2,horizontal,yellow,Distractor1.bmp,cyan,Distractor2.bmp,red,Distractor2.bmp,purple,Distractor2.bmp,blue,Distractor2.bmp,lime,Target2.bmp,,,,TrialProc,,TrainingTrialList,1,2,-999999,0,385446,0,2,552,385998,Target2.bmp,lime,2,,,,6,4,79
KW_Experiment5A,21,1,"<?xml version=""1.0""?>\n<Clock xmlns:dt=""urn:schemas-microsoft-com:datatypes""><Description dt:dt=""string"">E-Prime Primary Realtime Clock</Description><StartTime><Timestamp dt:dt=""int"">0</Timestamp><DateUtc dt:dt=""string"">2018-10-15T17:05:57Z</DateUtc></StartTime><FrequencyChanges><FrequencyChange><Frequency dt:dt=""r8"">3215292</Frequency><Timestamp dt:dt=""r8"">5293540642860</Timestamp><Current dt:dt=""r8"">0</Current><DateUtc dt:dt=""string"">2018-10-15T17:05:57Z</DateUtc></FrequencyChange></FrequencyChanges></Clock>\n",KW_Experiment5A-21-1,59.945,1.0.0.105,1,2141577913,Professional,2.0.10.353,2.0.10.353,10/15/2018,10/15/2018 17:05,13:05:57,2.0.10.248,3,2,1,3,,,,,,,,TrainingProc,BlockList,32,2,Distractor2.bmp,2,0,,0,1,387015,400,,0,0,purple,400,1,400,5,horizontal,purple,Distractor1.bmp,lime,Target2.bmp,yellow,Distractor2.bmp,blue,Distractor1.bmp,cyan,Distractor2.bmp,red,Distractor2.bmp,,,,TrialProc,,TrainingTrialList,1,2,-999999,0,387415,0,2,519,387934,Target2.bmp,lime,2,,,,2,4,80
KW_Experiment5A,21,1,"<?xml version=""1.0""?>\n<Clock xmlns:dt=""urn:schemas-microsoft-com:datatypes""><Description dt:dt=""string"">E-Prime Primary Realtime Clock</Description><StartTime><Timestamp dt:dt=""int"">0</Timestamp><DateUtc dt:dt=""string"">2018-10-15T17:05:57Z</DateUtc></StartTime><FrequencyChanges><FrequencyChange><Frequency dt:dt=""r8"">3215292</Frequency><Timestamp dt:dt=""r8"">5293540642860</Timestamp><Current dt:dt=""r8"">0</Current><DateUtc dt:dt=""string"">2018-10-15T17:05:57Z</DateUtc></FrequencyChange></FrequencyChanges></Clock>\n",KW_Experiment5A-21-1,59.945,1.0.0.105,1,2141577913,Professional,2.0.10.353,2.0.10.353,10/15/2018,10/15/2018 17:05,13:05:57,2.0.10.248,3,2,1,3,,,,,,,,TrainingProc,BlockList,33,1,Distractor1.bmp,1,0,,0,1,388950,400,,0,0,cyan,400,1,400,4,vertical,lime,Target1.bmp,cyan,Distractor1.bmp,red,Distractor1.bmp,blue,Distractor2.bmp,purple,Distractor1.bmp,yellow,Distractor1.bmp,,,,TrialProc,,TrainingTrialList,1,1,-999999,0,389350,0,1,552,389902,Target1.bmp,lime,1,,,,1,4,81
KW_Experiment5A,21,1,"<?xml version=""1.0""?>\n<Clock xmlns:dt=""urn:schemas-microsoft-com:datatypes""><Description dt:dt=""string"">E-Prime Primary Realtime Clock</Description><StartTime><Timestamp dt:dt=""int"">0</Timestamp><DateUtc dt:dt=""string"">2018-10-15T17:05:57Z</DateUtc></StartTime><FrequencyChanges><FrequencyChange><Frequency dt:dt=""r8"">3215292</Frequency><Timestamp dt:dt=""r8"">5293540642860</Timestamp><Current dt:dt=""r8"">0</Current><DateUtc dt:dt=""string"">2018-10-15T17:05:57Z</DateUtc></FrequencyChange></FrequencyChanges></Clock>\n",KW_Experiment5A-21-1,59.945,1.0.0.105,1,2141577913,Professional,2.0.10.353,2.0.10.353,10/15/2018,10/15/2018 17:05,13:05:57,2.0.10.248,3,2,1,3,,,,,,,,TrainingProc,BlockList,34,1,Distractor1.bmp,1,0,,0,1,390918,501,,0,0,cyan,500,2,500,4,vertical,cyan,Distractor1.bmp,yellow,Distractor1.bmp,purple,Distractor2.bmp,red,Distractor2.bmp,blue,Distractor2.bmp,lime,Target1.bmp,,,,TrialProc,,TrainingTrialList,1,1,-999999,1,391419,0,1,514,391933,Target1.bmp,lime,1,,,,6,4,82
KW_Experiment5A,21,1,"<?xml version=""1.0""?>\n<Clock xmlns:dt=""urn:schemas-microsoft-com:datatypes""><Description dt:dt=""string"">E-Prime Primary Realtime Clock</Description><StartTime><Timestamp dt:dt=""int"">0</Timestamp><DateUtc dt:dt=""string"">2018-10-15T17:05:57Z</DateUtc></StartTime><FrequencyChanges><FrequencyChange><Frequency dt:dt=""r8"">3215292</Frequency><Timestamp dt:dt=""r8"">5293540642860</Timestamp><Current dt:dt=""r8"">0</Current><DateUtc dt:dt=""string"">2018-10-15T17:05:57Z</DateUtc></FrequencyChange></FrequencyChanges></Clock>\n",KW_Experiment5A-21-1,59.945,1.0.0.105,1,2141577913,Professional,2.0.10.353,2.0.10.353,10/15/2018,10/15/2018 17:05,13:05:57,2.0.10.248,3,2,1,3,,,,,,,,TrainingProc,BlockList,35,1,Distractor2.bmp,2,0,,0,1,392953,601,,0,0,purple,600,3,600,5,vertical,purple,Distractor2.bmp,blue,Distractor1.bmp,red,Distractor1.bmp,cyan,Distractor1.bmp,lime,Target1.bmp,yellow,Distractor2.bmp,,,,TrialProc,,TrainingTrialList,1,1,-999999,1,393554,0,1,499,394053,Target1.bmp,lime,1,,,,5,4,83
KW_Experiment5A,21,1,"<?xml version=""1.0""?>\n<Clock xmlns:dt=""urn:schemas-microsoft-com:datatypes""><Description dt:dt=""string"">E-Prime Primary Realtime Clock</Description><StartTime><Timestamp dt:dt=""int"">0</Timestamp><DateUtc dt:dt=""string"">2018-10-15T17:05:57Z</DateUtc></StartTime><FrequencyChanges><FrequencyChange><Frequency dt:dt=""r8"">3215292</Frequency><Timestamp dt:dt=""r8"">5293540642860</Timestamp><Current dt:dt=""r8"">0</Current><DateUtc dt:dt=""string"">2018-10-15T17:05:57Z</DateUtc></FrequencyChange></FrequencyChanges></Clock>\n",KW_Experiment5A-21-1,59.945,1.0.0.105,1,2141577913,Professional,2.0.10.353,2.0.10.353,10/15/2018,10/15/2018 17:05,13:05:57,2.0.10.248,3,2,1,3,,,,,,,,TrainingProc,BlockList,36,1,Distractor2.bmp,2,0,,0,1,395072,600,,0,0,red,600,3,600,1,vertical,red,Distractor2.bmp,yellow,Distractor2.bmp,lime,Target1.bmp,blue,Distractor2.bmp,purple,Distractor2.bmp,cyan,Distractor1.bmp,,,,TrialProc,,TrainingTrialList,1,1,-999999,0,395672,0,1,421,396093,Target1.bmp,lime,1,,,,3,4,84
KW_Experiment5A,21,1,"<?xml version=""1.0""?>\n<Clock xmlns:dt=""urn:schemas-microsoft-com:datatypes""><Description dt:dt=""string"">E-Prime Primary Realtime Clock</Description><StartTime><Timestamp dt:dt=""int"">0</Timestamp><DateUtc dt:dt=""string"">2018-10-15T17:05:57Z</DateUtc></StartTime><FrequencyChanges><FrequencyChange><Frequency dt:dt=""r8"">3215292</Frequency><Timestamp dt:dt=""r8"">5293540642860</Timestamp><Current dt:dt=""r8"">0</Current><DateUtc dt:dt=""string"">2018-10-15T17:05:57Z</DateUtc></FrequencyChange></FrequencyChanges></Clock>\n",KW_Experiment5A-21-1,59.945,1.0.0.105,1,2141577913,Professional,2.0.10.353,2.0.10.353,10/15/2018,10/15/2018 17:05,13:05:57,2.0.10.248,3,2,1,3,,,,,,,,TrainingProc,BlockList,37,2,Distractor2.bmp,2,0,,0,1,397107,400,,0,0,blue,400,1,400,3,horizontal,blue,Distractor1.bmp,lime,Target2.bmp,purple,Distractor2.bmp,yellow,Distractor2.bmp,cyan,Distractor2.bmp,red,Distractor2.bmp,,,,TrialProc,,TrainingTrialList,1,2,-999999,0,397507,0,2,458,397965,Target2.bmp,lime,2,,,,2,4,85
KW_Experiment5A,21,1,"<?xml version=""1.0""?>\n<Clock xmlns:dt=""urn:schemas-microsoft-com:datatypes""><Description dt:dt=""string"">E-Prime Primary Realtime Clock</Description><StartTime><Timestamp dt:dt=""int"">0</Timestamp><DateUtc dt:dt=""string"">2018-10-15T17:05:57Z</DateUtc></StartTime><FrequencyChanges><FrequencyChange><Frequency dt:dt=""r8"">3215292</Frequency><Timestamp dt:dt=""r8"">5293540642860</Timestamp><Current dt:dt=""r8"">0</Current><DateUtc dt:dt=""string"">2018-10-15T17:05:57Z</DateUtc></FrequencyChange></FrequencyChanges></Clock>\n",KW_Experiment5A-21-1,59.945,1.0.0.105,1,2141577913,Professional,2.0.10.353,2.0.10.353,10/15/2018,10/15/2018 17:05,13:05:57,2.0.10.248,3,2,1,3,,,,,,,,TrainingProc,BlockList,38,1,Distractor1.bmp,1,0,,1,0,398975,601,,0,0,cyan,600,3,600,4,vertical,cyan,Distractor1.bmp,red,Distractor1.bmp,blue,Distractor1.bmp,yellow,Distractor1.bmp,lime,Target1.bmp,purple,Distractor1.bmp,,,,TrialProc,,TrainingTrialList,1,1,-999999,1,399576,0,1,357,399933,Target1.bmp,lime,1,,,,5,4,86
KW_Experiment5A,21,1,"<?xml version=""1.0""?>\n<Clock xmlns:dt=""urn:schemas-microsoft-com:datatypes""><Description dt:dt=""string"">E-Prime Primary Realtime Clock</Description><StartTime><Timestamp dt:dt=""int"">0</Timestamp><DateUtc dt:dt=""string"">2018-10-15T17:05:57Z</DateUtc></StartTime><FrequencyChanges><FrequencyChange><Frequency dt:dt=""r8"">3215292</Frequency><Timestamp dt:dt=""r8"">5293540642860</Timestamp><Current dt:dt=""r8"">0</Current><DateUtc dt:dt=""string"">2018-10-15T17:05:57Z</DateUtc></FrequencyChange></FrequencyChanges></Clock>\n",KW_Experiment5A-21-1,59.945,1.0.0.105,1,2141577913,Professional,2.0.10.353,2.0.10.353,10/15/2018,10/15/2018 17:05,13:05:57,2.0.10.248,3,2,1,3,,,,,,,,TrainingProc,BlockList,39,1,Distractor2.bmp,2,0,,0,1,400944,600,,0,0,lime,600,3,600,,vertical,lime,Distractor2.bmp,red,Target1.bmp,cyan,Distractor2.bmp,yellow,Distractor1.bmp,blue,Distractor2.bmp,purple,Distractor2.bmp,,,,TrialProc,6,TrainingTrialList,1,1,-999999,0,401544,0,1,453,401997,Target1.bmp,red,1,,,,8,4,87
KW_Experiment5A,21,1,"<?xml version=""1.0""?>\n<Clock xmlns:dt=""urn:schemas-microsoft-com:datatypes""><Description dt:dt=""string"">E-Prime Primary Realtime Clock</Description><StartTime><Timestamp dt:dt=""int"">0</Timestamp><DateUtc dt:dt=""string"">2018-10-15T17:05:57Z</DateUtc></StartTime><FrequencyChanges><FrequencyChange><Frequency dt:dt=""r8"">3215292</Frequency><Timestamp dt:dt=""r8"">5293540642860</Timestamp><Current dt:dt=""r8"">0</Current><DateUtc dt:dt=""string"">2018-10-15T17:05:57Z</DateUtc></FrequencyChange></FrequencyChanges></Clock>\n",KW_Experiment5A-21-1,59.945,1.0.0.105,1,2141577913,Professional,2.0.10.353,2.0.10.353,10/15/2018,10/15/2018 17:05,13:05:57,2.0.10.248,3,2,1,3,,,,,,,,TrainingProc,BlockList,40,2,Distractor2.bmp,2,0,,1,0,403012,501,,0,0,blue,500,2,500,3,horizontal,blue,Distractor1.bmp,red,Distractor1.bmp,lime,Target2.bmp,cyan,Distractor2.bmp,yellow,Distractor1.bmp,purple,Distractor2.bmp,,,,TrialProc,,TrainingTrialList,1,2,-999999,1,403513,0,2,484,403997,Target2.bmp,lime,2,,,,3,4,88
KW_Experiment5A,21,1,"<?xml version=""1.0""?>\n<Clock xmlns:dt=""urn:schemas-microsoft-com:datatypes""><Description dt:dt=""string"">E-Prime Primary Realtime Clock</Description><StartTime><Timestamp dt:dt=""int"">0</Timestamp><DateUtc dt:dt=""string"">2018-10-15T17:05:57Z</DateUtc></StartTime><FrequencyChanges><FrequencyChange><Frequency dt:dt=""r8"">3215292</Frequency><Timestamp dt:dt=""r8"">5293540642860</Timestamp><Current dt:dt=""r8"">0</Current><DateUtc dt:dt=""string"">2018-10-15T17:05:57Z</DateUtc></FrequencyChange></FrequencyChanges></Clock>\n",KW_Experiment5A-21-1,59.945,1.0.0.105,1,2141577913,Professional,2.0.10.353,2.0.10.353,10/15/2018,10/15/2018 17:05,13:05:57,2.0.10.248,3,2,1,3,,,,,,,,TrainingProc,BlockList,41,2,Distractor2.bmp,2,0,,0,1,405014,401,,0,0,yellow,400,1,400,2,horizontal,yellow,Distractor1.bmp,cyan,Distractor2.bmp,blue,Distractor1.bmp,lime,Target2.bmp,red,Distractor2.bmp,purple,Distractor2.bmp,,,,TrialProc,,TrainingTrialList,1,2,-999999,1,405415,0,2,550,405965,Target2.bmp,lime,2,,,,4,4,89
KW_Experiment5A,21,1,"<?xml version=""1.0""?>\n<Clock xmlns:dt=""urn:schemas-microsoft-com:datatypes""><Description dt:dt=""string"">E-Prime Primary Realtime Clock</Description><StartTime><Timestamp dt:dt=""int"">0</Timestamp><DateUtc dt:dt=""string"">2018-10-15T17:05:57Z</DateUtc></StartTime><FrequencyChanges><FrequencyChange><Frequency dt:dt=""r8"">3215292</Frequency><Timestamp dt:dt=""r8"">5293540642860</Timestamp><Current dt:dt=""r8"">0</Current><DateUtc dt:dt=""string"">2018-10-15T17:05:57Z</DateUtc></FrequencyChange></FrequencyChanges></Clock>\n",KW_Experiment5A-21-1,59.945,1.0.0.105,1,2141577913,Professional,2.0.10.353,2.0.10.353,10/15/2018,10/15/2018 17:05,13:05:57,2.0.10.248,3,2,1,3,,,,,,,,TrainingProc,BlockList,42,1,Distractor2.bmp,2,0,,0,1,406983,400,,0,0,blue,400,1,400,3,vertical,blue,Distractor2.bmp,cyan,Distractor2.bmp,yellow,Distractor1.bmp,lime,Target1.bmp,purple,Distractor2.bmp,red,Distractor1.bmp,,,,TrialProc,,TrainingTrialList,1,1,-999999,0,407383,0,1,430,407813,Target1.bmp,lime,1,,,,4,4,90
