ExperimentName,Subject,Session,Clock.Information,DataFile.Basename,Display.RefreshRate,ExperimentVersion,Group,RandomSeed,RuntimeCapabilities,RuntimeVersion,RuntimeVersionExpected,SessionDate,SessionStartDateTimeUtc,SessionTime,StudioVersion,Block,BlockList,BlockList.Cycle,BlockList.Sample,PostTestQ1.RESP,PostTestQ1CJ.RESP,PostTestQ2.RESP,PostTestQ2CJ.RESP,PostTestQ3.RESP,PostTestQ3CJ.RESP,PostTestSlide.RESP,Procedure[Block],Running[Block],Trial,CorrectResponse,Distractor,DistractorList,Fixation.ACC,Fixation.CRESP,Fixation.DurationError,Fixation.OnsetDelay,Fixation.OnsetTime,Fixation.OnsetToOnsetTime,Fixation.RESP,Fixation.RT,Fixation.RTTime,ItemColor,Jitter,JitterList,JitterTime,Lime0List,Orientation,Pos1Color,Pos1Item,Pos2Color,Pos2Item,Pos3Color,Pos3Item,Pos4Color,Pos4Item,Pos5Color,Pos5Item,Pos6Color,Pos6Item,PracticeTrialList,PracticeTrialList.Cycle,PracticeTrialList.Sample,Procedure[Trial],Red0List,Running[Trial],Stimulus.ACC,Stimulus.CRESP,Stimulus.DurationError,Stimulus.OnsetDelay,Stimulus.OnsetTime,Stimulus.OnsetToOnsetTime,Stimulus.RESP,Stimulus.RT,Stimulus.RTTime,Target,TargetColor,TargetList,TestTrialList,TestTrialList.Cycle,TestTrialList.Sample,TrainingTrialList,TrainingTrialList.Cycle,TrainingTrialList.Sample
KW_Experiment5A,33,1,"<?xml version=""1.0""?>\n<Clock xmlns:dt=""urn:schemas-microsoft-com:datatypes""><Description dt:dt=""string"">E-Prime Primary Realtime Clock</Description><StartTime><Timestamp dt:dt=""int"">0</Timestamp><DateUtc dt:dt=""string"">2018-10-18T20:20:11Z</DateUtc></StartTime><FrequencyChanges><FrequencyChange><Frequency dt:dt=""r8"">3215292</Frequency><Timestamp dt:dt=""r8"">6164390183149</Timestamp><Current dt:dt=""r8"">0</Current><DateUtc dt:dt=""string"">2018-10-18T20:20:11Z</DateUtc></FrequencyChange></FrequencyChanges></Clock>\n",KW_Experiment5A-33-1,59.945,1.0.0.105,2,1112533151,Professional,2.0.10.353,2.0.10.353,10/18/2018,10/18/2018 20:20,16:20:12,2.0.10.248,1,1,1,1,,,,,,,,PracticeProc,BlockList,1,2,Distractor1.bmp,1,0,,0,41,176835,501,,0,0,yellow,500,2,500,,horizontal,blue,Distractor1.bmp,purple,Distractor1.bmp,lime,Distractor2.bmp,cyan,Distractor2.bmp,yellow,Distractor2.bmp,red,Target2.bmp,6,1,1,TrialProc,2,PracticeTrialList,0,2,-999999,1,177336,0,1,8241,185577,Target2.bmp,red,2,,,,,,
KW_Experiment5A,33,1,"<?xml version=""1.0""?>\n<Clock xmlns:dt=""urn:schemas-microsoft-com:datatypes""><Description dt:dt=""string"">E-Prime Primary Realtime Clock</Description><StartTime><Timestamp dt:dt=""int"">0</Timestamp><DateUtc dt:dt=""string"">2018-10-18T20:20:11Z</DateUtc></StartTime><FrequencyChanges><FrequencyChange><Frequency dt:dt=""r8"">3215292</Frequency><Timestamp dt:dt=""r8"">6164390183149</Timestamp><Current dt:dt=""r8"">0</Current><DateUtc dt:dt=""string"">2018-10-18T20:20:11Z</DateUtc></FrequencyChange></FrequencyChanges></Clock>\n",KW_Experiment5A-33-1,59.945,1.0.0.105,2,1112533151,Professional,2.0.10.353,2.0.10.353,10/18/2018,10/18/2018 20:20,16:20:12,2.0.10.248,1,1,1,1,,,,,,,,PracticeProc,BlockList,2,2,Distractor1.bmp,1,0,,0,1,186594,500,,0,0,red,500,2,500,1,horizontal,purple,Distractor1.bmp,blue,Distractor2.bmp,cyan,Distractor1.bmp,red,Distractor1.bmp,lime,Target2.bmp,yellow,Distractor1.bmp,5,1,2,TrialProc,,PracticeTrialList,1,2,-999999,0,187094,0,2,2507,189601,Target2.bmp,lime,2,,,,,,
KW_Experiment5A,33,1,"<?xml version=""1.0""?>\n<Clock xmlns:dt=""urn:schemas-microsoft-com:datatypes""><Description dt:dt=""string"">E-Prime Primary Realtime Clock</Description><StartTime><Timestamp dt:dt=""int"">0</Timestamp><DateUtc dt:dt=""string"">2018-10-18T20:20:11Z</DateUtc></StartTime><FrequencyChanges><FrequencyChange><Frequency dt:dt=""r8"">3215292</Frequency><Timestamp dt:dt=""r8"">6164390183149</Timestamp><Current dt:dt=""r8"">0</Current><DateUtc dt:dt=""string"">2018-10-18T20:20:11Z</DateUtc></FrequencyChange></FrequencyChanges></Clock>\n",KW_Experiment5A-33-1,59.945,1.0.0.105,2,1112533151,Professional,2.0.10.353,2.0.10.353,10/18/2018,10/18/2018 20:20,16:20:12,2.0.10.248,1,1,1,1,,,,,,,,PracticeProc,BlockList,3,2,Distractor1.bmp,1,0,,0,1,190614,501,,0,0,cyan,500,2,500,4,horizontal,lime,Target2.bmp,blue,Distractor1.bmp,red,Distractor1.bmp,purple,Distractor2.bmp,yellow,Distractor2.bmp,cyan,Distractor1.bmp,1,1,3,TrialProc,,PracticeTrialList,0,2,-999999,1,191115,0,1,1014,192129,Target2.bmp,lime,2,,,,,,
KW_Experiment5A,33,1,"<?xml version=""1.0""?>\n<Clock xmlns:dt=""urn:schemas-microsoft-com:datatypes""><Description dt:dt=""string"">E-Prime Primary Realtime Clock</Description><StartTime><Timestamp dt:dt=""int"">0</Timestamp><DateUtc dt:dt=""string"">2018-10-18T20:20:11Z</DateUtc></StartTime><FrequencyChanges><FrequencyChange><Frequency dt:dt=""r8"">3215292</Frequency><Timestamp dt:dt=""r8"">6164390183149</Timestamp><Current dt:dt=""r8"">0</Current><DateUtc dt:dt=""string"">2018-10-18T20:20:11Z</DateUtc></FrequencyChange></FrequencyChanges></Clock>\n",KW_Experiment5A-33-1,59.945,1.0.0.105,2,1112533151,Professional,2.0.10.353,2.0.10.353,10/18/2018,10/18/2018 20:20,16:20:12,2.0.10.248,1,1,1,1,,,,,,,,PracticeProc,BlockList,4,1,Distractor2.bmp,2,0,,0,1,193150,400,,0,0,lime,400,1,400,,vertical,blue,Distractor1.bmp,purple,Distractor2.bmp,lime,Distractor1.bmp,red,Target1.bmp,cyan,Distractor2.bmp,yellow,Distractor1.bmp,4,1,4,TrialProc,6,PracticeTrialList,0,1,-999999,0,193550,0,2,5299,198849,Target1.bmp,red,1,,,,,,
KW_Experiment5A,33,1,"<?xml version=""1.0""?>\n<Clock xmlns:dt=""urn:schemas-microsoft-com:datatypes""><Description dt:dt=""string"">E-Prime Primary Realtime Clock</Description><StartTime><Timestamp dt:dt=""int"">0</Timestamp><DateUtc dt:dt=""string"">2018-10-18T20:20:11Z</DateUtc></StartTime><FrequencyChanges><FrequencyChange><Frequency dt:dt=""r8"">3215292</Frequency><Timestamp dt:dt=""r8"">6164390183149</Timestamp><Current dt:dt=""r8"">0</Current><DateUtc dt:dt=""string"">2018-10-18T20:20:11Z</DateUtc></FrequencyChange></FrequencyChanges></Clock>\n",KW_Experiment5A-33-1,59.945,1.0.0.105,2,1112533151,Professional,2.0.10.353,2.0.10.353,10/18/2018,10/18/2018 20:20,16:20:12,2.0.10.248,1,1,1,1,,,,,,,,PracticeProc,BlockList,5,2,Distractor2.bmp,2,0,,0,1,199873,400,,0,0,blue,400,1,400,3,horizontal,red,Distractor2.bmp,blue,Distractor2.bmp,lime,Target2.bmp,purple,Distractor2.bmp,cyan,Distractor2.bmp,yellow,Distractor1.bmp,3,1,5,TrialProc,,PracticeTrialList,1,2,-999999,0,200273,0,2,1728,202001,Target2.bmp,lime,2,,,,,,
KW_Experiment5A,33,1,"<?xml version=""1.0""?>\n<Clock xmlns:dt=""urn:schemas-microsoft-com:datatypes""><Description dt:dt=""string"">E-Prime Primary Realtime Clock</Description><StartTime><Timestamp dt:dt=""int"">0</Timestamp><DateUtc dt:dt=""string"">2018-10-18T20:20:11Z</DateUtc></StartTime><FrequencyChanges><FrequencyChange><Frequency dt:dt=""r8"">3215292</Frequency><Timestamp dt:dt=""r8"">6164390183149</Timestamp><Current dt:dt=""r8"">0</Current><DateUtc dt:dt=""string"">2018-10-18T20:20:11Z</DateUtc></FrequencyChange></FrequencyChanges></Clock>\n",KW_Experiment5A-33-1,59.945,1.0.0.105,2,1112533151,Professional,2.0.10.353,2.0.10.353,10/18/2018,10/18/2018 20:20,16:20:12,2.0.10.248,1,1,1,1,,,,,,,,PracticeProc,BlockList,6,2,Distractor1.bmp,1,0,,0,1,203026,400,,0,0,cyan,400,1,400,,horizontal,cyan,Distractor2.bmp,red,Target2.bmp,blue,Distractor1.bmp,purple,Distractor2.bmp,yellow,Distractor2.bmp,lime,Distractor1.bmp,2,1,6,TrialProc,4,PracticeTrialList,0,2,-999999,0,203426,0,1,807,204233,Target2.bmp,red,2,,,,,,
KW_Experiment5A,33,1,"<?xml version=""1.0""?>\n<Clock xmlns:dt=""urn:schemas-microsoft-com:datatypes""><Description dt:dt=""string"">E-Prime Primary Realtime Clock</Description><StartTime><Timestamp dt:dt=""int"">0</Timestamp><DateUtc dt:dt=""string"">2018-10-18T20:20:11Z</DateUtc></StartTime><FrequencyChanges><FrequencyChange><Frequency dt:dt=""r8"">3215292</Frequency><Timestamp dt:dt=""r8"">6164390183149</Timestamp><Current dt:dt=""r8"">0</Current><DateUtc dt:dt=""string"">2018-10-18T20:20:11Z</DateUtc></FrequencyChange></FrequencyChanges></Clock>\n",KW_Experiment5A-33-1,59.945,1.0.0.105,2,1112533151,Professional,2.0.10.353,2.0.10.353,10/18/2018,10/18/2018 20:20,16:20:12,2.0.10.248,2,2,1,2,,,,,,,,TrainingProc,BlockList,1,2,Distractor2.bmp,2,0,,0,17,211066,501,,0,0,cyan,500,2,500,,horizontal,cyan,Distractor2.bmp,yellow,Distractor1.bmp,blue,Distractor2.bmp,lime,Distractor2.bmp,red,Target2.bmp,purple,Distractor2.bmp,,,,TrialProc,4,TrainingTrialList,0,2,-999999,1,211567,0,1,2242,213809,Target2.bmp,red,2,,,,11,2,1
KW_Experiment5A,33,1,"<?xml version=""1.0""?>\n<Clock xmlns:dt=""urn:schemas-microsoft-com:datatypes""><Description dt:dt=""string"">E-Prime Primary Realtime Clock</Description><StartTime><Timestamp dt:dt=""int"">0</Timestamp><DateUtc dt:dt=""string"">2018-10-18T20:20:11Z</DateUtc></StartTime><FrequencyChanges><FrequencyChange><Frequency dt:dt=""r8"">3215292</Frequency><Timestamp dt:dt=""r8"">6164390183149</Timestamp><Current dt:dt=""r8"">0</Current><DateUtc dt:dt=""string"">2018-10-18T20:20:11Z</DateUtc></FrequencyChange></FrequencyChanges></Clock>\n",KW_Experiment5A-33-1,59.945,1.0.0.105,2,1112533151,Professional,2.0.10.353,2.0.10.353,10/18/2018,10/18/2018 20:20,16:20:12,2.0.10.248,2,2,1,2,,,,,,,,TrainingProc,BlockList,2,2,Distractor2.bmp,2,0,,0,1,214820,600,,0,0,blue,600,3,600,,horizontal,blue,Distractor1.bmp,lime,Distractor1.bmp,red,Target2.bmp,purple,Distractor2.bmp,yellow,Distractor2.bmp,cyan,Distractor2.bmp,,,,TrialProc,3,TrainingTrialList,1,2,-999999,0,215420,0,2,861,216281,Target2.bmp,red,2,,,,9,2,2
KW_Experiment5A,33,1,"<?xml version=""1.0""?>\n<Clock xmlns:dt=""urn:schemas-microsoft-com:datatypes""><Description dt:dt=""string"">E-Prime Primary Realtime Clock</Description><StartTime><Timestamp dt:dt=""int"">0</Timestamp><DateUtc dt:dt=""string"">2018-10-18T20:20:11Z</DateUtc></StartTime><FrequencyChanges><FrequencyChange><Frequency dt:dt=""r8"">3215292</Frequency><Timestamp dt:dt=""r8"">6164390183149</Timestamp><Current dt:dt=""r8"">0</Current><DateUtc dt:dt=""string"">2018-10-18T20:20:11Z</DateUtc></FrequencyChange></FrequencyChanges></Clock>\n",KW_Experiment5A-33-1,59.945,1.0.0.105,2,1112533151,Professional,2.0.10.353,2.0.10.353,10/18/2018,10/18/2018 20:20,16:20:12,2.0.10.248,2,2,1,2,,,,,,,,TrainingProc,BlockList,3,2,Distractor1.bmp,1,0,,0,1,217305,501,,0,0,cyan,500,2,500,,horizontal,cyan,Distractor2.bmp,blue,Distractor2.bmp,yellow,Distractor2.bmp,lime,Distractor2.bmp,red,Target2.bmp,purple,Distractor1.bmp,,,,TrialProc,4,TrainingTrialList,1,2,-999999,1,217806,0,2,586,218392,Target2.bmp,red,2,,,,11,2,3
KW_Experiment5A,33,1,"<?xml version=""1.0""?>\n<Clock xmlns:dt=""urn:schemas-microsoft-com:datatypes""><Description dt:dt=""string"">E-Prime Primary Realtime Clock</Description><StartTime><Timestamp dt:dt=""int"">0</Timestamp><DateUtc dt:dt=""string"">2018-10-18T20:20:11Z</DateUtc></StartTime><FrequencyChanges><FrequencyChange><Frequency dt:dt=""r8"">3215292</Frequency><Timestamp dt:dt=""r8"">6164390183149</Timestamp><Current dt:dt=""r8"">0</Current><DateUtc dt:dt=""string"">2018-10-18T20:20:11Z</DateUtc></FrequencyChange></FrequencyChanges></Clock>\n",KW_Experiment5A-33-1,59.945,1.0.0.105,2,1112533151,Professional,2.0.10.353,2.0.10.353,10/18/2018,10/18/2018 20:20,16:20:12,2.0.10.248,2,2,1,2,,,,,,,,TrainingProc,BlockList,4,1,Distractor1.bmp,1,0,,0,1,219407,601,,0,0,blue,600,3,600,,vertical,blue,Distractor2.bmp,purple,Distractor1.bmp,yellow,Distractor1.bmp,lime,Distractor2.bmp,red,Target1.bmp,cyan,Distractor1.bmp,,,,TrialProc,3,TrainingTrialList,0,1,-999999,1,220008,0,2,416,220424,Target1.bmp,red,1,,,,11,2,4
KW_Experiment5A,33,1,"<?xml version=""1.0""?>\n<Clock xmlns:dt=""urn:schemas-microsoft-com:datatypes""><Description dt:dt=""string"">E-Prime Primary Realtime Clock</Description><StartTime><Timestamp dt:dt=""int"">0</Timestamp><DateUtc dt:dt=""string"">2018-10-18T20:20:11Z</DateUtc></StartTime><FrequencyChanges><FrequencyChange><Frequency dt:dt=""r8"">3215292</Frequency><Timestamp dt:dt=""r8"">6164390183149</Timestamp><Current dt:dt=""r8"">0</Current><DateUtc dt:dt=""string"">2018-10-18T20:20:11Z</DateUtc></FrequencyChange></FrequencyChanges></Clock>\n",KW_Experiment5A-33-1,59.945,1.0.0.105,2,1112533151,Professional,2.0.10.353,2.0.10.353,10/18/2018,10/18/2018 20:20,16:20:12,2.0.10.248,2,2,1,2,,,,,,,,TrainingProc,BlockList,5,2,Distractor2.bmp,2,0,,0,1,221442,601,,0,0,purple,600,3,600,,horizontal,purple,Distractor2.bmp,yellow,Distractor2.bmp,lime,Distractor2.bmp,cyan,Distractor1.bmp,blue,Distractor1.bmp,red,Target2.bmp,,,,TrialProc,5,TrainingTrialList,0,2,-999999,1,222043,0,1,1141,223184,Target2.bmp,red,2,,,,12,2,5
KW_Experiment5A,33,1,"<?xml version=""1.0""?>\n<Clock xmlns:dt=""urn:schemas-microsoft-com:datatypes""><Description dt:dt=""string"">E-Prime Primary Realtime Clock</Description><StartTime><Timestamp dt:dt=""int"">0</Timestamp><DateUtc dt:dt=""string"">2018-10-18T20:20:11Z</DateUtc></StartTime><FrequencyChanges><FrequencyChange><Frequency dt:dt=""r8"">3215292</Frequency><Timestamp dt:dt=""r8"">6164390183149</Timestamp><Current dt:dt=""r8"">0</Current><DateUtc dt:dt=""string"">2018-10-18T20:20:11Z</DateUtc></FrequencyChange></FrequencyChanges></Clock>\n",KW_Experiment5A-33-1,59.945,1.0.0.105,2,1112533151,Professional,2.0.10.353,2.0.10.353,10/18/2018,10/18/2018 20:20,16:20:12,2.0.10.248,2,2,1,2,,,,,,,,TrainingProc,BlockList,6,2,Distractor2.bmp,2,0,,0,1,224212,400,,0,0,yellow,400,1,400,2,horizontal,yellow,Distractor2.bmp,blue,Distractor2.bmp,lime,Target2.bmp,purple,Distractor2.bmp,cyan,Distractor1.bmp,red,Distractor1.bmp,,,,TrialProc,,TrainingTrialList,1,2,-999999,0,224612,0,2,1908,226520,Target2.bmp,lime,2,,,,3,2,6
KW_Experiment5A,33,1,"<?xml version=""1.0""?>\n<Clock xmlns:dt=""urn:schemas-microsoft-com:datatypes""><Description dt:dt=""string"">E-Prime Primary Realtime Clock</Description><StartTime><Timestamp dt:dt=""int"">0</Timestamp><DateUtc dt:dt=""string"">2018-10-18T20:20:11Z</DateUtc></StartTime><FrequencyChanges><FrequencyChange><Frequency dt:dt=""r8"">3215292</Frequency><Timestamp dt:dt=""r8"">6164390183149</Timestamp><Current dt:dt=""r8"">0</Current><DateUtc dt:dt=""string"">2018-10-18T20:20:11Z</DateUtc></FrequencyChange></FrequencyChanges></Clock>\n",KW_Experiment5A-33-1,59.945,1.0.0.105,2,1112533151,Professional,2.0.10.353,2.0.10.353,10/18/2018,10/18/2018 20:20,16:20:12,2.0.10.248,2,2,1,2,,,,,,,,TrainingProc,BlockList,7,2,Distractor1.bmp,1,0,,0,1,227531,501,,0,0,purple,500,2,500,,horizontal,purple,Distractor1.bmp,red,Target2.bmp,cyan,Distractor1.bmp,blue,Distractor2.bmp,lime,Distractor2.bmp,yellow,Distractor1.bmp,,,,TrialProc,5,TrainingTrialList,1,2,-999999,1,228032,0,2,440,228472,Target2.bmp,red,2,,,,8,2,7
KW_Experiment5A,33,1,"<?xml version=""1.0""?>\n<Clock xmlns:dt=""urn:schemas-microsoft-com:datatypes""><Description dt:dt=""string"">E-Prime Primary Realtime Clock</Description><StartTime><Timestamp dt:dt=""int"">0</Timestamp><DateUtc dt:dt=""string"">2018-10-18T20:20:11Z</DateUtc></StartTime><FrequencyChanges><FrequencyChange><Frequency dt:dt=""r8"">3215292</Frequency><Timestamp dt:dt=""r8"">6164390183149</Timestamp><Current dt:dt=""r8"">0</Current><DateUtc dt:dt=""string"">2018-10-18T20:20:11Z</DateUtc></FrequencyChange></FrequencyChanges></Clock>\n",KW_Experiment5A-33-1,59.945,1.0.0.105,2,1112533151,Professional,2.0.10.353,2.0.10.353,10/18/2018,10/18/2018 20:20,16:20:12,2.0.10.248,2,2,1,2,,,,,,,,TrainingProc,BlockList,8,2,Distractor1.bmp,1,0,,0,1,229483,500,,0,0,yellow,500,2,500,,horizontal,yellow,Distractor1.bmp,cyan,Distractor1.bmp,lime,Distractor1.bmp,purple,Distractor2.bmp,blue,Distractor2.bmp,red,Target2.bmp,,,,TrialProc,2,TrainingTrialList,0,2,-999999,0,229983,0,1,577,230560,Target2.bmp,red,2,,,,12,2,8
KW_Experiment5A,33,1,"<?xml version=""1.0""?>\n<Clock xmlns:dt=""urn:schemas-microsoft-com:datatypes""><Description dt:dt=""string"">E-Prime Primary Realtime Clock</Description><StartTime><Timestamp dt:dt=""int"">0</Timestamp><DateUtc dt:dt=""string"">2018-10-18T20:20:11Z</DateUtc></StartTime><FrequencyChanges><FrequencyChange><Frequency dt:dt=""r8"">3215292</Frequency><Timestamp dt:dt=""r8"">6164390183149</Timestamp><Current dt:dt=""r8"">0</Current><DateUtc dt:dt=""string"">2018-10-18T20:20:11Z</DateUtc></FrequencyChange></FrequencyChanges></Clock>\n",KW_Experiment5A-33-1,59.945,1.0.0.105,2,1112533151,Professional,2.0.10.353,2.0.10.353,10/18/2018,10/18/2018 20:20,16:20:12,2.0.10.248,2,2,1,2,,,,,,,,TrainingProc,BlockList,9,1,Distractor1.bmp,1,0,,0,1,231585,500,,0,0,yellow,500,2,500,2,vertical,yellow,Distractor2.bmp,blue,Distractor2.bmp,red,Distractor1.bmp,lime,Target1.bmp,cyan,Distractor1.bmp,purple,Distractor1.bmp,,,,TrialProc,,TrainingTrialList,0,1,-999999,0,232085,0,2,1011,233096,Target1.bmp,lime,1,,,,4,2,9
KW_Experiment5A,33,1,"<?xml version=""1.0""?>\n<Clock xmlns:dt=""urn:schemas-microsoft-com:datatypes""><Description dt:dt=""string"">E-Prime Primary Realtime Clock</Description><StartTime><Timestamp dt:dt=""int"">0</Timestamp><DateUtc dt:dt=""string"">2018-10-18T20:20:11Z</DateUtc></StartTime><FrequencyChanges><FrequencyChange><Frequency dt:dt=""r8"">3215292</Frequency><Timestamp dt:dt=""r8"">6164390183149</Timestamp><Current dt:dt=""r8"">0</Current><DateUtc dt:dt=""string"">2018-10-18T20:20:11Z</DateUtc></FrequencyChange></FrequencyChanges></Clock>\n",KW_Experiment5A-33-1,59.945,1.0.0.105,2,1112533151,Professional,2.0.10.353,2.0.10.353,10/18/2018,10/18/2018 20:20,16:20:12,2.0.10.248,2,2,1,2,,,,,,,,TrainingProc,BlockList,10,2,Distractor1.bmp,1,0,,0,1,234121,500,,0,0,cyan,500,2,500,4,horizontal,cyan,Distractor2.bmp,blue,Distractor2.bmp,purple,Distractor2.bmp,red,Distractor2.bmp,lime,Target2.bmp,yellow,Distractor1.bmp,,,,TrialProc,,TrainingTrialList,1,2,-999999,0,234621,0,2,3891,238512,Target2.bmp,lime,2,,,,5,2,10
KW_Experiment5A,33,1,"<?xml version=""1.0""?>\n<Clock xmlns:dt=""urn:schemas-microsoft-com:datatypes""><Description dt:dt=""string"">E-Prime Primary Realtime Clock</Description><StartTime><Timestamp dt:dt=""int"">0</Timestamp><DateUtc dt:dt=""string"">2018-10-18T20:20:11Z</DateUtc></StartTime><FrequencyChanges><FrequencyChange><Frequency dt:dt=""r8"">3215292</Frequency><Timestamp dt:dt=""r8"">6164390183149</Timestamp><Current dt:dt=""r8"">0</Current><DateUtc dt:dt=""string"">2018-10-18T20:20:11Z</DateUtc></FrequencyChange></FrequencyChanges></Clock>\n",KW_Experiment5A-33-1,59.945,1.0.0.105,2,1112533151,Professional,2.0.10.353,2.0.10.353,10/18/2018,10/18/2018 20:20,16:20:12,2.0.10.248,2,2,1,2,,,,,,,,TrainingProc,BlockList,11,1,Distractor2.bmp,2,0,,0,1,239526,500,,0,0,purple,500,2,500,,vertical,purple,Distractor2.bmp,cyan,Distractor1.bmp,blue,Distractor1.bmp,lime,Distractor1.bmp,yellow,Distractor2.bmp,red,Target1.bmp,,,,TrialProc,5,TrainingTrialList,0,1,-999999,0,240026,0,2,1182,241208,Target1.bmp,red,1,,,,12,2,11
KW_Experiment5A,33,1,"<?xml version=""1.0""?>\n<Clock xmlns:dt=""urn:schemas-microsoft-com:datatypes""><Description dt:dt=""string"">E-Prime Primary Realtime Clock</Description><StartTime><Timestamp dt:dt=""int"">0</Timestamp><DateUtc dt:dt=""string"">2018-10-18T20:20:11Z</DateUtc></StartTime><FrequencyChanges><FrequencyChange><Frequency dt:dt=""r8"">3215292</Frequency><Timestamp dt:dt=""r8"">6164390183149</Timestamp><Current dt:dt=""r8"">0</Current><DateUtc dt:dt=""string"">2018-10-18T20:20:11Z</DateUtc></FrequencyChange></FrequencyChanges></Clock>\n",KW_Experiment5A-33-1,59.945,1.0.0.105,2,1112533151,Professional,2.0.10.353,2.0.10.353,10/18/2018,10/18/2018 20:20,16:20:12,2.0.10.248,2,2,1,2,,,,,,,,TrainingProc,BlockList,12,2,Distractor2.bmp,2,0,,0,1,242228,500,,0,0,cyan,500,2,500,,horizontal,cyan,Distractor2.bmp,yellow,Distractor2.bmp,red,Target2.bmp,blue,Distractor2.bmp,purple,Distractor1.bmp,lime,Distractor1.bmp,,,,TrialProc,4,TrainingTrialList,1,2,-999999,0,242728,0,2,728,243456,Target2.bmp,red,2,,,,9,2,12
KW_Experiment5A,33,1,"<?xml version=""1.0""?>\n<Clock xmlns:dt=""urn:schemas-microsoft-com:datatypes""><Description dt:dt=""string"">E-Prime Primary Realtime Clock</Description><StartTime><Timestamp dt:dt=""int"">0</Timestamp><DateUtc dt:dt=""string"">2018-10-18T20:20:11Z</DateUtc></StartTime><FrequencyChanges><FrequencyChange><Frequency dt:dt=""r8"">3215292</Frequency><Timestamp dt:dt=""r8"">6164390183149</Timestamp><Current dt:dt=""r8"">0</Current><DateUtc dt:dt=""string"">2018-10-18T20:20:11Z</DateUtc></FrequencyChange></FrequencyChanges></Clock>\n",KW_Experiment5A-33-1,59.945,1.0.0.105,2,1112533151,Professional,2.0.10.353,2.0.10.353,10/18/2018,10/18/2018 20:20,16:20:12,2.0.10.248,2,2,1,2,,,,,,,,TrainingProc,BlockList,13,2,Distractor1.bmp,1,0,,0,1,244480,500,,0,0,blue,500,2,500,,horizontal,blue,Distractor2.bmp,purple,Distractor2.bmp,cyan,Distractor1.bmp,red,Target2.bmp,yellow,Distractor1.bmp,lime,Distractor1.bmp,,,,TrialProc,3,TrainingTrialList,0,2,-999999,0,244980,0,1,620,245600,Target2.bmp,red,2,,,,10,2,13
KW_Experiment5A,33,1,"<?xml version=""1.0""?>\n<Clock xmlns:dt=""urn:schemas-microsoft-com:datatypes""><Description dt:dt=""string"">E-Prime Primary Realtime Clock</Description><StartTime><Timestamp dt:dt=""int"">0</Timestamp><DateUtc dt:dt=""string"">2018-10-18T20:20:11Z</DateUtc></StartTime><FrequencyChanges><FrequencyChange><Frequency dt:dt=""r8"">3215292</Frequency><Timestamp dt:dt=""r8"">6164390183149</Timestamp><Current dt:dt=""r8"">0</Current><DateUtc dt:dt=""string"">2018-10-18T20:20:11Z</DateUtc></FrequencyChange></FrequencyChanges></Clock>\n",KW_Experiment5A-33-1,59.945,1.0.0.105,2,1112533151,Professional,2.0.10.353,2.0.10.353,10/18/2018,10/18/2018 20:20,16:20:12,2.0.10.248,2,2,1,2,,,,,,,,TrainingProc,BlockList,14,1,Distractor1.bmp,1,0,,0,1,246615,501,,0,0,yellow,500,2,500,,vertical,red,Target1.bmp,lime,Distractor1.bmp,cyan,Distractor1.bmp,purple,Distractor2.bmp,blue,Distractor2.bmp,yellow,Distractor1.bmp,,,,TrialProc,2,TrainingTrialList,1,1,-999999,1,247116,0,1,700,247816,Target1.bmp,red,1,,,,7,2,14
KW_Experiment5A,33,1,"<?xml version=""1.0""?>\n<Clock xmlns:dt=""urn:schemas-microsoft-com:datatypes""><Description dt:dt=""string"">E-Prime Primary Realtime Clock</Description><StartTime><Timestamp dt:dt=""int"">0</Timestamp><DateUtc dt:dt=""string"">2018-10-18T20:20:11Z</DateUtc></StartTime><FrequencyChanges><FrequencyChange><Frequency dt:dt=""r8"">3215292</Frequency><Timestamp dt:dt=""r8"">6164390183149</Timestamp><Current dt:dt=""r8"">0</Current><DateUtc dt:dt=""string"">2018-10-18T20:20:11Z</DateUtc></FrequencyChange></FrequencyChanges></Clock>\n",KW_Experiment5A-33-1,59.945,1.0.0.105,2,1112533151,Professional,2.0.10.353,2.0.10.353,10/18/2018,10/18/2018 20:20,16:20:12,2.0.10.248,2,2,1,2,,,,,,,,TrainingProc,BlockList,15,2,Distractor1.bmp,1,0,,0,1,248834,500,,0,0,blue,500,2,500,3,horizontal,lime,Target2.bmp,blue,Distractor1.bmp,red,Distractor1.bmp,cyan,Distractor2.bmp,yellow,Distractor1.bmp,purple,Distractor1.bmp,,,,TrialProc,,TrainingTrialList,0,2,-999999,0,249334,0,1,706,250040,Target2.bmp,lime,2,,,,1,2,15
KW_Experiment5A,33,1,"<?xml version=""1.0""?>\n<Clock xmlns:dt=""urn:schemas-microsoft-com:datatypes""><Description dt:dt=""string"">E-Prime Primary Realtime Clock</Description><StartTime><Timestamp dt:dt=""int"">0</Timestamp><DateUtc dt:dt=""string"">2018-10-18T20:20:11Z</DateUtc></StartTime><FrequencyChanges><FrequencyChange><Frequency dt:dt=""r8"">3215292</Frequency><Timestamp dt:dt=""r8"">6164390183149</Timestamp><Current dt:dt=""r8"">0</Current><DateUtc dt:dt=""string"">2018-10-18T20:20:11Z</DateUtc></FrequencyChange></FrequencyChanges></Clock>\n",KW_Experiment5A-33-1,59.945,1.0.0.105,2,1112533151,Professional,2.0.10.353,2.0.10.353,10/18/2018,10/18/2018 20:20,16:20:12,2.0.10.248,2,2,1,2,,,,,,,,TrainingProc,BlockList,16,2,Distractor1.bmp,1,0,,0,1,251053,500,,0,0,cyan,500,2,500,,horizontal,red,Target2.bmp,purple,Distractor1.bmp,blue,Distractor2.bmp,lime,Distractor1.bmp,yellow,Distractor2.bmp,cyan,Distractor2.bmp,,,,TrialProc,4,TrainingTrialList,1,2,-999999,0,251553,0,2,847,252400,Target2.bmp,red,2,,,,7,2,16
KW_Experiment5A,33,1,"<?xml version=""1.0""?>\n<Clock xmlns:dt=""urn:schemas-microsoft-com:datatypes""><Description dt:dt=""string"">E-Prime Primary Realtime Clock</Description><StartTime><Timestamp dt:dt=""int"">0</Timestamp><DateUtc dt:dt=""string"">2018-10-18T20:20:11Z</DateUtc></StartTime><FrequencyChanges><FrequencyChange><Frequency dt:dt=""r8"">3215292</Frequency><Timestamp dt:dt=""r8"">6164390183149</Timestamp><Current dt:dt=""r8"">0</Current><DateUtc dt:dt=""string"">2018-10-18T20:20:11Z</DateUtc></FrequencyChange></FrequencyChanges></Clock>\n",KW_Experiment5A-33-1,59.945,1.0.0.105,2,1112533151,Professional,2.0.10.353,2.0.10.353,10/18/2018,10/18/2018 20:20,16:20:12,2.0.10.248,2,2,1,2,,,,,,,,TrainingProc,BlockList,17,1,Distractor2.bmp,2,0,,1,0,253421,601,,0,0,blue,600,3,600,,vertical,blue,Distractor2.bmp,cyan,Distractor2.bmp,lime,Distractor2.bmp,red,Target1.bmp,purple,Distractor2.bmp,yellow,Distractor2.bmp,,,,TrialProc,3,TrainingTrialList,0,1,-999999,1,254022,0,2,794,254816,Target1.bmp,red,1,,,,10,2,17
KW_Experiment5A,33,1,"<?xml version=""1.0""?>\n<Clock xmlns:dt=""urn:schemas-microsoft-com:datatypes""><Description dt:dt=""string"">E-Prime Primary Realtime Clock</Description><StartTime><Timestamp dt:dt=""int"">0</Timestamp><DateUtc dt:dt=""string"">2018-10-18T20:20:11Z</DateUtc></StartTime><FrequencyChanges><FrequencyChange><Frequency dt:dt=""r8"">3215292</Frequency><Timestamp dt:dt=""r8"">6164390183149</Timestamp><Current dt:dt=""r8"">0</Current><DateUtc dt:dt=""string"">2018-10-18T20:20:11Z</DateUtc></FrequencyChange></FrequencyChanges></Clock>\n",KW_Experiment5A-33-1,59.945,1.0.0.105,2,1112533151,Professional,2.0.10.353,2.0.10.353,10/18/2018,10/18/2018 20:20,16:20:12,2.0.10.248,2,2,1,2,,,,,,,,TrainingProc,BlockList,18,2,Distractor2.bmp,2,0,,0,1,255840,501,,0,0,blue,500,2,500,3,horizontal,blue,Distractor2.bmp,lime,Target2.bmp,cyan,Distractor2.bmp,red,Distractor1.bmp,yellow,Distractor2.bmp,purple,Distractor1.bmp,,,,TrialProc,,TrainingTrialList,0,2,-999999,1,256341,0,1,523,256864,Target2.bmp,lime,2,,,,2,2,18
KW_Experiment5A,33,1,"<?xml version=""1.0""?>\n<Clock xmlns:dt=""urn:schemas-microsoft-com:datatypes""><Description dt:dt=""string"">E-Prime Primary Realtime Clock</Description><StartTime><Timestamp dt:dt=""int"">0</Timestamp><DateUtc dt:dt=""string"">2018-10-18T20:20:11Z</DateUtc></StartTime><FrequencyChanges><FrequencyChange><Frequency dt:dt=""r8"">3215292</Frequency><Timestamp dt:dt=""r8"">6164390183149</Timestamp><Current dt:dt=""r8"">0</Current><DateUtc dt:dt=""string"">2018-10-18T20:20:11Z</DateUtc></FrequencyChange></FrequencyChanges></Clock>\n",KW_Experiment5A-33-1,59.945,1.0.0.105,2,1112533151,Professional,2.0.10.353,2.0.10.353,10/18/2018,10/18/2018 20:20,16:20:12,2.0.10.248,2,2,1,2,,,,,,,,TrainingProc,BlockList,19,1,Distractor2.bmp,2,0,,0,1,257876,500,,0,0,cyan,500,2,500,,vertical,cyan,Distractor2.bmp,red,Target1.bmp,purple,Distractor2.bmp,yellow,Distractor1.bmp,lime,Distractor1.bmp,blue,Distractor1.bmp,,,,TrialProc,4,TrainingTrialList,0,1,-999999,0,258376,0,2,463,258839,Target1.bmp,red,1,,,,8,2,19
KW_Experiment5A,33,1,"<?xml version=""1.0""?>\n<Clock xmlns:dt=""urn:schemas-microsoft-com:datatypes""><Description dt:dt=""string"">E-Prime Primary Realtime Clock</Description><StartTime><Timestamp dt:dt=""int"">0</Timestamp><DateUtc dt:dt=""string"">2018-10-18T20:20:11Z</DateUtc></StartTime><FrequencyChanges><FrequencyChange><Frequency dt:dt=""r8"">3215292</Frequency><Timestamp dt:dt=""r8"">6164390183149</Timestamp><Current dt:dt=""r8"">0</Current><DateUtc dt:dt=""string"">2018-10-18T20:20:11Z</DateUtc></FrequencyChange></FrequencyChanges></Clock>\n",KW_Experiment5A-33-1,59.945,1.0.0.105,2,1112533151,Professional,2.0.10.353,2.0.10.353,10/18/2018,10/18/2018 20:20,16:20:12,2.0.10.248,2,2,1,2,,,,,,,,TrainingProc,BlockList,20,1,Distractor1.bmp,1,0,,0,1,259861,500,,0,0,purple,500,2,500,,vertical,purple,Distractor1.bmp,red,Target1.bmp,blue,Distractor1.bmp,lime,Distractor2.bmp,cyan,Distractor1.bmp,yellow,Distractor1.bmp,,,,TrialProc,5,TrainingTrialList,0,1,-999999,0,260361,0,2,1374,261735,Target1.bmp,red,1,,,,8,2,20
KW_Experiment5A,33,1,"<?xml version=""1.0""?>\n<Clock xmlns:dt=""urn:schemas-microsoft-com:datatypes""><Description dt:dt=""string"">E-Prime Primary Realtime Clock</Description><StartTime><Timestamp dt:dt=""int"">0</Timestamp><DateUtc dt:dt=""string"">2018-10-18T20:20:11Z</DateUtc></StartTime><FrequencyChanges><FrequencyChange><Frequency dt:dt=""r8"">3215292</Frequency><Timestamp dt:dt=""r8"">6164390183149</Timestamp><Current dt:dt=""r8"">0</Current><DateUtc dt:dt=""string"">2018-10-18T20:20:11Z</DateUtc></FrequencyChange></FrequencyChanges></Clock>\n",KW_Experiment5A-33-1,59.945,1.0.0.105,2,1112533151,Professional,2.0.10.353,2.0.10.353,10/18/2018,10/18/2018 20:20,16:20:12,2.0.10.248,2,2,1,2,,,,,,,,TrainingProc,BlockList,21,1,Distractor2.bmp,2,0,,0,1,262747,500,,0,0,yellow,500,2,500,2,vertical,yellow,Distractor2.bmp,red,Distractor1.bmp,purple,Distractor2.bmp,cyan,Distractor2.bmp,blue,Distractor2.bmp,lime,Target1.bmp,,,,TrialProc,,TrainingTrialList,1,1,-999999,0,263247,0,1,1024,264271,Target1.bmp,lime,1,,,,6,2,21
KW_Experiment5A,33,1,"<?xml version=""1.0""?>\n<Clock xmlns:dt=""urn:schemas-microsoft-com:datatypes""><Description dt:dt=""string"">E-Prime Primary Realtime Clock</Description><StartTime><Timestamp dt:dt=""int"">0</Timestamp><DateUtc dt:dt=""string"">2018-10-18T20:20:11Z</DateUtc></StartTime><FrequencyChanges><FrequencyChange><Frequency dt:dt=""r8"">3215292</Frequency><Timestamp dt:dt=""r8"">6164390183149</Timestamp><Current dt:dt=""r8"">0</Current><DateUtc dt:dt=""string"">2018-10-18T20:20:11Z</DateUtc></FrequencyChange></FrequencyChanges></Clock>\n",KW_Experiment5A-33-1,59.945,1.0.0.105,2,1112533151,Professional,2.0.10.353,2.0.10.353,10/18/2018,10/18/2018 20:20,16:20:12,2.0.10.248,2,2,1,2,,,,,,,,TrainingProc,BlockList,22,2,Distractor1.bmp,1,0,,0,1,265282,501,,0,0,purple,500,2,500,,horizontal,purple,Distractor2.bmp,yellow,Distractor2.bmp,red,Target2.bmp,lime,Distractor1.bmp,blue,Distractor2.bmp,cyan,Distractor1.bmp,,,,TrialProc,5,TrainingTrialList,1,2,-999999,1,265783,0,2,640,266423,Target2.bmp,red,2,,,,9,2,22
KW_Experiment5A,33,1,"<?xml version=""1.0""?>\n<Clock xmlns:dt=""urn:schemas-microsoft-com:datatypes""><Description dt:dt=""string"">E-Prime Primary Realtime Clock</Description><StartTime><Timestamp dt:dt=""int"">0</Timestamp><DateUtc dt:dt=""string"">2018-10-18T20:20:11Z</DateUtc></StartTime><FrequencyChanges><FrequencyChange><Frequency dt:dt=""r8"">3215292</Frequency><Timestamp dt:dt=""r8"">6164390183149</Timestamp><Current dt:dt=""r8"">0</Current><DateUtc dt:dt=""string"">2018-10-18T20:20:11Z</DateUtc></FrequencyChange></FrequencyChanges></Clock>\n",KW_Experiment5A-33-1,59.945,1.0.0.105,2,1112533151,Professional,2.0.10.353,2.0.10.353,10/18/2018,10/18/2018 20:20,16:20:12,2.0.10.248,2,2,1,2,,,,,,,,TrainingProc,BlockList,23,1,Distractor2.bmp,2,0,,0,1,267434,501,,0,0,purple,500,2,500,,vertical,purple,Distractor1.bmp,yellow,Distractor1.bmp,cyan,Distractor2.bmp,red,Target1.bmp,blue,Distractor2.bmp,lime,Distractor1.bmp,,,,TrialProc,5,TrainingTrialList,1,1,-999999,1,267935,0,1,1224,269159,Target1.bmp,red,1,,,,10,2,23
KW_Experiment5A,33,1,"<?xml version=""1.0""?>\n<Clock xmlns:dt=""urn:schemas-microsoft-com:datatypes""><Description dt:dt=""string"">E-Prime Primary Realtime Clock</Description><StartTime><Timestamp dt:dt=""int"">0</Timestamp><DateUtc dt:dt=""string"">2018-10-18T20:20:11Z</DateUtc></StartTime><FrequencyChanges><FrequencyChange><Frequency dt:dt=""r8"">3215292</Frequency><Timestamp dt:dt=""r8"">6164390183149</Timestamp><Current dt:dt=""r8"">0</Current><DateUtc dt:dt=""string"">2018-10-18T20:20:11Z</DateUtc></FrequencyChange></FrequencyChanges></Clock>\n",KW_Experiment5A-33-1,59.945,1.0.0.105,2,1112533151,Professional,2.0.10.353,2.0.10.353,10/18/2018,10/18/2018 20:20,16:20:12,2.0.10.248,2,2,1,2,,,,,,,,TrainingProc,BlockList,24,2,Distractor1.bmp,1,0,,0,1,270170,400,,0,0,lime,400,1,400,,horizontal,red,Target2.bmp,purple,Distractor1.bmp,blue,Distractor1.bmp,cyan,Distractor2.bmp,yellow,Distractor1.bmp,lime,Distractor1.bmp,,,,TrialProc,6,TrainingTrialList,1,2,-999999,0,270570,0,2,1309,271879,Target2.bmp,red,2,,,,7,2,24
KW_Experiment5A,33,1,"<?xml version=""1.0""?>\n<Clock xmlns:dt=""urn:schemas-microsoft-com:datatypes""><Description dt:dt=""string"">E-Prime Primary Realtime Clock</Description><StartTime><Timestamp dt:dt=""int"">0</Timestamp><DateUtc dt:dt=""string"">2018-10-18T20:20:11Z</DateUtc></StartTime><FrequencyChanges><FrequencyChange><Frequency dt:dt=""r8"">3215292</Frequency><Timestamp dt:dt=""r8"">6164390183149</Timestamp><Current dt:dt=""r8"">0</Current><DateUtc dt:dt=""string"">2018-10-18T20:20:11Z</DateUtc></FrequencyChange></FrequencyChanges></Clock>\n",KW_Experiment5A-33-1,59.945,1.0.0.105,2,1112533151,Professional,2.0.10.353,2.0.10.353,10/18/2018,10/18/2018 20:20,16:20:12,2.0.10.248,2,2,1,2,,,,,,,,TrainingProc,BlockList,25,2,Distractor2.bmp,2,0,,0,1,272906,500,,0,0,purple,500,2,500,,horizontal,purple,Distractor2.bmp,red,Target2.bmp,yellow,Distractor2.bmp,lime,Distractor1.bmp,cyan,Distractor2.bmp,blue,Distractor1.bmp,,,,TrialProc,5,TrainingTrialList,1,2,-999999,0,273406,0,2,561,273967,Target2.bmp,red,2,,,,8,3,25
KW_Experiment5A,33,1,"<?xml version=""1.0""?>\n<Clock xmlns:dt=""urn:schemas-microsoft-com:datatypes""><Description dt:dt=""string"">E-Prime Primary Realtime Clock</Description><StartTime><Timestamp dt:dt=""int"">0</Timestamp><DateUtc dt:dt=""string"">2018-10-18T20:20:11Z</DateUtc></StartTime><FrequencyChanges><FrequencyChange><Frequency dt:dt=""r8"">3215292</Frequency><Timestamp dt:dt=""r8"">6164390183149</Timestamp><Current dt:dt=""r8"">0</Current><DateUtc dt:dt=""string"">2018-10-18T20:20:11Z</DateUtc></FrequencyChange></FrequencyChanges></Clock>\n",KW_Experiment5A-33-1,59.945,1.0.0.105,2,1112533151,Professional,2.0.10.353,2.0.10.353,10/18/2018,10/18/2018 20:20,16:20:12,2.0.10.248,2,2,1,2,,,,,,,,TrainingProc,BlockList,26,2,Distractor2.bmp,2,0,,0,1,274991,601,,0,0,lime,600,3,600,,horizontal,lime,Distractor1.bmp,cyan,Distractor1.bmp,purple,Distractor1.bmp,blue,Distractor2.bmp,red,Target2.bmp,yellow,Distractor2.bmp,,,,TrialProc,6,TrainingTrialList,1,2,-999999,1,275592,0,2,863,276455,Target2.bmp,red,2,,,,11,3,26
KW_Experiment5A,33,1,"<?xml version=""1.0""?>\n<Clock xmlns:dt=""urn:schemas-microsoft-com:datatypes""><Description dt:dt=""string"">E-Prime Primary Realtime Clock</Description><StartTime><Timestamp dt:dt=""int"">0</Timestamp><DateUtc dt:dt=""string"">2018-10-18T20:20:11Z</DateUtc></StartTime><FrequencyChanges><FrequencyChange><Frequency dt:dt=""r8"">3215292</Frequency><Timestamp dt:dt=""r8"">6164390183149</Timestamp><Current dt:dt=""r8"">0</Current><DateUtc dt:dt=""string"">2018-10-18T20:20:11Z</DateUtc></FrequencyChange></FrequencyChanges></Clock>\n",KW_Experiment5A-33-1,59.945,1.0.0.105,2,1112533151,Professional,2.0.10.353,2.0.10.353,10/18/2018,10/18/2018 20:20,16:20:12,2.0.10.248,2,2,1,2,,,,,,,,TrainingProc,BlockList,27,1,Distractor2.bmp,2,0,,0,1,277477,400,,0,0,yellow,400,1,400,,vertical,yellow,Distractor1.bmp,blue,Distractor2.bmp,purple,Distractor1.bmp,red,Target1.bmp,cyan,Distractor2.bmp,lime,Distractor2.bmp,,,,TrialProc,2,TrainingTrialList,0,1,-999999,0,277877,0,2,914,278791,Target1.bmp,red,1,,,,10,3,27
KW_Experiment5A,33,1,"<?xml version=""1.0""?>\n<Clock xmlns:dt=""urn:schemas-microsoft-com:datatypes""><Description dt:dt=""string"">E-Prime Primary Realtime Clock</Description><StartTime><Timestamp dt:dt=""int"">0</Timestamp><DateUtc dt:dt=""string"">2018-10-18T20:20:11Z</DateUtc></StartTime><FrequencyChanges><FrequencyChange><Frequency dt:dt=""r8"">3215292</Frequency><Timestamp dt:dt=""r8"">6164390183149</Timestamp><Current dt:dt=""r8"">0</Current><DateUtc dt:dt=""string"">2018-10-18T20:20:11Z</DateUtc></FrequencyChange></FrequencyChanges></Clock>\n",KW_Experiment5A-33-1,59.945,1.0.0.105,2,1112533151,Professional,2.0.10.353,2.0.10.353,10/18/2018,10/18/2018 20:20,16:20:12,2.0.10.248,2,2,1,2,,,,,,,,TrainingProc,BlockList,28,1,Distractor2.bmp,2,0,,0,1,279812,601,,0,0,lime,600,3,600,,vertical,lime,Distractor2.bmp,cyan,Distractor2.bmp,purple,Distractor2.bmp,red,Target1.bmp,blue,Distractor2.bmp,yellow,Distractor2.bmp,,,,TrialProc,6,TrainingTrialList,0,1,-999999,1,280413,0,2,762,281175,Target1.bmp,red,1,,,,10,3,28
KW_Experiment5A,33,1,"<?xml version=""1.0""?>\n<Clock xmlns:dt=""urn:schemas-microsoft-com:datatypes""><Description dt:dt=""string"">E-Prime Primary Realtime Clock</Description><StartTime><Timestamp dt:dt=""int"">0</Timestamp><DateUtc dt:dt=""string"">2018-10-18T20:20:11Z</DateUtc></StartTime><FrequencyChanges><FrequencyChange><Frequency dt:dt=""r8"">3215292</Frequency><Timestamp dt:dt=""r8"">6164390183149</Timestamp><Current dt:dt=""r8"">0</Current><DateUtc dt:dt=""string"">2018-10-18T20:20:11Z</DateUtc></FrequencyChange></FrequencyChanges></Clock>\n",KW_Experiment5A-33-1,59.945,1.0.0.105,2,1112533151,Professional,2.0.10.353,2.0.10.353,10/18/2018,10/18/2018 20:20,16:20:12,2.0.10.248,2,2,1,2,,,,,,,,TrainingProc,BlockList,29,2,Distractor2.bmp,2,0,,0,1,282198,600,,0,0,yellow,600,3,600,2,horizontal,yellow,Distractor2.bmp,red,Distractor2.bmp,purple,Distractor1.bmp,cyan,Distractor2.bmp,blue,Distractor1.bmp,lime,Target2.bmp,,,,TrialProc,,TrainingTrialList,0,2,-999999,0,282798,0,1,833,283631,Target2.bmp,lime,2,,,,6,3,29
KW_Experiment5A,33,1,"<?xml version=""1.0""?>\n<Clock xmlns:dt=""urn:schemas-microsoft-com:datatypes""><Description dt:dt=""string"">E-Prime Primary Realtime Clock</Description><StartTime><Timestamp dt:dt=""int"">0</Timestamp><DateUtc dt:dt=""string"">2018-10-18T20:20:11Z</DateUtc></StartTime><FrequencyChanges><FrequencyChange><Frequency dt:dt=""r8"">3215292</Frequency><Timestamp dt:dt=""r8"">6164390183149</Timestamp><Current dt:dt=""r8"">0</Current><DateUtc dt:dt=""string"">2018-10-18T20:20:11Z</DateUtc></FrequencyChange></FrequencyChanges></Clock>\n",KW_Experiment5A-33-1,59.945,1.0.0.105,2,1112533151,Professional,2.0.10.353,2.0.10.353,10/18/2018,10/18/2018 20:20,16:20:12,2.0.10.248,2,2,1,2,,,,,,,,TrainingProc,BlockList,30,2,Distractor2.bmp,2,0,,0,1,284650,400,,0,0,purple,400,1,400,,horizontal,purple,Distractor2.bmp,lime,Distractor2.bmp,red,Target2.bmp,yellow,Distractor2.bmp,blue,Distractor2.bmp,cyan,Distractor1.bmp,,,,TrialProc,5,TrainingTrialList,1,2,-999999,0,285050,0,2,813,285863,Target2.bmp,red,2,,,,9,3,30
KW_Experiment5A,33,1,"<?xml version=""1.0""?>\n<Clock xmlns:dt=""urn:schemas-microsoft-com:datatypes""><Description dt:dt=""string"">E-Prime Primary Realtime Clock</Description><StartTime><Timestamp dt:dt=""int"">0</Timestamp><DateUtc dt:dt=""string"">2018-10-18T20:20:11Z</DateUtc></StartTime><FrequencyChanges><FrequencyChange><Frequency dt:dt=""r8"">3215292</Frequency><Timestamp dt:dt=""r8"">6164390183149</Timestamp><Current dt:dt=""r8"">0</Current><DateUtc dt:dt=""string"">2018-10-18T20:20:11Z</DateUtc></FrequencyChange></FrequencyChanges></Clock>\n",KW_Experiment5A-33-1,59.945,1.0.0.105,2,1112533151,Professional,2.0.10.353,2.0.10.353,10/18/2018,10/18/2018 20:20,16:20:12,2.0.10.248,2,2,1,2,,,,,,,,TrainingProc,BlockList,31,1,Distractor2.bmp,2,0,,0,1,286885,401,,0,0,yellow,400,1,400,,vertical,yellow,Distractor2.bmp,cyan,Distractor1.bmp,purple,Distractor1.bmp,blue,Distractor1.bmp,lime,Distractor2.bmp,red,Target1.bmp,,,,TrialProc,2,TrainingTrialList,0,1,-999999,1,287286,0,2,1649,288935,Target1.bmp,red,1,,,,12,3,31
KW_Experiment5A,33,1,"<?xml version=""1.0""?>\n<Clock xmlns:dt=""urn:schemas-microsoft-com:datatypes""><Description dt:dt=""string"">E-Prime Primary Realtime Clock</Description><StartTime><Timestamp dt:dt=""int"">0</Timestamp><DateUtc dt:dt=""string"">2018-10-18T20:20:11Z</DateUtc></StartTime><FrequencyChanges><FrequencyChange><Frequency dt:dt=""r8"">3215292</Frequency><Timestamp dt:dt=""r8"">6164390183149</Timestamp><Current dt:dt=""r8"">0</Current><DateUtc dt:dt=""string"">2018-10-18T20:20:11Z</DateUtc></FrequencyChange></FrequencyChanges></Clock>\n",KW_Experiment5A-33-1,59.945,1.0.0.105,2,1112533151,Professional,2.0.10.353,2.0.10.353,10/18/2018,10/18/2018 20:20,16:20:12,2.0.10.248,2,2,1,2,,,,,,,,TrainingProc,BlockList,32,1,Distractor2.bmp,2,0,,0,1,289955,400,,0,0,yellow,400,1,400,2,vertical,yellow,Distractor2.bmp,lime,Target1.bmp,purple,Distractor2.bmp,red,Distractor2.bmp,cyan,Distractor1.bmp,blue,Distractor1.bmp,,,,TrialProc,,TrainingTrialList,0,1,-999999,0,290355,0,2,740,291095,Target1.bmp,lime,1,,,,2,3,32
KW_Experiment5A,33,1,"<?xml version=""1.0""?>\n<Clock xmlns:dt=""urn:schemas-microsoft-com:datatypes""><Description dt:dt=""string"">E-Prime Primary Realtime Clock</Description><StartTime><Timestamp dt:dt=""int"">0</Timestamp><DateUtc dt:dt=""string"">2018-10-18T20:20:11Z</DateUtc></StartTime><FrequencyChanges><FrequencyChange><Frequency dt:dt=""r8"">3215292</Frequency><Timestamp dt:dt=""r8"">6164390183149</Timestamp><Current dt:dt=""r8"">0</Current><DateUtc dt:dt=""string"">2018-10-18T20:20:11Z</DateUtc></FrequencyChange></FrequencyChanges></Clock>\n",KW_Experiment5A-33-1,59.945,1.0.0.105,2,1112533151,Professional,2.0.10.353,2.0.10.353,10/18/2018,10/18/2018 20:20,16:20:12,2.0.10.248,2,2,1,2,,,,,,,,TrainingProc,BlockList,33,2,Distractor1.bmp,1,0,,0,1,292107,600,,0,0,cyan,600,3,600,,horizontal,red,Target2.bmp,yellow,Distractor1.bmp,blue,Distractor2.bmp,purple,Distractor2.bmp,lime,Distractor1.bmp,cyan,Distractor1.bmp,,,,TrialProc,4,TrainingTrialList,0,2,-999999,0,292707,0,1,604,293311,Target2.bmp,red,2,,,,7,3,33
KW_Experiment5A,33,1,"<?xml version=""1.0""?>\n<Clock xmlns:dt=""urn:schemas-microsoft-com:datatypes""><Description dt:dt=""string"">E-Prime Primary Realtime Clock</Description><StartTime><Timestamp dt:dt=""int"">0</Timestamp><DateUtc dt:dt=""string"">2018-10-18T20:20:11Z</DateUtc></StartTime><FrequencyChanges><FrequencyChange><Frequency dt:dt=""r8"">3215292</Frequency><Timestamp dt:dt=""r8"">6164390183149</Timestamp><Current dt:dt=""r8"">0</Current><DateUtc dt:dt=""string"">2018-10-18T20:20:11Z</DateUtc></FrequencyChange></FrequencyChanges></Clock>\n",KW_Experiment5A-33-1,59.945,1.0.0.105,2,1112533151,Professional,2.0.10.353,2.0.10.353,10/18/2018,10/18/2018 20:20,16:20:12,2.0.10.248,2,2,1,2,,,,,,,,TrainingProc,BlockList,34,2,Distractor1.bmp,1,0,,0,1,294325,401,,0,0,purple,400,1,400,5,horizontal,purple,Distractor2.bmp,red,Distractor2.bmp,blue,Distractor1.bmp,cyan,Distractor2.bmp,lime,Target2.bmp,yellow,Distractor1.bmp,,,,TrialProc,,TrainingTrialList,1,2,-999999,1,294726,0,2,945,295671,Target2.bmp,lime,2,,,,5,3,34
KW_Experiment5A,33,1,"<?xml version=""1.0""?>\n<Clock xmlns:dt=""urn:schemas-microsoft-com:datatypes""><Description dt:dt=""string"">E-Prime Primary Realtime Clock</Description><StartTime><Timestamp dt:dt=""int"">0</Timestamp><DateUtc dt:dt=""string"">2018-10-18T20:20:11Z</DateUtc></StartTime><FrequencyChanges><FrequencyChange><Frequency dt:dt=""r8"">3215292</Frequency><Timestamp dt:dt=""r8"">6164390183149</Timestamp><Current dt:dt=""r8"">0</Current><DateUtc dt:dt=""string"">2018-10-18T20:20:11Z</DateUtc></FrequencyChange></FrequencyChanges></Clock>\n",KW_Experiment5A-33-1,59.945,1.0.0.105,2,1112533151,Professional,2.0.10.353,2.0.10.353,10/18/2018,10/18/2018 20:20,16:20:12,2.0.10.248,2,2,1,2,,,,,,,,TrainingProc,BlockList,35,2,Distractor1.bmp,1,0,,0,1,296694,601,,0,0,lime,600,3,600,,horizontal,lime,Distractor1.bmp,cyan,Distractor2.bmp,purple,Distractor2.bmp,blue,Distractor1.bmp,red,Target2.bmp,yellow,Distractor1.bmp,,,,TrialProc,6,TrainingTrialList,1,2,-999999,1,297295,0,2,720,298015,Target2.bmp,red,2,,,,11,3,35
KW_Experiment5A,33,1,"<?xml version=""1.0""?>\n<Clock xmlns:dt=""urn:schemas-microsoft-com:datatypes""><Description dt:dt=""string"">E-Prime Primary Realtime Clock</Description><StartTime><Timestamp dt:dt=""int"">0</Timestamp><DateUtc dt:dt=""string"">2018-10-18T20:20:11Z</DateUtc></StartTime><FrequencyChanges><FrequencyChange><Frequency dt:dt=""r8"">3215292</Frequency><Timestamp dt:dt=""r8"">6164390183149</Timestamp><Current dt:dt=""r8"">0</Current><DateUtc dt:dt=""string"">2018-10-18T20:20:11Z</DateUtc></FrequencyChange></FrequencyChanges></Clock>\n",KW_Experiment5A-33-1,59.945,1.0.0.105,2,1112533151,Professional,2.0.10.353,2.0.10.353,10/18/2018,10/18/2018 20:20,16:20:12,2.0.10.248,2,2,1,2,,,,,,,,TrainingProc,BlockList,36,1,Distractor2.bmp,2,0,,0,1,299030,400,,0,0,yellow,400,1,400,,vertical,yellow,Distractor1.bmp,blue,Distractor2.bmp,lime,Distractor2.bmp,red,Target1.bmp,purple,Distractor2.bmp,cyan,Distractor1.bmp,,,,TrialProc,2,TrainingTrialList,0,1,-999999,0,299430,0,2,1112,300542,Target1.bmp,red,1,,,,10,3,36
KW_Experiment5A,33,1,"<?xml version=""1.0""?>\n<Clock xmlns:dt=""urn:schemas-microsoft-com:datatypes""><Description dt:dt=""string"">E-Prime Primary Realtime Clock</Description><StartTime><Timestamp dt:dt=""int"">0</Timestamp><DateUtc dt:dt=""string"">2018-10-18T20:20:11Z</DateUtc></StartTime><FrequencyChanges><FrequencyChange><Frequency dt:dt=""r8"">3215292</Frequency><Timestamp dt:dt=""r8"">6164390183149</Timestamp><Current dt:dt=""r8"">0</Current><DateUtc dt:dt=""string"">2018-10-18T20:20:11Z</DateUtc></FrequencyChange></FrequencyChanges></Clock>\n",KW_Experiment5A-33-1,59.945,1.0.0.105,2,1112533151,Professional,2.0.10.353,2.0.10.353,10/18/2018,10/18/2018 20:20,16:20:12,2.0.10.248,2,2,1,2,,,,,,,,TrainingProc,BlockList,37,2,Distractor2.bmp,2,0,,0,1,301565,601,,0,0,yellow,600,3,600,,horizontal,yellow,Distractor2.bmp,blue,Distractor1.bmp,red,Target2.bmp,purple,Distractor2.bmp,lime,Distractor1.bmp,cyan,Distractor2.bmp,,,,TrialProc,2,TrainingTrialList,1,2,-999999,1,302166,0,2,576,302742,Target2.bmp,red,2,,,,9,3,37
KW_Experiment5A,33,1,"<?xml version=""1.0""?>\n<Clock xmlns:dt=""urn:schemas-microsoft-com:datatypes""><Description dt:dt=""string"">E-Prime Primary Realtime Clock</Description><StartTime><Timestamp dt:dt=""int"">0</Timestamp><DateUtc dt:dt=""string"">2018-10-18T20:20:11Z</DateUtc></StartTime><FrequencyChanges><FrequencyChange><Frequency dt:dt=""r8"">3215292</Frequency><Timestamp dt:dt=""r8"">6164390183149</Timestamp><Current dt:dt=""r8"">0</Current><DateUtc dt:dt=""string"">2018-10-18T20:20:11Z</DateUtc></FrequencyChange></FrequencyChanges></Clock>\n",KW_Experiment5A-33-1,59.945,1.0.0.105,2,1112533151,Professional,2.0.10.353,2.0.10.353,10/18/2018,10/18/2018 20:20,16:20:12,2.0.10.248,2,2,1,2,,,,,,,,TrainingProc,BlockList,38,1,Distractor2.bmp,2,0,,0,1,303767,401,,0,0,cyan,400,1,400,,vertical,cyan,Distractor2.bmp,lime,Distractor1.bmp,blue,Distractor2.bmp,purple,Distractor2.bmp,yellow,Distractor2.bmp,red,Target1.bmp,,,,TrialProc,4,TrainingTrialList,1,1,-999999,1,304168,0,1,1334,305502,Target1.bmp,red,1,,,,12,3,38
KW_Experiment5A,33,1,"<?xml version=""1.0""?>\n<Clock xmlns:dt=""urn:schemas-microsoft-com:datatypes""><Description dt:dt=""string"">E-Prime Primary Realtime Clock</Description><StartTime><Timestamp dt:dt=""int"">0</Timestamp><DateUtc dt:dt=""string"">2018-10-18T20:20:11Z</DateUtc></StartTime><FrequencyChanges><FrequencyChange><Frequency dt:dt=""r8"">3215292</Frequency><Timestamp dt:dt=""r8"">6164390183149</Timestamp><Current dt:dt=""r8"">0</Current><DateUtc dt:dt=""string"">2018-10-18T20:20:11Z</DateUtc></FrequencyChange></FrequencyChanges></Clock>\n",KW_Experiment5A-33-1,59.945,1.0.0.105,2,1112533151,Professional,2.0.10.353,2.0.10.353,10/18/2018,10/18/2018 20:20,16:20:12,2.0.10.248,2,2,1,2,,,,,,,,TrainingProc,BlockList,39,1,Distractor1.bmp,1,0,,0,1,306520,600,,0,0,purple,600,3,600,5,vertical,purple,Distractor2.bmp,yellow,Distractor1.bmp,red,Distractor1.bmp,lime,Target1.bmp,cyan,Distractor1.bmp,blue,Distractor2.bmp,,,,TrialProc,,TrainingTrialList,0,1,-999999,0,307120,0,2,1150,308270,Target1.bmp,lime,1,,,,4,3,39
KW_Experiment5A,33,1,"<?xml version=""1.0""?>\n<Clock xmlns:dt=""urn:schemas-microsoft-com:datatypes""><Description dt:dt=""string"">E-Prime Primary Realtime Clock</Description><StartTime><Timestamp dt:dt=""int"">0</Timestamp><DateUtc dt:dt=""string"">2018-10-18T20:20:11Z</DateUtc></StartTime><FrequencyChanges><FrequencyChange><Frequency dt:dt=""r8"">3215292</Frequency><Timestamp dt:dt=""r8"">6164390183149</Timestamp><Current dt:dt=""r8"">0</Current><DateUtc dt:dt=""string"">2018-10-18T20:20:11Z</DateUtc></FrequencyChange></FrequencyChanges></Clock>\n",KW_Experiment5A-33-1,59.945,1.0.0.105,2,1112533151,Professional,2.0.10.353,2.0.10.353,10/18/2018,10/18/2018 20:20,16:20:12,2.0.10.248,2,2,1,2,,,,,,,,TrainingProc,BlockList,40,2,Distractor1.bmp,1,0,,0,1,309289,600,,0,0,red,600,3,600,1,horizontal,lime,Target2.bmp,red,Distractor1.bmp,blue,Distractor2.bmp,cyan,Distractor1.bmp,purple,Distractor2.bmp,yellow,Distractor1.bmp,,,,TrialProc,,TrainingTrialList,0,2,-999999,0,309889,0,1,1053,310942,Target2.bmp,lime,2,,,,1,3,40
KW_Experiment5A,33,1,"<?xml version=""1.0""?>\n<Clock xmlns:dt=""urn:schemas-microsoft-com:datatypes""><Description dt:dt=""string"">E-Prime Primary Realtime Clock</Description><StartTime><Timestamp dt:dt=""int"">0</Timestamp><DateUtc dt:dt=""string"">2018-10-18T20:20:11Z</DateUtc></StartTime><FrequencyChanges><FrequencyChange><Frequency dt:dt=""r8"">3215292</Frequency><Timestamp dt:dt=""r8"">6164390183149</Timestamp><Current dt:dt=""r8"">0</Current><DateUtc dt:dt=""string"">2018-10-18T20:20:11Z</DateUtc></FrequencyChange></FrequencyChanges></Clock>\n",KW_Experiment5A-33-1,59.945,1.0.0.105,2,1112533151,Professional,2.0.10.353,2.0.10.353,10/18/2018,10/18/2018 20:20,16:20:12,2.0.10.248,2,2,1,2,,,,,,,,TrainingProc,BlockList,41,1,Distractor1.bmp,1,0,,0,1,311958,400,,0,0,yellow,400,1,400,,vertical,yellow,Distractor2.bmp,lime,Distractor2.bmp,blue,Distractor1.bmp,purple,Distractor2.bmp,red,Target1.bmp,cyan,Distractor1.bmp,,,,TrialProc,2,TrainingTrialList,0,1,-999999,0,312358,0,2,1424,313782,Target1.bmp,red,1,,,,11,3,41
KW_Experiment5A,33,1,"<?xml version=""1.0""?>\n<Clock xmlns:dt=""urn:schemas-microsoft-com:datatypes""><Description dt:dt=""string"">E-Prime Primary Realtime Clock</Description><StartTime><Timestamp dt:dt=""int"">0</Timestamp><DateUtc dt:dt=""string"">2018-10-18T20:20:11Z</DateUtc></StartTime><FrequencyChanges><FrequencyChange><Frequency dt:dt=""r8"">3215292</Frequency><Timestamp dt:dt=""r8"">6164390183149</Timestamp><Current dt:dt=""r8"">0</Current><DateUtc dt:dt=""string"">2018-10-18T20:20:11Z</DateUtc></FrequencyChange></FrequencyChanges></Clock>\n",KW_Experiment5A-33-1,59.945,1.0.0.105,2,1112533151,Professional,2.0.10.353,2.0.10.353,10/18/2018,10/18/2018 20:20,16:20:12,2.0.10.248,2,2,1,2,,,,,,,,TrainingProc,BlockList,42,1,Distractor2.bmp,2,0,,0,1,314794,400,,0,0,purple,400,1,400,,vertical,purple,Distractor2.bmp,yellow,Distractor1.bmp,blue,Distractor2.bmp,lime,Distractor1.bmp,cyan,Distractor2.bmp,red,Target1.bmp,,,,TrialProc,5,TrainingTrialList,1,1,-999999,0,315194,0,1,620,315814,Target1.bmp,red,1,,,,12,3,42
KW_Experiment5A,33,1,"<?xml version=""1.0""?>\n<Clock xmlns:dt=""urn:schemas-microsoft-com:datatypes""><Description dt:dt=""string"">E-Prime Primary Realtime Clock</Description><StartTime><Timestamp dt:dt=""int"">0</Timestamp><DateUtc dt:dt=""string"">2018-10-18T20:20:11Z</DateUtc></StartTime><FrequencyChanges><FrequencyChange><Frequency dt:dt=""r8"">3215292</Frequency><Timestamp dt:dt=""r8"">6164390183149</Timestamp><Current dt:dt=""r8"">0</Current><DateUtc dt:dt=""string"">2018-10-18T20:20:11Z</DateUtc></FrequencyChange></FrequencyChanges></Clock>\n",KW_Experiment5A-33-1,59.945,1.0.0.105,2,1112533151,Professional,2.0.10.353,2.0.10.353,10/18/2018,10/18/2018 20:20,16:20:12,2.0.10.248,2,2,1,2,,,,,,,,TrainingProc,BlockList,43,1,Distractor2.bmp,2,0,,0,1,316829,400,,0,0,purple,400,1,400,,vertical,purple,Distractor2.bmp,red,Target1.bmp,cyan,Distractor2.bmp,lime,Distractor1.bmp,yellow,Distractor2.bmp,blue,Distractor1.bmp,,,,TrialProc,5,TrainingTrialList,1,1,-999999,0,317229,0,1,753,317982,Target1.bmp,red,1,,,,8,3,43
KW_Experiment5A,33,1,"<?xml version=""1.0""?>\n<Clock xmlns:dt=""urn:schemas-microsoft-com:datatypes""><Description dt:dt=""string"">E-Prime Primary Realtime Clock</Description><StartTime><Timestamp dt:dt=""int"">0</Timestamp><DateUtc dt:dt=""string"">2018-10-18T20:20:11Z</DateUtc></StartTime><FrequencyChanges><FrequencyChange><Frequency dt:dt=""r8"">3215292</Frequency><Timestamp dt:dt=""r8"">6164390183149</Timestamp><Current dt:dt=""r8"">0</Current><DateUtc dt:dt=""string"">2018-10-18T20:20:11Z</DateUtc></FrequencyChange></FrequencyChanges></Clock>\n",KW_Experiment5A-33-1,59.945,1.0.0.105,2,1112533151,Professional,2.0.10.353,2.0.10.353,10/18/2018,10/18/2018 20:20,16:20:12,2.0.10.248,2,2,1,2,,,,,,,,TrainingProc,BlockList,44,1,Distractor1.bmp,1,0,,0,1,318998,500,,0,0,cyan,500,2,500,,vertical,cyan,Distractor2.bmp,red,Target1.bmp,yellow,Distractor1.bmp,blue,Distractor2.bmp,lime,Distractor2.bmp,purple,Distractor1.bmp,,,,TrialProc,4,TrainingTrialList,1,1,-999999,0,319498,0,1,476,319974,Target1.bmp,red,1,,,,8,3,44
KW_Experiment5A,33,1,"<?xml version=""1.0""?>\n<Clock xmlns:dt=""urn:schemas-microsoft-com:datatypes""><Description dt:dt=""string"">E-Prime Primary Realtime Clock</Description><StartTime><Timestamp dt:dt=""int"">0</Timestamp><DateUtc dt:dt=""string"">2018-10-18T20:20:11Z</DateUtc></StartTime><FrequencyChanges><FrequencyChange><Frequency dt:dt=""r8"">3215292</Frequency><Timestamp dt:dt=""r8"">6164390183149</Timestamp><Current dt:dt=""r8"">0</Current><DateUtc dt:dt=""string"">2018-10-18T20:20:11Z</DateUtc></FrequencyChange></FrequencyChanges></Clock>\n",KW_Experiment5A-33-1,59.945,1.0.0.105,2,1112533151,Professional,2.0.10.353,2.0.10.353,10/18/2018,10/18/2018 20:20,16:20:12,2.0.10.248,2,2,1,2,,,,,,,,TrainingProc,BlockList,45,1,Distractor2.bmp,2,0,,0,1,321000,500,,0,0,purple,500,2,500,5,vertical,purple,Distractor2.bmp,red,Distractor2.bmp,lime,Target1.bmp,cyan,Distractor2.bmp,blue,Distractor2.bmp,yellow,Distractor2.bmp,,,,TrialProc,,TrainingTrialList,0,1,-999999,0,321500,0,2,506,322006,Target1.bmp,lime,1,,,,3,3,45
KW_Experiment5A,33,1,"<?xml version=""1.0""?>\n<Clock xmlns:dt=""urn:schemas-microsoft-com:datatypes""><Description dt:dt=""string"">E-Prime Primary Realtime Clock</Description><StartTime><Timestamp dt:dt=""int"">0</Timestamp><DateUtc dt:dt=""string"">2018-10-18T20:20:11Z</DateUtc></StartTime><FrequencyChanges><FrequencyChange><Frequency dt:dt=""r8"">3215292</Frequency><Timestamp dt:dt=""r8"">6164390183149</Timestamp><Current dt:dt=""r8"">0</Current><DateUtc dt:dt=""string"">2018-10-18T20:20:11Z</DateUtc></FrequencyChange></FrequencyChanges></Clock>\n",KW_Experiment5A-33-1,59.945,1.0.0.105,2,1112533151,Professional,2.0.10.353,2.0.10.353,10/18/2018,10/18/2018 20:20,16:20:12,2.0.10.248,2,2,1,2,,,,,,,,TrainingProc,BlockList,46,2,Distractor1.bmp,1,0,,0,1,323018,601,,0,0,yellow,600,3,600,,horizontal,yellow,Distractor1.bmp,cyan,Distractor2.bmp,red,Target2.bmp,blue,Distractor1.bmp,purple,Distractor2.bmp,lime,Distractor2.bmp,,,,TrialProc,2,TrainingTrialList,0,2,-999999,1,323619,0,1,1691,325310,Target2.bmp,red,2,,,,9,3,46
KW_Experiment5A,33,1,"<?xml version=""1.0""?>\n<Clock xmlns:dt=""urn:schemas-microsoft-com:datatypes""><Description dt:dt=""string"">E-Prime Primary Realtime Clock</Description><StartTime><Timestamp dt:dt=""int"">0</Timestamp><DateUtc dt:dt=""string"">2018-10-18T20:20:11Z</DateUtc></StartTime><FrequencyChanges><FrequencyChange><Frequency dt:dt=""r8"">3215292</Frequency><Timestamp dt:dt=""r8"">6164390183149</Timestamp><Current dt:dt=""r8"">0</Current><DateUtc dt:dt=""string"">2018-10-18T20:20:11Z</DateUtc></FrequencyChange></FrequencyChanges></Clock>\n",KW_Experiment5A-33-1,59.945,1.0.0.105,2,1112533151,Professional,2.0.10.353,2.0.10.353,10/18/2018,10/18/2018 20:20,16:20:12,2.0.10.248,2,2,1,2,,,,,,,,TrainingProc,BlockList,47,2,Distractor2.bmp,2,0,,0,1,326321,400,,0,0,yellow,400,1,400,,horizontal,red,Target2.bmp,purple,Distractor2.bmp,cyan,Distractor2.bmp,blue,Distractor2.bmp,lime,Distractor1.bmp,yellow,Distractor2.bmp,,,,TrialProc,2,TrainingTrialList,1,2,-999999,0,326721,0,2,1085,327806,Target2.bmp,red,2,,,,7,3,47
KW_Experiment5A,33,1,"<?xml version=""1.0""?>\n<Clock xmlns:dt=""urn:schemas-microsoft-com:datatypes""><Description dt:dt=""string"">E-Prime Primary Realtime Clock</Description><StartTime><Timestamp dt:dt=""int"">0</Timestamp><DateUtc dt:dt=""string"">2018-10-18T20:20:11Z</DateUtc></StartTime><FrequencyChanges><FrequencyChange><Frequency dt:dt=""r8"">3215292</Frequency><Timestamp dt:dt=""r8"">6164390183149</Timestamp><Current dt:dt=""r8"">0</Current><DateUtc dt:dt=""string"">2018-10-18T20:20:11Z</DateUtc></FrequencyChange></FrequencyChanges></Clock>\n",KW_Experiment5A-33-1,59.945,1.0.0.105,2,1112533151,Professional,2.0.10.353,2.0.10.353,10/18/2018,10/18/2018 20:20,16:20:12,2.0.10.248,2,2,1,2,,,,,,,,TrainingProc,BlockList,48,1,Distractor2.bmp,2,0,,0,1,328823,401,,0,0,purple,400,1,400,,vertical,red,Target1.bmp,cyan,Distractor2.bmp,lime,Distractor2.bmp,yellow,Distractor1.bmp,blue,Distractor2.bmp,purple,Distractor1.bmp,,,,TrialProc,5,TrainingTrialList,1,1,-999999,1,329224,0,1,1094,330318,Target1.bmp,red,1,,,,7,3,48
KW_Experiment5A,33,1,"<?xml version=""1.0""?>\n<Clock xmlns:dt=""urn:schemas-microsoft-com:datatypes""><Description dt:dt=""string"">E-Prime Primary Realtime Clock</Description><StartTime><Timestamp dt:dt=""int"">0</Timestamp><DateUtc dt:dt=""string"">2018-10-18T20:20:11Z</DateUtc></StartTime><FrequencyChanges><FrequencyChange><Frequency dt:dt=""r8"">3215292</Frequency><Timestamp dt:dt=""r8"">6164390183149</Timestamp><Current dt:dt=""r8"">0</Current><DateUtc dt:dt=""string"">2018-10-18T20:20:11Z</DateUtc></FrequencyChange></FrequencyChanges></Clock>\n",KW_Experiment5A-33-1,59.945,1.0.0.105,2,1112533151,Professional,2.0.10.353,2.0.10.353,10/18/2018,10/18/2018 20:20,16:20:12,2.0.10.248,3,2,1,3,,,,,,,,TrainingProc,BlockList,1,2,Distractor2.bmp,2,0,,1,22,333060,401,,0,0,blue,400,1,400,3,horizontal,blue,Distractor1.bmp,purple,Distractor2.bmp,lime,Target2.bmp,cyan,Distractor2.bmp,red,Distractor2.bmp,yellow,Distractor2.bmp,,,,TrialProc,,TrainingTrialList,1,2,-999999,1,333461,0,2,1449,334910,Target2.bmp,lime,2,,,,3,4,49
KW_Experiment5A,33,1,"<?xml version=""1.0""?>\n<Clock xmlns:dt=""urn:schemas-microsoft-com:datatypes""><Description dt:dt=""string"">E-Prime Primary Realtime Clock</Description><StartTime><Timestamp dt:dt=""int"">0</Timestamp><DateUtc dt:dt=""string"">2018-10-18T20:20:11Z</DateUtc></StartTime><FrequencyChanges><FrequencyChange><Frequency dt:dt=""r8"">3215292</Frequency><Timestamp dt:dt=""r8"">6164390183149</Timestamp><Current dt:dt=""r8"">0</Current><DateUtc dt:dt=""string"">2018-10-18T20:20:11Z</DateUtc></FrequencyChange></FrequencyChanges></Clock>\n",KW_Experiment5A-33-1,59.945,1.0.0.105,2,1112533151,Professional,2.0.10.353,2.0.10.353,10/18/2018,10/18/2018 20:20,16:20:12,2.0.10.248,3,2,1,3,,,,,,,,TrainingProc,BlockList,2,2,Distractor2.bmp,2,0,,0,1,335930,600,,0,0,lime,600,3,600,,horizontal,red,Target2.bmp,purple,Distractor2.bmp,blue,Distractor1.bmp,cyan,Distractor1.bmp,yellow,Distractor1.bmp,lime,Distractor2.bmp,,,,TrialProc,6,TrainingTrialList,0,2,-999999,0,336530,0,1,628,337158,Target2.bmp,red,2,,,,7,4,50
KW_Experiment5A,33,1,"<?xml version=""1.0""?>\n<Clock xmlns:dt=""urn:schemas-microsoft-com:datatypes""><Description dt:dt=""string"">E-Prime Primary Realtime Clock</Description><StartTime><Timestamp dt:dt=""int"">0</Timestamp><DateUtc dt:dt=""string"">2018-10-18T20:20:11Z</DateUtc></StartTime><FrequencyChanges><FrequencyChange><Frequency dt:dt=""r8"">3215292</Frequency><Timestamp dt:dt=""r8"">6164390183149</Timestamp><Current dt:dt=""r8"">0</Current><DateUtc dt:dt=""string"">2018-10-18T20:20:11Z</DateUtc></FrequencyChange></FrequencyChanges></Clock>\n",KW_Experiment5A-33-1,59.945,1.0.0.105,2,1112533151,Professional,2.0.10.353,2.0.10.353,10/18/2018,10/18/2018 20:20,16:20:12,2.0.10.248,3,2,1,3,,,,,,,,TrainingProc,BlockList,3,1,Distractor2.bmp,2,0,,0,1,338182,600,,0,0,lime,600,3,600,,vertical,lime,Distractor1.bmp,yellow,Distractor1.bmp,purple,Distractor1.bmp,red,Target1.bmp,cyan,Distractor2.bmp,blue,Distractor1.bmp,,,,TrialProc,6,TrainingTrialList,1,1,-999999,0,338782,0,1,864,339646,Target1.bmp,red,1,,,,10,4,51
KW_Experiment5A,33,1,"<?xml version=""1.0""?>\n<Clock xmlns:dt=""urn:schemas-microsoft-com:datatypes""><Description dt:dt=""string"">E-Prime Primary Realtime Clock</Description><StartTime><Timestamp dt:dt=""int"">0</Timestamp><DateUtc dt:dt=""string"">2018-10-18T20:20:11Z</DateUtc></StartTime><FrequencyChanges><FrequencyChange><Frequency dt:dt=""r8"">3215292</Frequency><Timestamp dt:dt=""r8"">6164390183149</Timestamp><Current dt:dt=""r8"">0</Current><DateUtc dt:dt=""string"">2018-10-18T20:20:11Z</DateUtc></FrequencyChange></FrequencyChanges></Clock>\n",KW_Experiment5A-33-1,59.945,1.0.0.105,2,1112533151,Professional,2.0.10.353,2.0.10.353,10/18/2018,10/18/2018 20:20,16:20:12,2.0.10.248,3,2,1,3,,,,,,,,TrainingProc,BlockList,4,2,Distractor1.bmp,1,0,,0,1,340667,501,,0,0,blue,500,2,500,,horizontal,red,Target2.bmp,purple,Distractor1.bmp,lime,Distractor2.bmp,yellow,Distractor2.bmp,cyan,Distractor2.bmp,blue,Distractor1.bmp,,,,TrialProc,3,TrainingTrialList,0,2,-999999,1,341168,0,1,1269,342437,Target2.bmp,red,2,,,,7,4,52
KW_Experiment5A,33,1,"<?xml version=""1.0""?>\n<Clock xmlns:dt=""urn:schemas-microsoft-com:datatypes""><Description dt:dt=""string"">E-Prime Primary Realtime Clock</Description><StartTime><Timestamp dt:dt=""int"">0</Timestamp><DateUtc dt:dt=""string"">2018-10-18T20:20:11Z</DateUtc></StartTime><FrequencyChanges><FrequencyChange><Frequency dt:dt=""r8"">3215292</Frequency><Timestamp dt:dt=""r8"">6164390183149</Timestamp><Current dt:dt=""r8"">0</Current><DateUtc dt:dt=""string"">2018-10-18T20:20:11Z</DateUtc></FrequencyChange></FrequencyChanges></Clock>\n",KW_Experiment5A-33-1,59.945,1.0.0.105,2,1112533151,Professional,2.0.10.353,2.0.10.353,10/18/2018,10/18/2018 20:20,16:20:12,2.0.10.248,3,2,1,3,,,,,,,,TrainingProc,BlockList,5,2,Distractor2.bmp,2,0,,0,1,343453,401,,0,0,cyan,400,1,400,,horizontal,cyan,Distractor1.bmp,yellow,Distractor2.bmp,purple,Distractor2.bmp,lime,Distractor2.bmp,red,Target2.bmp,blue,Distractor2.bmp,,,,TrialProc,4,TrainingTrialList,1,2,-999999,1,343854,0,2,2215,346069,Target2.bmp,red,2,,,,11,4,53
KW_Experiment5A,33,1,"<?xml version=""1.0""?>\n<Clock xmlns:dt=""urn:schemas-microsoft-com:datatypes""><Description dt:dt=""string"">E-Prime Primary Realtime Clock</Description><StartTime><Timestamp dt:dt=""int"">0</Timestamp><DateUtc dt:dt=""string"">2018-10-18T20:20:11Z</DateUtc></StartTime><FrequencyChanges><FrequencyChange><Frequency dt:dt=""r8"">3215292</Frequency><Timestamp dt:dt=""r8"">6164390183149</Timestamp><Current dt:dt=""r8"">0</Current><DateUtc dt:dt=""string"">2018-10-18T20:20:11Z</DateUtc></FrequencyChange></FrequencyChanges></Clock>\n",KW_Experiment5A-33-1,59.945,1.0.0.105,2,1112533151,Professional,2.0.10.353,2.0.10.353,10/18/2018,10/18/2018 20:20,16:20:12,2.0.10.248,3,2,1,3,,,,,,,,TrainingProc,BlockList,6,1,Distractor1.bmp,1,0,,0,1,347090,600,,0,0,purple,600,3,600,,vertical,purple,Distractor1.bmp,red,Target1.bmp,cyan,Distractor1.bmp,yellow,Distractor1.bmp,blue,Distractor2.bmp,lime,Distractor1.bmp,,,,TrialProc,5,TrainingTrialList,0,1,-999999,0,347690,0,2,843,348533,Target1.bmp,red,1,,,,8,4,54
KW_Experiment5A,33,1,"<?xml version=""1.0""?>\n<Clock xmlns:dt=""urn:schemas-microsoft-com:datatypes""><Description dt:dt=""string"">E-Prime Primary Realtime Clock</Description><StartTime><Timestamp dt:dt=""int"">0</Timestamp><DateUtc dt:dt=""string"">2018-10-18T20:20:11Z</DateUtc></StartTime><FrequencyChanges><FrequencyChange><Frequency dt:dt=""r8"">3215292</Frequency><Timestamp dt:dt=""r8"">6164390183149</Timestamp><Current dt:dt=""r8"">0</Current><DateUtc dt:dt=""string"">2018-10-18T20:20:11Z</DateUtc></FrequencyChange></FrequencyChanges></Clock>\n",KW_Experiment5A-33-1,59.945,1.0.0.105,2,1112533151,Professional,2.0.10.353,2.0.10.353,10/18/2018,10/18/2018 20:20,16:20:12,2.0.10.248,3,2,1,3,,,,,,,,TrainingProc,BlockList,7,2,Distractor1.bmp,1,0,,0,1,349559,400,,0,0,purple,400,1,400,5,horizontal,purple,Distractor2.bmp,lime,Target2.bmp,blue,Distractor1.bmp,yellow,Distractor2.bmp,cyan,Distractor1.bmp,red,Distractor1.bmp,,,,TrialProc,,TrainingTrialList,0,2,-999999,0,349959,0,1,598,350557,Target2.bmp,lime,2,,,,2,4,55
KW_Experiment5A,33,1,"<?xml version=""1.0""?>\n<Clock xmlns:dt=""urn:schemas-microsoft-com:datatypes""><Description dt:dt=""string"">E-Prime Primary Realtime Clock</Description><StartTime><Timestamp dt:dt=""int"">0</Timestamp><DateUtc dt:dt=""string"">2018-10-18T20:20:11Z</DateUtc></StartTime><FrequencyChanges><FrequencyChange><Frequency dt:dt=""r8"">3215292</Frequency><Timestamp dt:dt=""r8"">6164390183149</Timestamp><Current dt:dt=""r8"">0</Current><DateUtc dt:dt=""string"">2018-10-18T20:20:11Z</DateUtc></FrequencyChange></FrequencyChanges></Clock>\n",KW_Experiment5A-33-1,59.945,1.0.0.105,2,1112533151,Professional,2.0.10.353,2.0.10.353,10/18/2018,10/18/2018 20:20,16:20:12,2.0.10.248,3,2,1,3,,,,,,,,TrainingProc,BlockList,8,1,Distractor2.bmp,2,0,,0,1,351577,601,,0,0,blue,600,3,600,,vertical,blue,Distractor2.bmp,lime,Distractor1.bmp,yellow,Distractor2.bmp,cyan,Distractor1.bmp,purple,Distractor1.bmp,red,Target1.bmp,,,,TrialProc,3,TrainingTrialList,0,1,-999999,1,352178,0,2,2779,354957,Target1.bmp,red,1,,,,12,4,56
KW_Experiment5A,33,1,"<?xml version=""1.0""?>\n<Clock xmlns:dt=""urn:schemas-microsoft-com:datatypes""><Description dt:dt=""string"">E-Prime Primary Realtime Clock</Description><StartTime><Timestamp dt:dt=""int"">0</Timestamp><DateUtc dt:dt=""string"">2018-10-18T20:20:11Z</DateUtc></StartTime><FrequencyChanges><FrequencyChange><Frequency dt:dt=""r8"">3215292</Frequency><Timestamp dt:dt=""r8"">6164390183149</Timestamp><Current dt:dt=""r8"">0</Current><DateUtc dt:dt=""string"">2018-10-18T20:20:11Z</DateUtc></FrequencyChange></FrequencyChanges></Clock>\n",KW_Experiment5A-33-1,59.945,1.0.0.105,2,1112533151,Professional,2.0.10.353,2.0.10.353,10/18/2018,10/18/2018 20:20,16:20:12,2.0.10.248,3,2,1,3,,,,,,,,TrainingProc,BlockList,9,2,Distractor1.bmp,1,0,,0,1,355981,401,,0,0,cyan,400,1,400,4,horizontal,lime,Target2.bmp,cyan,Distractor1.bmp,purple,Distractor1.bmp,blue,Distractor2.bmp,yellow,Distractor1.bmp,red,Distractor1.bmp,,,,TrialProc,,TrainingTrialList,0,2,-999999,1,356382,0,1,1471,357853,Target2.bmp,lime,2,,,,1,4,57
KW_Experiment5A,33,1,"<?xml version=""1.0""?>\n<Clock xmlns:dt=""urn:schemas-microsoft-com:datatypes""><Description dt:dt=""string"">E-Prime Primary Realtime Clock</Description><StartTime><Timestamp dt:dt=""int"">0</Timestamp><DateUtc dt:dt=""string"">2018-10-18T20:20:11Z</DateUtc></StartTime><FrequencyChanges><FrequencyChange><Frequency dt:dt=""r8"">3215292</Frequency><Timestamp dt:dt=""r8"">6164390183149</Timestamp><Current dt:dt=""r8"">0</Current><DateUtc dt:dt=""string"">2018-10-18T20:20:11Z</DateUtc></FrequencyChange></FrequencyChanges></Clock>\n",KW_Experiment5A-33-1,59.945,1.0.0.105,2,1112533151,Professional,2.0.10.353,2.0.10.353,10/18/2018,10/18/2018 20:20,16:20:12,2.0.10.248,3,2,1,3,,,,,,,,TrainingProc,BlockList,10,2,Distractor1.bmp,1,0,,0,1,358867,501,,0,0,red,500,2,500,1,horizontal,red,Distractor1.bmp,cyan,Distractor2.bmp,yellow,Distractor2.bmp,lime,Target2.bmp,blue,Distractor1.bmp,purple,Distractor2.bmp,,,,TrialProc,,TrainingTrialList,1,2,-999999,1,359368,0,2,509,359877,Target2.bmp,lime,2,,,,4,4,58
KW_Experiment5A,33,1,"<?xml version=""1.0""?>\n<Clock xmlns:dt=""urn:schemas-microsoft-com:datatypes""><Description dt:dt=""string"">E-Prime Primary Realtime Clock</Description><StartTime><Timestamp dt:dt=""int"">0</Timestamp><DateUtc dt:dt=""string"">2018-10-18T20:20:11Z</DateUtc></StartTime><FrequencyChanges><FrequencyChange><Frequency dt:dt=""r8"">3215292</Frequency><Timestamp dt:dt=""r8"">6164390183149</Timestamp><Current dt:dt=""r8"">0</Current><DateUtc dt:dt=""string"">2018-10-18T20:20:11Z</DateUtc></FrequencyChange></FrequencyChanges></Clock>\n",KW_Experiment5A-33-1,59.945,1.0.0.105,2,1112533151,Professional,2.0.10.353,2.0.10.353,10/18/2018,10/18/2018 20:20,16:20:12,2.0.10.248,3,2,1,3,,,,,,,,TrainingProc,BlockList,11,1,Distractor1.bmp,1,0,,1,0,360902,401,,0,0,yellow,400,1,400,,vertical,yellow,Distractor1.bmp,red,Target1.bmp,blue,Distractor1.bmp,purple,Distractor1.bmp,cyan,Distractor1.bmp,lime,Distractor1.bmp,,,,TrialProc,2,TrainingTrialList,1,1,-999999,1,361303,0,1,1142,362445,Target1.bmp,red,1,,,,8,4,59
KW_Experiment5A,33,1,"<?xml version=""1.0""?>\n<Clock xmlns:dt=""urn:schemas-microsoft-com:datatypes""><Description dt:dt=""string"">E-Prime Primary Realtime Clock</Description><StartTime><Timestamp dt:dt=""int"">0</Timestamp><DateUtc dt:dt=""string"">2018-10-18T20:20:11Z</DateUtc></StartTime><FrequencyChanges><FrequencyChange><Frequency dt:dt=""r8"">3215292</Frequency><Timestamp dt:dt=""r8"">6164390183149</Timestamp><Current dt:dt=""r8"">0</Current><DateUtc dt:dt=""string"">2018-10-18T20:20:11Z</DateUtc></FrequencyChange></FrequencyChanges></Clock>\n",KW_Experiment5A-33-1,59.945,1.0.0.105,2,1112533151,Professional,2.0.10.353,2.0.10.353,10/18/2018,10/18/2018 20:20,16:20:12,2.0.10.248,3,2,1,3,,,,,,,,TrainingProc,BlockList,12,2,Distractor1.bmp,1,0,,0,1,363455,400,,0,0,lime,400,1,400,,horizontal,lime,Distractor2.bmp,purple,Distractor1.bmp,yellow,Distractor1.bmp,red,Target2.bmp,blue,Distractor1.bmp,cyan,Distractor2.bmp,,,,TrialProc,6,TrainingTrialList,0,2,-999999,0,363855,0,1,1534,365389,Target2.bmp,red,2,,,,10,4,60
KW_Experiment5A,33,1,"<?xml version=""1.0""?>\n<Clock xmlns:dt=""urn:schemas-microsoft-com:datatypes""><Description dt:dt=""string"">E-Prime Primary Realtime Clock</Description><StartTime><Timestamp dt:dt=""int"">0</Timestamp><DateUtc dt:dt=""string"">2018-10-18T20:20:11Z</DateUtc></StartTime><FrequencyChanges><FrequencyChange><Frequency dt:dt=""r8"">3215292</Frequency><Timestamp dt:dt=""r8"">6164390183149</Timestamp><Current dt:dt=""r8"">0</Current><DateUtc dt:dt=""string"">2018-10-18T20:20:11Z</DateUtc></FrequencyChange></FrequencyChanges></Clock>\n",KW_Experiment5A-33-1,59.945,1.0.0.105,2,1112533151,Professional,2.0.10.353,2.0.10.353,10/18/2018,10/18/2018 20:20,16:20:12,2.0.10.248,3,2,1,3,,,,,,,,TrainingProc,BlockList,13,2,Distractor2.bmp,2,0,,0,0,366407,601,,0,0,purple,600,3,600,5,horizontal,purple,Distractor2.bmp,blue,Distractor1.bmp,cyan,Distractor2.bmp,red,Distractor2.bmp,yellow,Distractor1.bmp,lime,Target2.bmp,,,,TrialProc,,TrainingTrialList,1,2,-999999,1,367008,0,2,693,367701,Target2.bmp,lime,2,,,,6,4,61
KW_Experiment5A,33,1,"<?xml version=""1.0""?>\n<Clock xmlns:dt=""urn:schemas-microsoft-com:datatypes""><Description dt:dt=""string"">E-Prime Primary Realtime Clock</Description><StartTime><Timestamp dt:dt=""int"">0</Timestamp><DateUtc dt:dt=""string"">2018-10-18T20:20:11Z</DateUtc></StartTime><FrequencyChanges><FrequencyChange><Frequency dt:dt=""r8"">3215292</Frequency><Timestamp dt:dt=""r8"">6164390183149</Timestamp><Current dt:dt=""r8"">0</Current><DateUtc dt:dt=""string"">2018-10-18T20:20:11Z</DateUtc></FrequencyChange></FrequencyChanges></Clock>\n",KW_Experiment5A-33-1,59.945,1.0.0.105,2,1112533151,Professional,2.0.10.353,2.0.10.353,10/18/2018,10/18/2018 20:20,16:20:12,2.0.10.248,3,2,1,3,,,,,,,,TrainingProc,BlockList,14,2,Distractor1.bmp,1,0,,0,1,368726,501,,0,0,purple,500,2,500,,horizontal,purple,Distractor2.bmp,blue,Distractor2.bmp,yellow,Distractor1.bmp,red,Target2.bmp,lime,Distractor1.bmp,cyan,Distractor2.bmp,,,,TrialProc,5,TrainingTrialList,0,2,-999999,1,369227,0,1,594,369821,Target2.bmp,red,2,,,,10,4,62
KW_Experiment5A,33,1,"<?xml version=""1.0""?>\n<Clock xmlns:dt=""urn:schemas-microsoft-com:datatypes""><Description dt:dt=""string"">E-Prime Primary Realtime Clock</Description><StartTime><Timestamp dt:dt=""int"">0</Timestamp><DateUtc dt:dt=""string"">2018-10-18T20:20:11Z</DateUtc></StartTime><FrequencyChanges><FrequencyChange><Frequency dt:dt=""r8"">3215292</Frequency><Timestamp dt:dt=""r8"">6164390183149</Timestamp><Current dt:dt=""r8"">0</Current><DateUtc dt:dt=""string"">2018-10-18T20:20:11Z</DateUtc></FrequencyChange></FrequencyChanges></Clock>\n",KW_Experiment5A-33-1,59.945,1.0.0.105,2,1112533151,Professional,2.0.10.353,2.0.10.353,10/18/2018,10/18/2018 20:20,16:20:12,2.0.10.248,3,2,1,3,,,,,,,,TrainingProc,BlockList,15,1,Distractor2.bmp,2,0,,0,1,370845,500,,0,0,purple,500,2,500,,vertical,purple,Distractor2.bmp,lime,Distractor1.bmp,blue,Distractor1.bmp,yellow,Distractor2.bmp,red,Target1.bmp,cyan,Distractor2.bmp,,,,TrialProc,5,TrainingTrialList,0,1,-999999,0,371345,0,2,972,372317,Target1.bmp,red,1,,,,11,4,63
KW_Experiment5A,33,1,"<?xml version=""1.0""?>\n<Clock xmlns:dt=""urn:schemas-microsoft-com:datatypes""><Description dt:dt=""string"">E-Prime Primary Realtime Clock</Description><StartTime><Timestamp dt:dt=""int"">0</Timestamp><DateUtc dt:dt=""string"">2018-10-18T20:20:11Z</DateUtc></StartTime><FrequencyChanges><FrequencyChange><Frequency dt:dt=""r8"">3215292</Frequency><Timestamp dt:dt=""r8"">6164390183149</Timestamp><Current dt:dt=""r8"">0</Current><DateUtc dt:dt=""string"">2018-10-18T20:20:11Z</DateUtc></FrequencyChange></FrequencyChanges></Clock>\n",KW_Experiment5A-33-1,59.945,1.0.0.105,2,1112533151,Professional,2.0.10.353,2.0.10.353,10/18/2018,10/18/2018 20:20,16:20:12,2.0.10.248,3,2,1,3,,,,,,,,TrainingProc,BlockList,16,1,Distractor1.bmp,1,0,,0,0,373330,401,,0,0,blue,400,1,400,,vertical,blue,Distractor1.bmp,red,Target1.bmp,lime,Distractor1.bmp,cyan,Distractor2.bmp,yellow,Distractor1.bmp,purple,Distractor1.bmp,,,,TrialProc,3,TrainingTrialList,1,1,-999999,1,373731,0,1,570,374301,Target1.bmp,red,1,,,,8,4,64
KW_Experiment5A,33,1,"<?xml version=""1.0""?>\n<Clock xmlns:dt=""urn:schemas-microsoft-com:datatypes""><Description dt:dt=""string"">E-Prime Primary Realtime Clock</Description><StartTime><Timestamp dt:dt=""int"">0</Timestamp><DateUtc dt:dt=""string"">2018-10-18T20:20:11Z</DateUtc></StartTime><FrequencyChanges><FrequencyChange><Frequency dt:dt=""r8"">3215292</Frequency><Timestamp dt:dt=""r8"">6164390183149</Timestamp><Current dt:dt=""r8"">0</Current><DateUtc dt:dt=""string"">2018-10-18T20:20:11Z</DateUtc></FrequencyChange></FrequencyChanges></Clock>\n",KW_Experiment5A-33-1,59.945,1.0.0.105,2,1112533151,Professional,2.0.10.353,2.0.10.353,10/18/2018,10/18/2018 20:20,16:20:12,2.0.10.248,3,2,1,3,,,,,,,,TrainingProc,BlockList,17,2,Distractor1.bmp,1,0,,0,1,375316,600,,0,0,blue,600,3,600,,horizontal,red,Target2.bmp,purple,Distractor1.bmp,yellow,Distractor2.bmp,cyan,Distractor2.bmp,lime,Distractor1.bmp,blue,Distractor2.bmp,,,,TrialProc,3,TrainingTrialList,1,2,-999999,0,375916,0,2,697,376613,Target2.bmp,red,2,,,,7,4,65
KW_Experiment5A,33,1,"<?xml version=""1.0""?>\n<Clock xmlns:dt=""urn:schemas-microsoft-com:datatypes""><Description dt:dt=""string"">E-Prime Primary Realtime Clock</Description><StartTime><Timestamp dt:dt=""int"">0</Timestamp><DateUtc dt:dt=""string"">2018-10-18T20:20:11Z</DateUtc></StartTime><FrequencyChanges><FrequencyChange><Frequency dt:dt=""r8"">3215292</Frequency><Timestamp dt:dt=""r8"">6164390183149</Timestamp><Current dt:dt=""r8"">0</Current><DateUtc dt:dt=""string"">2018-10-18T20:20:11Z</DateUtc></FrequencyChange></FrequencyChanges></Clock>\n",KW_Experiment5A-33-1,59.945,1.0.0.105,2,1112533151,Professional,2.0.10.353,2.0.10.353,10/18/2018,10/18/2018 20:20,16:20:12,2.0.10.248,3,2,1,3,,,,,,,,TrainingProc,BlockList,18,2,Distractor2.bmp,2,0,,0,1,377634,601,,0,0,cyan,600,3,600,4,horizontal,cyan,Distractor2.bmp,purple,Distractor1.bmp,red,Distractor2.bmp,blue,Distractor1.bmp,lime,Target2.bmp,yellow,Distractor2.bmp,,,,TrialProc,,TrainingTrialList,1,2,-999999,1,378235,0,2,1458,379693,Target2.bmp,lime,2,,,,5,4,66
KW_Experiment5A,33,1,"<?xml version=""1.0""?>\n<Clock xmlns:dt=""urn:schemas-microsoft-com:datatypes""><Description dt:dt=""string"">E-Prime Primary Realtime Clock</Description><StartTime><Timestamp dt:dt=""int"">0</Timestamp><DateUtc dt:dt=""string"">2018-10-18T20:20:11Z</DateUtc></StartTime><FrequencyChanges><FrequencyChange><Frequency dt:dt=""r8"">3215292</Frequency><Timestamp dt:dt=""r8"">6164390183149</Timestamp><Current dt:dt=""r8"">0</Current><DateUtc dt:dt=""string"">2018-10-18T20:20:11Z</DateUtc></FrequencyChange></FrequencyChanges></Clock>\n",KW_Experiment5A-33-1,59.945,1.0.0.105,2,1112533151,Professional,2.0.10.353,2.0.10.353,10/18/2018,10/18/2018 20:20,16:20:12,2.0.10.248,3,2,1,3,,,,,,,,TrainingProc,BlockList,19,1,Distractor1.bmp,1,0,,0,1,380704,400,,0,0,blue,400,1,400,,vertical,blue,Distractor1.bmp,lime,Distractor2.bmp,red,Target1.bmp,yellow,Distractor1.bmp,purple,Distractor2.bmp,cyan,Distractor1.bmp,,,,TrialProc,3,TrainingTrialList,1,1,-999999,0,381104,0,1,685,381789,Target1.bmp,red,1,,,,9,4,67
KW_Experiment5A,33,1,"<?xml version=""1.0""?>\n<Clock xmlns:dt=""urn:schemas-microsoft-com:datatypes""><Description dt:dt=""string"">E-Prime Primary Realtime Clock</Description><StartTime><Timestamp dt:dt=""int"">0</Timestamp><DateUtc dt:dt=""string"">2018-10-18T20:20:11Z</DateUtc></StartTime><FrequencyChanges><FrequencyChange><Frequency dt:dt=""r8"">3215292</Frequency><Timestamp dt:dt=""r8"">6164390183149</Timestamp><Current dt:dt=""r8"">0</Current><DateUtc dt:dt=""string"">2018-10-18T20:20:11Z</DateUtc></FrequencyChange></FrequencyChanges></Clock>\n",KW_Experiment5A-33-1,59.945,1.0.0.105,2,1112533151,Professional,2.0.10.353,2.0.10.353,10/18/2018,10/18/2018 20:20,16:20:12,2.0.10.248,3,2,1,3,,,,,,,,TrainingProc,BlockList,20,1,Distractor2.bmp,2,0,,0,1,382806,400,,0,0,purple,400,1,400,,vertical,purple,Distractor1.bmp,cyan,Distractor2.bmp,red,Target1.bmp,blue,Distractor2.bmp,yellow,Distractor1.bmp,lime,Distractor1.bmp,,,,TrialProc,5,TrainingTrialList,1,1,-999999,0,383206,0,1,590,383796,Target1.bmp,red,1,,,,9,4,68
KW_Experiment5A,33,1,"<?xml version=""1.0""?>\n<Clock xmlns:dt=""urn:schemas-microsoft-com:datatypes""><Description dt:dt=""string"">E-Prime Primary Realtime Clock</Description><StartTime><Timestamp dt:dt=""int"">0</Timestamp><DateUtc dt:dt=""string"">2018-10-18T20:20:11Z</DateUtc></StartTime><FrequencyChanges><FrequencyChange><Frequency dt:dt=""r8"">3215292</Frequency><Timestamp dt:dt=""r8"">6164390183149</Timestamp><Current dt:dt=""r8"">0</Current><DateUtc dt:dt=""string"">2018-10-18T20:20:11Z</DateUtc></FrequencyChange></FrequencyChanges></Clock>\n",KW_Experiment5A-33-1,59.945,1.0.0.105,2,1112533151,Professional,2.0.10.353,2.0.10.353,10/18/2018,10/18/2018 20:20,16:20:12,2.0.10.248,3,2,1,3,,,,,,,,TrainingProc,BlockList,21,1,Distractor1.bmp,1,0,,0,1,384808,500,,0,0,lime,500,2,500,,vertical,lime,Distractor1.bmp,yellow,Distractor2.bmp,purple,Distractor2.bmp,cyan,Distractor2.bmp,blue,Distractor2.bmp,red,Target1.bmp,,,,TrialProc,6,TrainingTrialList,1,1,-999999,0,385308,0,1,968,386276,Target1.bmp,red,1,,,,12,4,69
KW_Experiment5A,33,1,"<?xml version=""1.0""?>\n<Clock xmlns:dt=""urn:schemas-microsoft-com:datatypes""><Description dt:dt=""string"">E-Prime Primary Realtime Clock</Description><StartTime><Timestamp dt:dt=""int"">0</Timestamp><DateUtc dt:dt=""string"">2018-10-18T20:20:11Z</DateUtc></StartTime><FrequencyChanges><FrequencyChange><Frequency dt:dt=""r8"">3215292</Frequency><Timestamp dt:dt=""r8"">6164390183149</Timestamp><Current dt:dt=""r8"">0</Current><DateUtc dt:dt=""string"">2018-10-18T20:20:11Z</DateUtc></FrequencyChange></FrequencyChanges></Clock>\n",KW_Experiment5A-33-1,59.945,1.0.0.105,2,1112533151,Professional,2.0.10.353,2.0.10.353,10/18/2018,10/18/2018 20:20,16:20:12,2.0.10.248,3,2,1,3,,,,,,,,TrainingProc,BlockList,22,1,Distractor1.bmp,1,0,,0,1,387293,601,,0,0,lime,600,3,600,,vertical,lime,Distractor1.bmp,yellow,Distractor1.bmp,red,Target1.bmp,purple,Distractor1.bmp,cyan,Distractor2.bmp,blue,Distractor1.bmp,,,,TrialProc,6,TrainingTrialList,1,1,-999999,1,387894,0,1,606,388500,Target1.bmp,red,1,,,,9,4,70
KW_Experiment5A,33,1,"<?xml version=""1.0""?>\n<Clock xmlns:dt=""urn:schemas-microsoft-com:datatypes""><Description dt:dt=""string"">E-Prime Primary Realtime Clock</Description><StartTime><Timestamp dt:dt=""int"">0</Timestamp><DateUtc dt:dt=""string"">2018-10-18T20:20:11Z</DateUtc></StartTime><FrequencyChanges><FrequencyChange><Frequency dt:dt=""r8"">3215292</Frequency><Timestamp dt:dt=""r8"">6164390183149</Timestamp><Current dt:dt=""r8"">0</Current><DateUtc dt:dt=""string"">2018-10-18T20:20:11Z</DateUtc></FrequencyChange></FrequencyChanges></Clock>\n",KW_Experiment5A-33-1,59.945,1.0.0.105,2,1112533151,Professional,2.0.10.353,2.0.10.353,10/18/2018,10/18/2018 20:20,16:20:12,2.0.10.248,3,2,1,3,,,,,,,,TrainingProc,BlockList,23,2,Distractor2.bmp,2,0,,0,1,389512,500,,0,0,cyan,500,2,500,,horizontal,cyan,Distractor2.bmp,blue,Distractor2.bmp,purple,Distractor1.bmp,lime,Distractor1.bmp,yellow,Distractor1.bmp,red,Target2.bmp,,,,TrialProc,4,TrainingTrialList,1,2,-999999,0,390012,0,2,864,390876,Target2.bmp,red,2,,,,12,4,71
KW_Experiment5A,33,1,"<?xml version=""1.0""?>\n<Clock xmlns:dt=""urn:schemas-microsoft-com:datatypes""><Description dt:dt=""string"">E-Prime Primary Realtime Clock</Description><StartTime><Timestamp dt:dt=""int"">0</Timestamp><DateUtc dt:dt=""string"">2018-10-18T20:20:11Z</DateUtc></StartTime><FrequencyChanges><FrequencyChange><Frequency dt:dt=""r8"">3215292</Frequency><Timestamp dt:dt=""r8"">6164390183149</Timestamp><Current dt:dt=""r8"">0</Current><DateUtc dt:dt=""string"">2018-10-18T20:20:11Z</DateUtc></FrequencyChange></FrequencyChanges></Clock>\n",KW_Experiment5A-33-1,59.945,1.0.0.105,2,1112533151,Professional,2.0.10.353,2.0.10.353,10/18/2018,10/18/2018 20:20,16:20:12,2.0.10.248,3,2,1,3,,,,,,,,TrainingProc,BlockList,24,1,Distractor2.bmp,2,0,,0,1,391897,501,,0,0,purple,500,2,500,,vertical,purple,Distractor1.bmp,lime,Distractor2.bmp,yellow,Distractor1.bmp,blue,Distractor1.bmp,red,Target1.bmp,cyan,Distractor2.bmp,,,,TrialProc,5,TrainingTrialList,1,1,-999999,1,392398,0,1,782,393180,Target1.bmp,red,1,,,,11,4,72
KW_Experiment5A,33,1,"<?xml version=""1.0""?>\n<Clock xmlns:dt=""urn:schemas-microsoft-com:datatypes""><Description dt:dt=""string"">E-Prime Primary Realtime Clock</Description><StartTime><Timestamp dt:dt=""int"">0</Timestamp><DateUtc dt:dt=""string"">2018-10-18T20:20:11Z</DateUtc></StartTime><FrequencyChanges><FrequencyChange><Frequency dt:dt=""r8"">3215292</Frequency><Timestamp dt:dt=""r8"">6164390183149</Timestamp><Current dt:dt=""r8"">0</Current><DateUtc dt:dt=""string"">2018-10-18T20:20:11Z</DateUtc></FrequencyChange></FrequencyChanges></Clock>\n",KW_Experiment5A-33-1,59.945,1.0.0.105,2,1112533151,Professional,2.0.10.353,2.0.10.353,10/18/2018,10/18/2018 20:20,16:20:12,2.0.10.248,3,2,1,3,,,,,,,,TrainingProc,BlockList,25,1,Distractor1.bmp,1,0,,0,1,394199,501,,0,0,red,500,2,500,1,vertical,lime,Target1.bmp,red,Distractor1.bmp,purple,Distractor1.bmp,yellow,Distractor2.bmp,blue,Distractor1.bmp,cyan,Distractor2.bmp,,,,TrialProc,,TrainingTrialList,0,1,-999999,1,394700,0,2,648,395348,Target1.bmp,lime,1,,,,1,5,73
KW_Experiment5A,33,1,"<?xml version=""1.0""?>\n<Clock xmlns:dt=""urn:schemas-microsoft-com:datatypes""><Description dt:dt=""string"">E-Prime Primary Realtime Clock</Description><StartTime><Timestamp dt:dt=""int"">0</Timestamp><DateUtc dt:dt=""string"">2018-10-18T20:20:11Z</DateUtc></StartTime><FrequencyChanges><FrequencyChange><Frequency dt:dt=""r8"">3215292</Frequency><Timestamp dt:dt=""r8"">6164390183149</Timestamp><Current dt:dt=""r8"">0</Current><DateUtc dt:dt=""string"">2018-10-18T20:20:11Z</DateUtc></FrequencyChange></FrequencyChanges></Clock>\n",KW_Experiment5A-33-1,59.945,1.0.0.105,2,1112533151,Professional,2.0.10.353,2.0.10.353,10/18/2018,10/18/2018 20:20,16:20:12,2.0.10.248,3,2,1,3,,,,,,,,TrainingProc,BlockList,26,2,Distractor1.bmp,1,0,,0,1,396368,400,,0,0,cyan,400,1,400,,horizontal,cyan,Distractor1.bmp,blue,Distractor2.bmp,lime,Distractor1.bmp,yellow,Distractor1.bmp,red,Target2.bmp,purple,Distractor1.bmp,,,,TrialProc,4,TrainingTrialList,1,2,-999999,0,396768,0,2,1820,398588,Target2.bmp,red,2,,,,11,5,74
KW_Experiment5A,33,1,"<?xml version=""1.0""?>\n<Clock xmlns:dt=""urn:schemas-microsoft-com:datatypes""><Description dt:dt=""string"">E-Prime Primary Realtime Clock</Description><StartTime><Timestamp dt:dt=""int"">0</Timestamp><DateUtc dt:dt=""string"">2018-10-18T20:20:11Z</DateUtc></StartTime><FrequencyChanges><FrequencyChange><Frequency dt:dt=""r8"">3215292</Frequency><Timestamp dt:dt=""r8"">6164390183149</Timestamp><Current dt:dt=""r8"">0</Current><DateUtc dt:dt=""string"">2018-10-18T20:20:11Z</DateUtc></FrequencyChange></FrequencyChanges></Clock>\n",KW_Experiment5A-33-1,59.945,1.0.0.105,2,1112533151,Professional,2.0.10.353,2.0.10.353,10/18/2018,10/18/2018 20:20,16:20:12,2.0.10.248,3,2,1,3,,,,,,,,TrainingProc,BlockList,27,2,Distractor2.bmp,2,0,,0,1,399604,401,,0,0,blue,400,1,400,,horizontal,blue,Distractor1.bmp,red,Target2.bmp,yellow,Distractor2.bmp,purple,Distractor2.bmp,lime,Distractor1.bmp,cyan,Distractor2.bmp,,,,TrialProc,3,TrainingTrialList,1,2,-999999,1,400005,0,2,831,400836,Target2.bmp,red,2,,,,8,5,75
KW_Experiment5A,33,1,"<?xml version=""1.0""?>\n<Clock xmlns:dt=""urn:schemas-microsoft-com:datatypes""><Description dt:dt=""string"">E-Prime Primary Realtime Clock</Description><StartTime><Timestamp dt:dt=""int"">0</Timestamp><DateUtc dt:dt=""string"">2018-10-18T20:20:11Z</DateUtc></StartTime><FrequencyChanges><FrequencyChange><Frequency dt:dt=""r8"">3215292</Frequency><Timestamp dt:dt=""r8"">6164390183149</Timestamp><Current dt:dt=""r8"">0</Current><DateUtc dt:dt=""string"">2018-10-18T20:20:11Z</DateUtc></FrequencyChange></FrequencyChanges></Clock>\n",KW_Experiment5A-33-1,59.945,1.0.0.105,2,1112533151,Professional,2.0.10.353,2.0.10.353,10/18/2018,10/18/2018 20:20,16:20:12,2.0.10.248,3,2,1,3,,,,,,,,TrainingProc,BlockList,28,2,Distractor1.bmp,1,0,,0,1,401856,501,,0,0,cyan,500,2,500,,horizontal,red,Target2.bmp,lime,Distractor1.bmp,blue,Distractor1.bmp,yellow,Distractor1.bmp,purple,Distractor2.bmp,cyan,Distractor1.bmp,,,,TrialProc,4,TrainingTrialList,1,2,-999999,1,402357,0,2,639,402996,Target2.bmp,red,2,,,,7,5,76
KW_Experiment5A,33,1,"<?xml version=""1.0""?>\n<Clock xmlns:dt=""urn:schemas-microsoft-com:datatypes""><Description dt:dt=""string"">E-Prime Primary Realtime Clock</Description><StartTime><Timestamp dt:dt=""int"">0</Timestamp><DateUtc dt:dt=""string"">2018-10-18T20:20:11Z</DateUtc></StartTime><FrequencyChanges><FrequencyChange><Frequency dt:dt=""r8"">3215292</Frequency><Timestamp dt:dt=""r8"">6164390183149</Timestamp><Current dt:dt=""r8"">0</Current><DateUtc dt:dt=""string"">2018-10-18T20:20:11Z</DateUtc></FrequencyChange></FrequencyChanges></Clock>\n",KW_Experiment5A-33-1,59.945,1.0.0.105,2,1112533151,Professional,2.0.10.353,2.0.10.353,10/18/2018,10/18/2018 20:20,16:20:12,2.0.10.248,3,2,1,3,,,,,,,,TrainingProc,BlockList,29,2,Distractor2.bmp,2,0,,0,1,404008,501,,0,0,yellow,500,2,500,,horizontal,red,Target2.bmp,lime,Distractor2.bmp,cyan,Distractor2.bmp,blue,Distractor2.bmp,purple,Distractor2.bmp,yellow,Distractor1.bmp,,,,TrialProc,2,TrainingTrialList,1,2,-999999,1,404509,0,2,463,404972,Target2.bmp,red,2,,,,7,5,77
KW_Experiment5A,33,1,"<?xml version=""1.0""?>\n<Clock xmlns:dt=""urn:schemas-microsoft-com:datatypes""><Description dt:dt=""string"">E-Prime Primary Realtime Clock</Description><StartTime><Timestamp dt:dt=""int"">0</Timestamp><DateUtc dt:dt=""string"">2018-10-18T20:20:11Z</DateUtc></StartTime><FrequencyChanges><FrequencyChange><Frequency dt:dt=""r8"">3215292</Frequency><Timestamp dt:dt=""r8"">6164390183149</Timestamp><Current dt:dt=""r8"">0</Current><DateUtc dt:dt=""string"">2018-10-18T20:20:11Z</DateUtc></FrequencyChange></FrequencyChanges></Clock>\n",KW_Experiment5A-33-1,59.945,1.0.0.105,2,1112533151,Professional,2.0.10.353,2.0.10.353,10/18/2018,10/18/2018 20:20,16:20:12,2.0.10.248,3,2,1,3,,,,,,,,TrainingProc,BlockList,30,1,Distractor1.bmp,1,0,,0,0,405993,501,,0,0,lime,500,2,500,,vertical,lime,Distractor2.bmp,purple,Distractor2.bmp,red,Target1.bmp,yellow,Distractor1.bmp,blue,Distractor1.bmp,cyan,Distractor2.bmp,,,,TrialProc,6,TrainingTrialList,1,1,-999999,1,406494,0,1,726,407220,Target1.bmp,red,1,,,,9,5,78
KW_Experiment5A,33,1,"<?xml version=""1.0""?>\n<Clock xmlns:dt=""urn:schemas-microsoft-com:datatypes""><Description dt:dt=""string"">E-Prime Primary Realtime Clock</Description><StartTime><Timestamp dt:dt=""int"">0</Timestamp><DateUtc dt:dt=""string"">2018-10-18T20:20:11Z</DateUtc></StartTime><FrequencyChanges><FrequencyChange><Frequency dt:dt=""r8"">3215292</Frequency><Timestamp dt:dt=""r8"">6164390183149</Timestamp><Current dt:dt=""r8"">0</Current><DateUtc dt:dt=""string"">2018-10-18T20:20:11Z</DateUtc></FrequencyChange></FrequencyChanges></Clock>\n",KW_Experiment5A-33-1,59.945,1.0.0.105,2,1112533151,Professional,2.0.10.353,2.0.10.353,10/18/2018,10/18/2018 20:20,16:20:12,2.0.10.248,3,2,1,3,,,,,,,,TrainingProc,BlockList,31,1,Distractor1.bmp,1,0,,1,0,408245,601,,0,0,yellow,600,3,600,,vertical,yellow,Distractor2.bmp,cyan,Distractor2.bmp,purple,Distractor1.bmp,blue,Distractor2.bmp,red,Target1.bmp,lime,Distractor1.bmp,,,,TrialProc,2,TrainingTrialList,1,1,-999999,1,408846,0,1,582,409428,Target1.bmp,red,1,,,,11,5,79
KW_Experiment5A,33,1,"<?xml version=""1.0""?>\n<Clock xmlns:dt=""urn:schemas-microsoft-com:datatypes""><Description dt:dt=""string"">E-Prime Primary Realtime Clock</Description><StartTime><Timestamp dt:dt=""int"">0</Timestamp><DateUtc dt:dt=""string"">2018-10-18T20:20:11Z</DateUtc></StartTime><FrequencyChanges><FrequencyChange><Frequency dt:dt=""r8"">3215292</Frequency><Timestamp dt:dt=""r8"">6164390183149</Timestamp><Current dt:dt=""r8"">0</Current><DateUtc dt:dt=""string"">2018-10-18T20:20:11Z</DateUtc></FrequencyChange></FrequencyChanges></Clock>\n",KW_Experiment5A-33-1,59.945,1.0.0.105,2,1112533151,Professional,2.0.10.353,2.0.10.353,10/18/2018,10/18/2018 20:20,16:20:12,2.0.10.248,3,2,1,3,,,,,,,,TrainingProc,BlockList,32,2,Distractor1.bmp,1,0,,1,0,410447,401,,0,0,cyan,400,1,400,,horizontal,cyan,Distractor1.bmp,red,Target2.bmp,purple,Distractor1.bmp,yellow,Distractor2.bmp,lime,Distractor2.bmp,blue,Distractor2.bmp,,,,TrialProc,4,TrainingTrialList,1,2,-999999,1,410848,0,2,756,411604,Target2.bmp,red,2,,,,8,5,80
KW_Experiment5A,33,1,"<?xml version=""1.0""?>\n<Clock xmlns:dt=""urn:schemas-microsoft-com:datatypes""><Description dt:dt=""string"">E-Prime Primary Realtime Clock</Description><StartTime><Timestamp dt:dt=""int"">0</Timestamp><DateUtc dt:dt=""string"">2018-10-18T20:20:11Z</DateUtc></StartTime><FrequencyChanges><FrequencyChange><Frequency dt:dt=""r8"">3215292</Frequency><Timestamp dt:dt=""r8"">6164390183149</Timestamp><Current dt:dt=""r8"">0</Current><DateUtc dt:dt=""string"">2018-10-18T20:20:11Z</DateUtc></FrequencyChange></FrequencyChanges></Clock>\n",KW_Experiment5A-33-1,59.945,1.0.0.105,2,1112533151,Professional,2.0.10.353,2.0.10.353,10/18/2018,10/18/2018 20:20,16:20:12,2.0.10.248,3,2,1,3,,,,,,,,TrainingProc,BlockList,33,2,Distractor1.bmp,1,0,,0,1,412616,501,,0,0,cyan,500,2,500,4,horizontal,cyan,Distractor1.bmp,red,Distractor1.bmp,lime,Target2.bmp,purple,Distractor1.bmp,yellow,Distractor1.bmp,blue,Distractor2.bmp,,,,TrialProc,,TrainingTrialList,1,2,-999999,1,413117,0,2,1423,414540,Target2.bmp,lime,2,,,,3,5,81
KW_Experiment5A,33,1,"<?xml version=""1.0""?>\n<Clock xmlns:dt=""urn:schemas-microsoft-com:datatypes""><Description dt:dt=""string"">E-Prime Primary Realtime Clock</Description><StartTime><Timestamp dt:dt=""int"">0</Timestamp><DateUtc dt:dt=""string"">2018-10-18T20:20:11Z</DateUtc></StartTime><FrequencyChanges><FrequencyChange><Frequency dt:dt=""r8"">3215292</Frequency><Timestamp dt:dt=""r8"">6164390183149</Timestamp><Current dt:dt=""r8"">0</Current><DateUtc dt:dt=""string"">2018-10-18T20:20:11Z</DateUtc></FrequencyChange></FrequencyChanges></Clock>\n",KW_Experiment5A-33-1,59.945,1.0.0.105,2,1112533151,Professional,2.0.10.353,2.0.10.353,10/18/2018,10/18/2018 20:20,16:20:12,2.0.10.248,3,2,1,3,,,,,,,,TrainingProc,BlockList,34,1,Distractor2.bmp,2,0,,0,1,415552,501,,0,0,blue,500,2,500,,vertical,blue,Distractor1.bmp,cyan,Distractor1.bmp,lime,Distractor1.bmp,red,Target1.bmp,yellow,Distractor2.bmp,purple,Distractor1.bmp,,,,TrialProc,3,TrainingTrialList,1,1,-999999,1,416053,0,1,575,416628,Target1.bmp,red,1,,,,10,5,82
KW_Experiment5A,33,1,"<?xml version=""1.0""?>\n<Clock xmlns:dt=""urn:schemas-microsoft-com:datatypes""><Description dt:dt=""string"">E-Prime Primary Realtime Clock</Description><StartTime><Timestamp dt:dt=""int"">0</Timestamp><DateUtc dt:dt=""string"">2018-10-18T20:20:11Z</DateUtc></StartTime><FrequencyChanges><FrequencyChange><Frequency dt:dt=""r8"">3215292</Frequency><Timestamp dt:dt=""r8"">6164390183149</Timestamp><Current dt:dt=""r8"">0</Current><DateUtc dt:dt=""string"">2018-10-18T20:20:11Z</DateUtc></FrequencyChange></FrequencyChanges></Clock>\n",KW_Experiment5A-33-1,59.945,1.0.0.105,2,1112533151,Professional,2.0.10.353,2.0.10.353,10/18/2018,10/18/2018 20:20,16:20:12,2.0.10.248,3,2,1,3,,,,,,,,TrainingProc,BlockList,35,1,Distractor2.bmp,2,0,,0,1,417654,500,,0,0,cyan,500,2,500,,vertical,cyan,Distractor1.bmp,yellow,Distractor2.bmp,lime,Distractor2.bmp,red,Target1.bmp,purple,Distractor2.bmp,blue,Distractor2.bmp,,,,TrialProc,4,TrainingTrialList,1,1,-999999,0,418154,0,1,466,418620,Target1.bmp,red,1,,,,10,5,83
KW_Experiment5A,33,1,"<?xml version=""1.0""?>\n<Clock xmlns:dt=""urn:schemas-microsoft-com:datatypes""><Description dt:dt=""string"">E-Prime Primary Realtime Clock</Description><StartTime><Timestamp dt:dt=""int"">0</Timestamp><DateUtc dt:dt=""string"">2018-10-18T20:20:11Z</DateUtc></StartTime><FrequencyChanges><FrequencyChange><Frequency dt:dt=""r8"">3215292</Frequency><Timestamp dt:dt=""r8"">6164390183149</Timestamp><Current dt:dt=""r8"">0</Current><DateUtc dt:dt=""string"">2018-10-18T20:20:11Z</DateUtc></FrequencyChange></FrequencyChanges></Clock>\n",KW_Experiment5A-33-1,59.945,1.0.0.105,2,1112533151,Professional,2.0.10.353,2.0.10.353,10/18/2018,10/18/2018 20:20,16:20:12,2.0.10.248,3,2,1,3,,,,,,,,TrainingProc,BlockList,36,1,Distractor1.bmp,1,0,,0,1,419639,601,,0,0,blue,600,3,600,3,vertical,blue,Distractor2.bmp,lime,Target1.bmp,cyan,Distractor1.bmp,yellow,Distractor1.bmp,purple,Distractor2.bmp,red,Distractor2.bmp,,,,TrialProc,,TrainingTrialList,0,1,-999999,1,420240,0,2,852,421092,Target1.bmp,lime,1,,,,2,5,84
KW_Experiment5A,33,1,"<?xml version=""1.0""?>\n<Clock xmlns:dt=""urn:schemas-microsoft-com:datatypes""><Description dt:dt=""string"">E-Prime Primary Realtime Clock</Description><StartTime><Timestamp dt:dt=""int"">0</Timestamp><DateUtc dt:dt=""string"">2018-10-18T20:20:11Z</DateUtc></StartTime><FrequencyChanges><FrequencyChange><Frequency dt:dt=""r8"">3215292</Frequency><Timestamp dt:dt=""r8"">6164390183149</Timestamp><Current dt:dt=""r8"">0</Current><DateUtc dt:dt=""string"">2018-10-18T20:20:11Z</DateUtc></FrequencyChange></FrequencyChanges></Clock>\n",KW_Experiment5A-33-1,59.945,1.0.0.105,2,1112533151,Professional,2.0.10.353,2.0.10.353,10/18/2018,10/18/2018 20:20,16:20:12,2.0.10.248,3,2,1,3,,,,,,,,TrainingProc,BlockList,37,2,Distractor1.bmp,1,0,,0,1,422108,501,,0,0,blue,500,2,500,,horizontal,blue,Distractor2.bmp,red,Target2.bmp,purple,Distractor1.bmp,yellow,Distractor2.bmp,cyan,Distractor2.bmp,lime,Distractor1.bmp,,,,TrialProc,3,TrainingTrialList,1,2,-999999,1,422609,0,2,938,423547,Target2.bmp,red,2,,,,8,5,85
KW_Experiment5A,33,1,"<?xml version=""1.0""?>\n<Clock xmlns:dt=""urn:schemas-microsoft-com:datatypes""><Description dt:dt=""string"">E-Prime Primary Realtime Clock</Description><StartTime><Timestamp dt:dt=""int"">0</Timestamp><DateUtc dt:dt=""string"">2018-10-18T20:20:11Z</DateUtc></StartTime><FrequencyChanges><FrequencyChange><Frequency dt:dt=""r8"">3215292</Frequency><Timestamp dt:dt=""r8"">6164390183149</Timestamp><Current dt:dt=""r8"">0</Current><DateUtc dt:dt=""string"">2018-10-18T20:20:11Z</DateUtc></FrequencyChange></FrequencyChanges></Clock>\n",KW_Experiment5A-33-1,59.945,1.0.0.105,2,1112533151,Professional,2.0.10.353,2.0.10.353,10/18/2018,10/18/2018 20:20,16:20:12,2.0.10.248,3,2,1,3,,,,,,,,TrainingProc,BlockList,38,2,Distractor1.bmp,1,0,,0,1,424560,601,,0,0,yellow,600,3,600,,horizontal,yellow,Distractor2.bmp,lime,Distractor2.bmp,red,Target2.bmp,blue,Distractor1.bmp,purple,Distractor1.bmp,cyan,Distractor2.bmp,,,,TrialProc,2,TrainingTrialList,1,2,-999999,1,425161,0,2,690,425851,Target2.bmp,red,2,,,,9,5,86
KW_Experiment5A,33,1,"<?xml version=""1.0""?>\n<Clock xmlns:dt=""urn:schemas-microsoft-com:datatypes""><Description dt:dt=""string"">E-Prime Primary Realtime Clock</Description><StartTime><Timestamp dt:dt=""int"">0</Timestamp><DateUtc dt:dt=""string"">2018-10-18T20:20:11Z</DateUtc></StartTime><FrequencyChanges><FrequencyChange><Frequency dt:dt=""r8"">3215292</Frequency><Timestamp dt:dt=""r8"">6164390183149</Timestamp><Current dt:dt=""r8"">0</Current><DateUtc dt:dt=""string"">2018-10-18T20:20:11Z</DateUtc></FrequencyChange></FrequencyChanges></Clock>\n",KW_Experiment5A-33-1,59.945,1.0.0.105,2,1112533151,Professional,2.0.10.353,2.0.10.353,10/18/2018,10/18/2018 20:20,16:20:12,2.0.10.248,3,2,1,3,,,,,,,,TrainingProc,BlockList,39,2,Distractor2.bmp,2,0,,0,1,426862,601,,0,0,purple,600,3,600,5,horizontal,purple,Distractor2.bmp,red,Distractor2.bmp,yellow,Distractor2.bmp,blue,Distractor1.bmp,cyan,Distractor1.bmp,lime,Target2.bmp,,,,TrialProc,,TrainingTrialList,0,2,-999999,1,427463,0,1,596,428059,Target2.bmp,lime,2,,,,6,5,87
KW_Experiment5A,33,1,"<?xml version=""1.0""?>\n<Clock xmlns:dt=""urn:schemas-microsoft-com:datatypes""><Description dt:dt=""string"">E-Prime Primary Realtime Clock</Description><StartTime><Timestamp dt:dt=""int"">0</Timestamp><DateUtc dt:dt=""string"">2018-10-18T20:20:11Z</DateUtc></StartTime><FrequencyChanges><FrequencyChange><Frequency dt:dt=""r8"">3215292</Frequency><Timestamp dt:dt=""r8"">6164390183149</Timestamp><Current dt:dt=""r8"">0</Current><DateUtc dt:dt=""string"">2018-10-18T20:20:11Z</DateUtc></FrequencyChange></FrequencyChanges></Clock>\n",KW_Experiment5A-33-1,59.945,1.0.0.105,2,1112533151,Professional,2.0.10.353,2.0.10.353,10/18/2018,10/18/2018 20:20,16:20:12,2.0.10.248,3,2,1,3,,,,,,,,TrainingProc,BlockList,40,2,Distractor2.bmp,2,0,,0,1,429081,601,,0,0,yellow,600,3,600,,horizontal,yellow,Distractor1.bmp,cyan,Distractor2.bmp,purple,Distractor1.bmp,blue,Distractor1.bmp,red,Target2.bmp,lime,Distractor2.bmp,,,,TrialProc,2,TrainingTrialList,1,2,-999999,1,429682,0,2,785,430467,Target2.bmp,red,2,,,,11,5,88
KW_Experiment5A,33,1,"<?xml version=""1.0""?>\n<Clock xmlns:dt=""urn:schemas-microsoft-com:datatypes""><Description dt:dt=""string"">E-Prime Primary Realtime Clock</Description><StartTime><Timestamp dt:dt=""int"">0</Timestamp><DateUtc dt:dt=""string"">2018-10-18T20:20:11Z</DateUtc></StartTime><FrequencyChanges><FrequencyChange><Frequency dt:dt=""r8"">3215292</Frequency><Timestamp dt:dt=""r8"">6164390183149</Timestamp><Current dt:dt=""r8"">0</Current><DateUtc dt:dt=""string"">2018-10-18T20:20:11Z</DateUtc></FrequencyChange></FrequencyChanges></Clock>\n",KW_Experiment5A-33-1,59.945,1.0.0.105,2,1112533151,Professional,2.0.10.353,2.0.10.353,10/18/2018,10/18/2018 20:20,16:20:12,2.0.10.248,3,2,1,3,,,,,,,,TrainingProc,BlockList,41,1,Distractor2.bmp,2,0,,0,1,431483,601,,0,0,cyan,600,3,600,,vertical,cyan,Distractor2.bmp,lime,Distractor2.bmp,purple,Distractor2.bmp,blue,Distractor1.bmp,yellow,Distractor2.bmp,red,Target1.bmp,,,,TrialProc,4,TrainingTrialList,1,1,-999999,1,432084,0,1,711,432795,Target1.bmp,red,1,,,,12,5,89
KW_Experiment5A,33,1,"<?xml version=""1.0""?>\n<Clock xmlns:dt=""urn:schemas-microsoft-com:datatypes""><Description dt:dt=""string"">E-Prime Primary Realtime Clock</Description><StartTime><Timestamp dt:dt=""int"">0</Timestamp><DateUtc dt:dt=""string"">2018-10-18T20:20:11Z</DateUtc></StartTime><FrequencyChanges><FrequencyChange><Frequency dt:dt=""r8"">3215292</Frequency><Timestamp dt:dt=""r8"">6164390183149</Timestamp><Current dt:dt=""r8"">0</Current><DateUtc dt:dt=""string"">2018-10-18T20:20:11Z</DateUtc></FrequencyChange></FrequencyChanges></Clock>\n",KW_Experiment5A-33-1,59.945,1.0.0.105,2,1112533151,Professional,2.0.10.353,2.0.10.353,10/18/2018,10/18/2018 20:20,16:20:12,2.0.10.248,3,2,1,3,,,,,,,,TrainingProc,BlockList,42,2,Distractor2.bmp,2,0,,0,1,433819,400,,0,0,purple,400,1,400,,horizontal,purple,Distractor2.bmp,yellow,Distractor1.bmp,lime,Distractor1.bmp,cyan,Distractor1.bmp,blue,Distractor2.bmp,red,Target2.bmp,,,,TrialProc,5,TrainingTrialList,1,2,-999999,0,434219,0,2,616,434835,Target2.bmp,red,2,,,,12,5,90
