ExperimentName,Subject,Session,Clock.Information,DataFile.Basename,Display.RefreshRate,ExperimentVersion,Group,RandomSeed,RuntimeCapabilities,RuntimeVersion,RuntimeVersionExpected,SessionDate,SessionStartDateTimeUtc,SessionTime,StudioVersion,Block,BlockList,BlockList.Cycle,BlockList.Sample,PostTestQ1.RESP,PostTestQ1CJ.RESP,PostTestQ2.RESP,PostTestQ2CJ.RESP,PostTestQ3.RESP,PostTestQ3CJ.RESP,PostTestSlide.RESP,Procedure[Block],Running[Block],Trial,CorrectResponse,Distractor,DistractorList,Fixation.ACC,Fixation.CRESP,Fixation.DurationError,Fixation.OnsetDelay,Fixation.OnsetTime,Fixation.OnsetToOnsetTime,Fixation.RESP,Fixation.RT,Fixation.RTTime,ItemColor,Jitter,JitterList,JitterTime,Lime0List,Orientation,Pos1Color,Pos1Item,Pos2Color,Pos2Item,Pos3Color,Pos3Item,Pos4Color,Pos4Item,Pos5Color,Pos5Item,Pos6Color,Pos6Item,PracticeTrialList,PracticeTrialList.Cycle,PracticeTrialList.Sample,Procedure[Trial],Red0List,Running[Trial],Stimulus.ACC,Stimulus.CRESP,Stimulus.DurationError,Stimulus.OnsetDelay,Stimulus.OnsetTime,Stimulus.OnsetToOnsetTime,Stimulus.RESP,Stimulus.RT,Stimulus.RTTime,Target,TargetColor,TargetList,TestTrialList,TestTrialList.Cycle,TestTrialList.Sample,TrainingTrialList,TrainingTrialList.Cycle,TrainingTrialList.Sample
KW_Experiment5A,31,1,"<?xml version=""1.0""?>\n<Clock xmlns:dt=""urn:schemas-microsoft-com:datatypes""><Description dt:dt=""string"">E-Prime Primary Realtime Clock</Description><StartTime><Timestamp dt:dt=""int"">0</Timestamp><DateUtc dt:dt=""string"">2018-10-18T19:45:41Z</DateUtc></StartTime><FrequencyChanges><FrequencyChange><Frequency dt:dt=""r8"">3215292</Frequency><Timestamp dt:dt=""r8"">6157732696525</Timestamp><Current dt:dt=""r8"">0</Current><DateUtc dt:dt=""string"">2018-10-18T19:45:41Z</DateUtc></FrequencyChange></FrequencyChanges></Clock>\n",KW_Experiment5A-31-1,59.946,1.0.0.105,2,-1249772156,Professional,2.0.10.353,2.0.10.353,10/18/2018,10/18/2018 19:45,15:45:41,2.0.10.248,1,1,1,1,,,,,,,,PracticeProc,BlockList,1,2,Distractor1.bmp,1,0,,0,36,164090,601,,0,0,purple,600,3,600,5,horizontal,cyan,Distractor2.bmp,purple,Distractor1.bmp,lime,Target2.bmp,blue,Distractor1.bmp,yellow,Distractor2.bmp,red,Distractor1.bmp,3,1,1,TrialProc,,PracticeTrialList,1,2,-999999,1,164691,0,2,2451,167142,Target2.bmp,lime,2,,,,,,
KW_Experiment5A,31,1,"<?xml version=""1.0""?>\n<Clock xmlns:dt=""urn:schemas-microsoft-com:datatypes""><Description dt:dt=""string"">E-Prime Primary Realtime Clock</Description><StartTime><Timestamp dt:dt=""int"">0</Timestamp><DateUtc dt:dt=""string"">2018-10-18T19:45:41Z</DateUtc></StartTime><FrequencyChanges><FrequencyChange><Frequency dt:dt=""r8"">3215292</Frequency><Timestamp dt:dt=""r8"">6157732696525</Timestamp><Current dt:dt=""r8"">0</Current><DateUtc dt:dt=""string"">2018-10-18T19:45:41Z</DateUtc></FrequencyChange></FrequencyChanges></Clock>\n",KW_Experiment5A-31-1,59.946,1.0.0.105,2,-1249772156,Professional,2.0.10.353,2.0.10.353,10/18/2018,10/18/2018 19:45,15:45:41,2.0.10.248,1,1,1,1,,,,,,,,PracticeProc,BlockList,2,1,Distractor1.bmp,1,0,,0,1,168161,400,,0,0,yellow,400,1,400,,vertical,cyan,Distractor1.bmp,purple,Distractor2.bmp,blue,Distractor2.bmp,lime,Distractor2.bmp,yellow,Distractor2.bmp,red,Target1.bmp,6,1,2,TrialProc,2,PracticeTrialList,1,1,-999999,0,168561,0,1,925,169486,Target1.bmp,red,1,,,,,,
KW_Experiment5A,31,1,"<?xml version=""1.0""?>\n<Clock xmlns:dt=""urn:schemas-microsoft-com:datatypes""><Description dt:dt=""string"">E-Prime Primary Realtime Clock</Description><StartTime><Timestamp dt:dt=""int"">0</Timestamp><DateUtc dt:dt=""string"">2018-10-18T19:45:41Z</DateUtc></StartTime><FrequencyChanges><FrequencyChange><Frequency dt:dt=""r8"">3215292</Frequency><Timestamp dt:dt=""r8"">6157732696525</Timestamp><Current dt:dt=""r8"">0</Current><DateUtc dt:dt=""string"">2018-10-18T19:45:41Z</DateUtc></FrequencyChange></FrequencyChanges></Clock>\n",KW_Experiment5A-31-1,59.946,1.0.0.105,2,-1249772156,Professional,2.0.10.353,2.0.10.353,10/18/2018,10/18/2018 19:45,15:45:41,2.0.10.248,1,1,1,1,,,,,,,,PracticeProc,BlockList,3,2,Distractor1.bmp,1,0,,0,1,170496,601,,0,0,purple,600,3,600,,horizontal,cyan,Distractor1.bmp,blue,Distractor1.bmp,purple,Distractor1.bmp,red,Target2.bmp,lime,Distractor1.bmp,yellow,Distractor2.bmp,4,1,3,TrialProc,5,PracticeTrialList,1,2,-999999,1,171097,0,2,717,171814,Target2.bmp,red,2,,,,,,
KW_Experiment5A,31,1,"<?xml version=""1.0""?>\n<Clock xmlns:dt=""urn:schemas-microsoft-com:datatypes""><Description dt:dt=""string"">E-Prime Primary Realtime Clock</Description><StartTime><Timestamp dt:dt=""int"">0</Timestamp><DateUtc dt:dt=""string"">2018-10-18T19:45:41Z</DateUtc></StartTime><FrequencyChanges><FrequencyChange><Frequency dt:dt=""r8"">3215292</Frequency><Timestamp dt:dt=""r8"">6157732696525</Timestamp><Current dt:dt=""r8"">0</Current><DateUtc dt:dt=""string"">2018-10-18T19:45:41Z</DateUtc></FrequencyChange></FrequencyChanges></Clock>\n",KW_Experiment5A-31-1,59.946,1.0.0.105,2,-1249772156,Professional,2.0.10.353,2.0.10.353,10/18/2018,10/18/2018 19:45,15:45:41,2.0.10.248,1,1,1,1,,,,,,,,PracticeProc,BlockList,4,2,Distractor1.bmp,1,0,,0,1,172832,500,,0,0,purple,500,2,500,5,horizontal,lime,Target2.bmp,cyan,Distractor1.bmp,blue,Distractor2.bmp,yellow,Distractor1.bmp,red,Distractor2.bmp,purple,Distractor1.bmp,1,1,4,TrialProc,,PracticeTrialList,1,2,-999999,0,173332,0,2,1130,174462,Target2.bmp,lime,2,,,,,,
KW_Experiment5A,31,1,"<?xml version=""1.0""?>\n<Clock xmlns:dt=""urn:schemas-microsoft-com:datatypes""><Description dt:dt=""string"">E-Prime Primary Realtime Clock</Description><StartTime><Timestamp dt:dt=""int"">0</Timestamp><DateUtc dt:dt=""string"">2018-10-18T19:45:41Z</DateUtc></StartTime><FrequencyChanges><FrequencyChange><Frequency dt:dt=""r8"">3215292</Frequency><Timestamp dt:dt=""r8"">6157732696525</Timestamp><Current dt:dt=""r8"">0</Current><DateUtc dt:dt=""string"">2018-10-18T19:45:41Z</DateUtc></FrequencyChange></FrequencyChanges></Clock>\n",KW_Experiment5A-31-1,59.946,1.0.0.105,2,-1249772156,Professional,2.0.10.353,2.0.10.353,10/18/2018,10/18/2018 19:45,15:45:41,2.0.10.248,1,1,1,1,,,,,,,,PracticeProc,BlockList,5,1,Distractor1.bmp,1,0,,0,1,175484,501,,0,0,cyan,500,2,500,,vertical,cyan,Distractor1.bmp,red,Target1.bmp,purple,Distractor1.bmp,lime,Distractor1.bmp,yellow,Distractor1.bmp,blue,Distractor1.bmp,2,1,5,TrialProc,4,PracticeTrialList,1,1,-999999,1,175985,0,1,989,176974,Target1.bmp,red,1,,,,,,
KW_Experiment5A,31,1,"<?xml version=""1.0""?>\n<Clock xmlns:dt=""urn:schemas-microsoft-com:datatypes""><Description dt:dt=""string"">E-Prime Primary Realtime Clock</Description><StartTime><Timestamp dt:dt=""int"">0</Timestamp><DateUtc dt:dt=""string"">2018-10-18T19:45:41Z</DateUtc></StartTime><FrequencyChanges><FrequencyChange><Frequency dt:dt=""r8"">3215292</Frequency><Timestamp dt:dt=""r8"">6157732696525</Timestamp><Current dt:dt=""r8"">0</Current><DateUtc dt:dt=""string"">2018-10-18T19:45:41Z</DateUtc></FrequencyChange></FrequencyChanges></Clock>\n",KW_Experiment5A-31-1,59.946,1.0.0.105,2,-1249772156,Professional,2.0.10.353,2.0.10.353,10/18/2018,10/18/2018 19:45,15:45:41,2.0.10.248,1,1,1,1,,,,,,,,PracticeProc,BlockList,6,1,Distractor2.bmp,2,0,,0,1,178003,400,,0,0,blue,400,1,400,3,vertical,purple,Distractor2.bmp,cyan,Distractor2.bmp,yellow,Distractor1.bmp,blue,Distractor2.bmp,lime,Target1.bmp,red,Distractor2.bmp,5,1,6,TrialProc,,PracticeTrialList,1,1,-999999,0,178403,0,1,1219,179622,Target1.bmp,lime,1,,,,,,
KW_Experiment5A,31,1,"<?xml version=""1.0""?>\n<Clock xmlns:dt=""urn:schemas-microsoft-com:datatypes""><Description dt:dt=""string"">E-Prime Primary Realtime Clock</Description><StartTime><Timestamp dt:dt=""int"">0</Timestamp><DateUtc dt:dt=""string"">2018-10-18T19:45:41Z</DateUtc></StartTime><FrequencyChanges><FrequencyChange><Frequency dt:dt=""r8"">3215292</Frequency><Timestamp dt:dt=""r8"">6157732696525</Timestamp><Current dt:dt=""r8"">0</Current><DateUtc dt:dt=""string"">2018-10-18T19:45:41Z</DateUtc></FrequencyChange></FrequencyChanges></Clock>\n",KW_Experiment5A-31-1,59.946,1.0.0.105,2,-1249772156,Professional,2.0.10.353,2.0.10.353,10/18/2018,10/18/2018 19:45,15:45:41,2.0.10.248,2,2,1,2,,,,,,,,TrainingProc,BlockList,1,2,Distractor1.bmp,1,0,,0,35,186961,601,,0,0,lime,600,3,600,,horizontal,lime,Distractor2.bmp,cyan,Distractor2.bmp,blue,Distractor2.bmp,purple,Distractor1.bmp,red,Target2.bmp,yellow,Distractor1.bmp,,,,TrialProc,6,TrainingTrialList,1,2,-999999,1,187562,0,2,836,188398,Target2.bmp,red,2,,,,11,2,1
KW_Experiment5A,31,1,"<?xml version=""1.0""?>\n<Clock xmlns:dt=""urn:schemas-microsoft-com:datatypes""><Description dt:dt=""string"">E-Prime Primary Realtime Clock</Description><StartTime><Timestamp dt:dt=""int"">0</Timestamp><DateUtc dt:dt=""string"">2018-10-18T19:45:41Z</DateUtc></StartTime><FrequencyChanges><FrequencyChange><Frequency dt:dt=""r8"">3215292</Frequency><Timestamp dt:dt=""r8"">6157732696525</Timestamp><Current dt:dt=""r8"">0</Current><DateUtc dt:dt=""string"">2018-10-18T19:45:41Z</DateUtc></FrequencyChange></FrequencyChanges></Clock>\n",KW_Experiment5A-31-1,59.946,1.0.0.105,2,-1249772156,Professional,2.0.10.353,2.0.10.353,10/18/2018,10/18/2018 19:45,15:45:41,2.0.10.248,2,2,1,2,,,,,,,,TrainingProc,BlockList,2,1,Distractor2.bmp,2,0,,0,1,189413,501,,0,0,yellow,500,2,500,,vertical,yellow,Distractor1.bmp,purple,Distractor1.bmp,cyan,Distractor1.bmp,red,Target1.bmp,lime,Distractor2.bmp,blue,Distractor1.bmp,,,,TrialProc,2,TrainingTrialList,1,1,-999999,1,189914,0,1,668,190582,Target1.bmp,red,1,,,,10,2,2
KW_Experiment5A,31,1,"<?xml version=""1.0""?>\n<Clock xmlns:dt=""urn:schemas-microsoft-com:datatypes""><Description dt:dt=""string"">E-Prime Primary Realtime Clock</Description><StartTime><Timestamp dt:dt=""int"">0</Timestamp><DateUtc dt:dt=""string"">2018-10-18T19:45:41Z</DateUtc></StartTime><FrequencyChanges><FrequencyChange><Frequency dt:dt=""r8"">3215292</Frequency><Timestamp dt:dt=""r8"">6157732696525</Timestamp><Current dt:dt=""r8"">0</Current><DateUtc dt:dt=""string"">2018-10-18T19:45:41Z</DateUtc></FrequencyChange></FrequencyChanges></Clock>\n",KW_Experiment5A-31-1,59.946,1.0.0.105,2,-1249772156,Professional,2.0.10.353,2.0.10.353,10/18/2018,10/18/2018 19:45,15:45:41,2.0.10.248,2,2,1,2,,,,,,,,TrainingProc,BlockList,3,2,Distractor1.bmp,1,0,,0,1,191599,600,,0,0,lime,600,3,600,,horizontal,lime,Distractor1.bmp,cyan,Distractor2.bmp,blue,Distractor1.bmp,red,Target2.bmp,purple,Distractor1.bmp,yellow,Distractor2.bmp,,,,TrialProc,6,TrainingTrialList,1,2,-999999,0,192199,0,2,822,193021,Target2.bmp,red,2,,,,10,2,3
KW_Experiment5A,31,1,"<?xml version=""1.0""?>\n<Clock xmlns:dt=""urn:schemas-microsoft-com:datatypes""><Description dt:dt=""string"">E-Prime Primary Realtime Clock</Description><StartTime><Timestamp dt:dt=""int"">0</Timestamp><DateUtc dt:dt=""string"">2018-10-18T19:45:41Z</DateUtc></StartTime><FrequencyChanges><FrequencyChange><Frequency dt:dt=""r8"">3215292</Frequency><Timestamp dt:dt=""r8"">6157732696525</Timestamp><Current dt:dt=""r8"">0</Current><DateUtc dt:dt=""string"">2018-10-18T19:45:41Z</DateUtc></FrequencyChange></FrequencyChanges></Clock>\n",KW_Experiment5A-31-1,59.946,1.0.0.105,2,-1249772156,Professional,2.0.10.353,2.0.10.353,10/18/2018,10/18/2018 19:45,15:45:41,2.0.10.248,2,2,1,2,,,,,,,,TrainingProc,BlockList,4,2,Distractor1.bmp,1,0,,0,1,194034,501,,0,0,lime,500,2,500,,horizontal,lime,Distractor1.bmp,cyan,Distractor1.bmp,red,Target2.bmp,purple,Distractor1.bmp,yellow,Distractor1.bmp,blue,Distractor1.bmp,,,,TrialProc,6,TrainingTrialList,1,2,-999999,1,194535,0,2,646,195181,Target2.bmp,red,2,,,,9,2,4
KW_Experiment5A,31,1,"<?xml version=""1.0""?>\n<Clock xmlns:dt=""urn:schemas-microsoft-com:datatypes""><Description dt:dt=""string"">E-Prime Primary Realtime Clock</Description><StartTime><Timestamp dt:dt=""int"">0</Timestamp><DateUtc dt:dt=""string"">2018-10-18T19:45:41Z</DateUtc></StartTime><FrequencyChanges><FrequencyChange><Frequency dt:dt=""r8"">3215292</Frequency><Timestamp dt:dt=""r8"">6157732696525</Timestamp><Current dt:dt=""r8"">0</Current><DateUtc dt:dt=""string"">2018-10-18T19:45:41Z</DateUtc></FrequencyChange></FrequencyChanges></Clock>\n",KW_Experiment5A-31-1,59.946,1.0.0.105,2,-1249772156,Professional,2.0.10.353,2.0.10.353,10/18/2018,10/18/2018 19:45,15:45:41,2.0.10.248,2,2,1,2,,,,,,,,TrainingProc,BlockList,5,2,Distractor1.bmp,1,0,,0,1,196203,400,,0,0,yellow,400,1,400,2,horizontal,yellow,Distractor1.bmp,purple,Distractor1.bmp,cyan,Distractor2.bmp,red,Distractor2.bmp,blue,Distractor2.bmp,lime,Target2.bmp,,,,TrialProc,,TrainingTrialList,1,2,-999999,0,196603,0,2,986,197589,Target2.bmp,lime,2,,,,6,2,5
KW_Experiment5A,31,1,"<?xml version=""1.0""?>\n<Clock xmlns:dt=""urn:schemas-microsoft-com:datatypes""><Description dt:dt=""string"">E-Prime Primary Realtime Clock</Description><StartTime><Timestamp dt:dt=""int"">0</Timestamp><DateUtc dt:dt=""string"">2018-10-18T19:45:41Z</DateUtc></StartTime><FrequencyChanges><FrequencyChange><Frequency dt:dt=""r8"">3215292</Frequency><Timestamp dt:dt=""r8"">6157732696525</Timestamp><Current dt:dt=""r8"">0</Current><DateUtc dt:dt=""string"">2018-10-18T19:45:41Z</DateUtc></FrequencyChange></FrequencyChanges></Clock>\n",KW_Experiment5A-31-1,59.946,1.0.0.105,2,-1249772156,Professional,2.0.10.353,2.0.10.353,10/18/2018,10/18/2018 19:45,15:45:41,2.0.10.248,2,2,1,2,,,,,,,,TrainingProc,BlockList,6,2,Distractor1.bmp,1,0,,0,1,198605,501,,0,0,purple,500,2,500,5,horizontal,purple,Distractor2.bmp,lime,Target2.bmp,red,Distractor1.bmp,yellow,Distractor1.bmp,cyan,Distractor1.bmp,blue,Distractor1.bmp,,,,TrialProc,,TrainingTrialList,1,2,-999999,1,199106,0,2,771,199877,Target2.bmp,lime,2,,,,2,2,6
KW_Experiment5A,31,1,"<?xml version=""1.0""?>\n<Clock xmlns:dt=""urn:schemas-microsoft-com:datatypes""><Description dt:dt=""string"">E-Prime Primary Realtime Clock</Description><StartTime><Timestamp dt:dt=""int"">0</Timestamp><DateUtc dt:dt=""string"">2018-10-18T19:45:41Z</DateUtc></StartTime><FrequencyChanges><FrequencyChange><Frequency dt:dt=""r8"">3215292</Frequency><Timestamp dt:dt=""r8"">6157732696525</Timestamp><Current dt:dt=""r8"">0</Current><DateUtc dt:dt=""string"">2018-10-18T19:45:41Z</DateUtc></FrequencyChange></FrequencyChanges></Clock>\n",KW_Experiment5A-31-1,59.946,1.0.0.105,2,-1249772156,Professional,2.0.10.353,2.0.10.353,10/18/2018,10/18/2018 19:45,15:45:41,2.0.10.248,2,2,1,2,,,,,,,,TrainingProc,BlockList,7,1,Distractor1.bmp,1,0,,1,0,200890,401,,0,0,cyan,400,1,400,,vertical,red,Target1.bmp,yellow,Distractor1.bmp,blue,Distractor1.bmp,purple,Distractor1.bmp,lime,Distractor1.bmp,cyan,Distractor2.bmp,,,,TrialProc,4,TrainingTrialList,1,1,-999999,1,201291,0,1,530,201821,Target1.bmp,red,1,,,,7,2,7
KW_Experiment5A,31,1,"<?xml version=""1.0""?>\n<Clock xmlns:dt=""urn:schemas-microsoft-com:datatypes""><Description dt:dt=""string"">E-Prime Primary Realtime Clock</Description><StartTime><Timestamp dt:dt=""int"">0</Timestamp><DateUtc dt:dt=""string"">2018-10-18T19:45:41Z</DateUtc></StartTime><FrequencyChanges><FrequencyChange><Frequency dt:dt=""r8"">3215292</Frequency><Timestamp dt:dt=""r8"">6157732696525</Timestamp><Current dt:dt=""r8"">0</Current><DateUtc dt:dt=""string"">2018-10-18T19:45:41Z</DateUtc></FrequencyChange></FrequencyChanges></Clock>\n",KW_Experiment5A-31-1,59.946,1.0.0.105,2,-1249772156,Professional,2.0.10.353,2.0.10.353,10/18/2018,10/18/2018 19:45,15:45:41,2.0.10.248,2,2,1,2,,,,,,,,TrainingProc,BlockList,8,2,Distractor2.bmp,2,0,,0,1,202842,501,,0,0,blue,500,2,500,3,horizontal,lime,Target2.bmp,blue,Distractor2.bmp,yellow,Distractor1.bmp,purple,Distractor2.bmp,red,Distractor1.bmp,cyan,Distractor1.bmp,,,,TrialProc,,TrainingTrialList,0,2,-999999,1,203343,0,1,598,203941,Target2.bmp,lime,2,,,,1,2,8
KW_Experiment5A,31,1,"<?xml version=""1.0""?>\n<Clock xmlns:dt=""urn:schemas-microsoft-com:datatypes""><Description dt:dt=""string"">E-Prime Primary Realtime Clock</Description><StartTime><Timestamp dt:dt=""int"">0</Timestamp><DateUtc dt:dt=""string"">2018-10-18T19:45:41Z</DateUtc></StartTime><FrequencyChanges><FrequencyChange><Frequency dt:dt=""r8"">3215292</Frequency><Timestamp dt:dt=""r8"">6157732696525</Timestamp><Current dt:dt=""r8"">0</Current><DateUtc dt:dt=""string"">2018-10-18T19:45:41Z</DateUtc></FrequencyChange></FrequencyChanges></Clock>\n",KW_Experiment5A-31-1,59.946,1.0.0.105,2,-1249772156,Professional,2.0.10.353,2.0.10.353,10/18/2018,10/18/2018 19:45,15:45:41,2.0.10.248,2,2,1,2,,,,,,,,TrainingProc,BlockList,9,2,Distractor2.bmp,2,0,,0,1,204961,600,,0,0,lime,600,3,600,,horizontal,red,Target2.bmp,yellow,Distractor2.bmp,blue,Distractor2.bmp,purple,Distractor2.bmp,cyan,Distractor2.bmp,lime,Distractor1.bmp,,,,TrialProc,6,TrainingTrialList,1,2,-999999,0,205561,0,2,524,206085,Target2.bmp,red,2,,,,7,2,9
KW_Experiment5A,31,1,"<?xml version=""1.0""?>\n<Clock xmlns:dt=""urn:schemas-microsoft-com:datatypes""><Description dt:dt=""string"">E-Prime Primary Realtime Clock</Description><StartTime><Timestamp dt:dt=""int"">0</Timestamp><DateUtc dt:dt=""string"">2018-10-18T19:45:41Z</DateUtc></StartTime><FrequencyChanges><FrequencyChange><Frequency dt:dt=""r8"">3215292</Frequency><Timestamp dt:dt=""r8"">6157732696525</Timestamp><Current dt:dt=""r8"">0</Current><DateUtc dt:dt=""string"">2018-10-18T19:45:41Z</DateUtc></FrequencyChange></FrequencyChanges></Clock>\n",KW_Experiment5A-31-1,59.946,1.0.0.105,2,-1249772156,Professional,2.0.10.353,2.0.10.353,10/18/2018,10/18/2018 19:45,15:45:41,2.0.10.248,2,2,1,2,,,,,,,,TrainingProc,BlockList,10,1,Distractor2.bmp,2,0,,0,1,207113,600,,0,0,cyan,600,3,600,,vertical,cyan,Distractor2.bmp,yellow,Distractor1.bmp,red,Target1.bmp,lime,Distractor2.bmp,blue,Distractor1.bmp,purple,Distractor2.bmp,,,,TrialProc,4,TrainingTrialList,1,1,-999999,0,207713,0,1,788,208501,Target1.bmp,red,1,,,,9,2,10
KW_Experiment5A,31,1,"<?xml version=""1.0""?>\n<Clock xmlns:dt=""urn:schemas-microsoft-com:datatypes""><Description dt:dt=""string"">E-Prime Primary Realtime Clock</Description><StartTime><Timestamp dt:dt=""int"">0</Timestamp><DateUtc dt:dt=""string"">2018-10-18T19:45:41Z</DateUtc></StartTime><FrequencyChanges><FrequencyChange><Frequency dt:dt=""r8"">3215292</Frequency><Timestamp dt:dt=""r8"">6157732696525</Timestamp><Current dt:dt=""r8"">0</Current><DateUtc dt:dt=""string"">2018-10-18T19:45:41Z</DateUtc></FrequencyChange></FrequencyChanges></Clock>\n",KW_Experiment5A-31-1,59.946,1.0.0.105,2,-1249772156,Professional,2.0.10.353,2.0.10.353,10/18/2018,10/18/2018 19:45,15:45:41,2.0.10.248,2,2,1,2,,,,,,,,TrainingProc,BlockList,11,1,Distractor2.bmp,2,0,,0,1,209515,600,,0,0,blue,600,3,600,3,vertical,blue,Distractor1.bmp,cyan,Distractor2.bmp,yellow,Distractor1.bmp,red,Distractor2.bmp,lime,Target1.bmp,purple,Distractor2.bmp,,,,TrialProc,,TrainingTrialList,1,1,-999999,0,210115,0,1,1186,211301,Target1.bmp,lime,1,,,,5,2,11
KW_Experiment5A,31,1,"<?xml version=""1.0""?>\n<Clock xmlns:dt=""urn:schemas-microsoft-com:datatypes""><Description dt:dt=""string"">E-Prime Primary Realtime Clock</Description><StartTime><Timestamp dt:dt=""int"">0</Timestamp><DateUtc dt:dt=""string"">2018-10-18T19:45:41Z</DateUtc></StartTime><FrequencyChanges><FrequencyChange><Frequency dt:dt=""r8"">3215292</Frequency><Timestamp dt:dt=""r8"">6157732696525</Timestamp><Current dt:dt=""r8"">0</Current><DateUtc dt:dt=""string"">2018-10-18T19:45:41Z</DateUtc></FrequencyChange></FrequencyChanges></Clock>\n",KW_Experiment5A-31-1,59.946,1.0.0.105,2,-1249772156,Professional,2.0.10.353,2.0.10.353,10/18/2018,10/18/2018 19:45,15:45:41,2.0.10.248,2,2,1,2,,,,,,,,TrainingProc,BlockList,12,2,Distractor1.bmp,1,0,,1,0,212317,401,,0,0,lime,400,1,400,,horizontal,lime,Distractor1.bmp,red,Target2.bmp,blue,Distractor1.bmp,purple,Distractor2.bmp,cyan,Distractor1.bmp,yellow,Distractor2.bmp,,,,TrialProc,6,TrainingTrialList,1,2,-999999,1,212718,0,2,575,213293,Target2.bmp,red,2,,,,8,2,12
KW_Experiment5A,31,1,"<?xml version=""1.0""?>\n<Clock xmlns:dt=""urn:schemas-microsoft-com:datatypes""><Description dt:dt=""string"">E-Prime Primary Realtime Clock</Description><StartTime><Timestamp dt:dt=""int"">0</Timestamp><DateUtc dt:dt=""string"">2018-10-18T19:45:41Z</DateUtc></StartTime><FrequencyChanges><FrequencyChange><Frequency dt:dt=""r8"">3215292</Frequency><Timestamp dt:dt=""r8"">6157732696525</Timestamp><Current dt:dt=""r8"">0</Current><DateUtc dt:dt=""string"">2018-10-18T19:45:41Z</DateUtc></FrequencyChange></FrequencyChanges></Clock>\n",KW_Experiment5A-31-1,59.946,1.0.0.105,2,-1249772156,Professional,2.0.10.353,2.0.10.353,10/18/2018,10/18/2018 19:45,15:45:41,2.0.10.248,2,2,1,2,,,,,,,,TrainingProc,BlockList,13,2,Distractor1.bmp,1,0,,0,1,214319,501,,0,0,lime,500,2,500,,horizontal,lime,Distractor1.bmp,yellow,Distractor1.bmp,purple,Distractor1.bmp,blue,Distractor2.bmp,cyan,Distractor1.bmp,red,Target2.bmp,,,,TrialProc,6,TrainingTrialList,1,2,-999999,1,214820,0,2,721,215541,Target2.bmp,red,2,,,,12,2,13
KW_Experiment5A,31,1,"<?xml version=""1.0""?>\n<Clock xmlns:dt=""urn:schemas-microsoft-com:datatypes""><Description dt:dt=""string"">E-Prime Primary Realtime Clock</Description><StartTime><Timestamp dt:dt=""int"">0</Timestamp><DateUtc dt:dt=""string"">2018-10-18T19:45:41Z</DateUtc></StartTime><FrequencyChanges><FrequencyChange><Frequency dt:dt=""r8"">3215292</Frequency><Timestamp dt:dt=""r8"">6157732696525</Timestamp><Current dt:dt=""r8"">0</Current><DateUtc dt:dt=""string"">2018-10-18T19:45:41Z</DateUtc></FrequencyChange></FrequencyChanges></Clock>\n",KW_Experiment5A-31-1,59.946,1.0.0.105,2,-1249772156,Professional,2.0.10.353,2.0.10.353,10/18/2018,10/18/2018 19:45,15:45:41,2.0.10.248,2,2,1,2,,,,,,,,TrainingProc,BlockList,14,2,Distractor1.bmp,1,0,,0,1,216555,600,,0,0,purple,600,3,600,,horizontal,red,Target2.bmp,blue,Distractor1.bmp,yellow,Distractor2.bmp,cyan,Distractor1.bmp,lime,Distractor1.bmp,purple,Distractor1.bmp,,,,TrialProc,5,TrainingTrialList,1,2,-999999,0,217155,0,2,762,217917,Target2.bmp,red,2,,,,7,2,14
KW_Experiment5A,31,1,"<?xml version=""1.0""?>\n<Clock xmlns:dt=""urn:schemas-microsoft-com:datatypes""><Description dt:dt=""string"">E-Prime Primary Realtime Clock</Description><StartTime><Timestamp dt:dt=""int"">0</Timestamp><DateUtc dt:dt=""string"">2018-10-18T19:45:41Z</DateUtc></StartTime><FrequencyChanges><FrequencyChange><Frequency dt:dt=""r8"">3215292</Frequency><Timestamp dt:dt=""r8"">6157732696525</Timestamp><Current dt:dt=""r8"">0</Current><DateUtc dt:dt=""string"">2018-10-18T19:45:41Z</DateUtc></FrequencyChange></FrequencyChanges></Clock>\n",KW_Experiment5A-31-1,59.946,1.0.0.105,2,-1249772156,Professional,2.0.10.353,2.0.10.353,10/18/2018,10/18/2018 19:45,15:45:41,2.0.10.248,2,2,1,2,,,,,,,,TrainingProc,BlockList,15,1,Distractor2.bmp,2,0,,0,1,218940,401,,0,0,purple,400,1,400,,vertical,purple,Distractor2.bmp,lime,Distractor2.bmp,cyan,Distractor2.bmp,yellow,Distractor1.bmp,red,Target1.bmp,blue,Distractor2.bmp,,,,TrialProc,5,TrainingTrialList,1,1,-999999,1,219341,0,1,592,219933,Target1.bmp,red,1,,,,11,2,15
KW_Experiment5A,31,1,"<?xml version=""1.0""?>\n<Clock xmlns:dt=""urn:schemas-microsoft-com:datatypes""><Description dt:dt=""string"">E-Prime Primary Realtime Clock</Description><StartTime><Timestamp dt:dt=""int"">0</Timestamp><DateUtc dt:dt=""string"">2018-10-18T19:45:41Z</DateUtc></StartTime><FrequencyChanges><FrequencyChange><Frequency dt:dt=""r8"">3215292</Frequency><Timestamp dt:dt=""r8"">6157732696525</Timestamp><Current dt:dt=""r8"">0</Current><DateUtc dt:dt=""string"">2018-10-18T19:45:41Z</DateUtc></FrequencyChange></FrequencyChanges></Clock>\n",KW_Experiment5A-31-1,59.946,1.0.0.105,2,-1249772156,Professional,2.0.10.353,2.0.10.353,10/18/2018,10/18/2018 19:45,15:45:41,2.0.10.248,2,2,1,2,,,,,,,,TrainingProc,BlockList,16,2,Distractor2.bmp,2,0,,0,1,220942,500,,0,0,lime,500,2,500,,horizontal,lime,Distractor2.bmp,purple,Distractor2.bmp,blue,Distractor2.bmp,cyan,Distractor1.bmp,yellow,Distractor2.bmp,red,Target2.bmp,,,,TrialProc,6,TrainingTrialList,1,2,-999999,0,221442,0,2,659,222101,Target2.bmp,red,2,,,,12,2,16
KW_Experiment5A,31,1,"<?xml version=""1.0""?>\n<Clock xmlns:dt=""urn:schemas-microsoft-com:datatypes""><Description dt:dt=""string"">E-Prime Primary Realtime Clock</Description><StartTime><Timestamp dt:dt=""int"">0</Timestamp><DateUtc dt:dt=""string"">2018-10-18T19:45:41Z</DateUtc></StartTime><FrequencyChanges><FrequencyChange><Frequency dt:dt=""r8"">3215292</Frequency><Timestamp dt:dt=""r8"">6157732696525</Timestamp><Current dt:dt=""r8"">0</Current><DateUtc dt:dt=""string"">2018-10-18T19:45:41Z</DateUtc></FrequencyChange></FrequencyChanges></Clock>\n",KW_Experiment5A-31-1,59.946,1.0.0.105,2,-1249772156,Professional,2.0.10.353,2.0.10.353,10/18/2018,10/18/2018 19:45,15:45:41,2.0.10.248,2,2,1,2,,,,,,,,TrainingProc,BlockList,17,1,Distractor2.bmp,2,0,,0,1,223127,501,,0,0,cyan,500,2,500,,vertical,cyan,Distractor2.bmp,red,Target1.bmp,purple,Distractor2.bmp,blue,Distractor2.bmp,yellow,Distractor2.bmp,lime,Distractor1.bmp,,,,TrialProc,4,TrainingTrialList,1,1,-999999,1,223628,0,1,673,224301,Target1.bmp,red,1,,,,8,2,17
KW_Experiment5A,31,1,"<?xml version=""1.0""?>\n<Clock xmlns:dt=""urn:schemas-microsoft-com:datatypes""><Description dt:dt=""string"">E-Prime Primary Realtime Clock</Description><StartTime><Timestamp dt:dt=""int"">0</Timestamp><DateUtc dt:dt=""string"">2018-10-18T19:45:41Z</DateUtc></StartTime><FrequencyChanges><FrequencyChange><Frequency dt:dt=""r8"">3215292</Frequency><Timestamp dt:dt=""r8"">6157732696525</Timestamp><Current dt:dt=""r8"">0</Current><DateUtc dt:dt=""string"">2018-10-18T19:45:41Z</DateUtc></FrequencyChange></FrequencyChanges></Clock>\n",KW_Experiment5A-31-1,59.946,1.0.0.105,2,-1249772156,Professional,2.0.10.353,2.0.10.353,10/18/2018,10/18/2018 19:45,15:45:41,2.0.10.248,2,2,1,2,,,,,,,,TrainingProc,BlockList,18,1,Distractor2.bmp,2,0,,0,1,225313,600,,0,0,lime,600,3,600,,vertical,lime,Distractor1.bmp,cyan,Distractor1.bmp,purple,Distractor2.bmp,red,Target1.bmp,blue,Distractor2.bmp,yellow,Distractor2.bmp,,,,TrialProc,6,TrainingTrialList,1,1,-999999,0,225913,0,1,668,226581,Target1.bmp,red,1,,,,10,2,18
KW_Experiment5A,31,1,"<?xml version=""1.0""?>\n<Clock xmlns:dt=""urn:schemas-microsoft-com:datatypes""><Description dt:dt=""string"">E-Prime Primary Realtime Clock</Description><StartTime><Timestamp dt:dt=""int"">0</Timestamp><DateUtc dt:dt=""string"">2018-10-18T19:45:41Z</DateUtc></StartTime><FrequencyChanges><FrequencyChange><Frequency dt:dt=""r8"">3215292</Frequency><Timestamp dt:dt=""r8"">6157732696525</Timestamp><Current dt:dt=""r8"">0</Current><DateUtc dt:dt=""string"">2018-10-18T19:45:41Z</DateUtc></FrequencyChange></FrequencyChanges></Clock>\n",KW_Experiment5A-31-1,59.946,1.0.0.105,2,-1249772156,Professional,2.0.10.353,2.0.10.353,10/18/2018,10/18/2018 19:45,15:45:41,2.0.10.248,2,2,1,2,,,,,,,,TrainingProc,BlockList,19,2,Distractor2.bmp,2,0,,0,1,227598,400,,0,0,purple,400,1,400,5,horizontal,purple,Distractor2.bmp,blue,Distractor2.bmp,lime,Target2.bmp,cyan,Distractor2.bmp,red,Distractor1.bmp,yellow,Distractor1.bmp,,,,TrialProc,,TrainingTrialList,1,2,-999999,0,227998,0,2,631,228629,Target2.bmp,lime,2,,,,3,2,19
KW_Experiment5A,31,1,"<?xml version=""1.0""?>\n<Clock xmlns:dt=""urn:schemas-microsoft-com:datatypes""><Description dt:dt=""string"">E-Prime Primary Realtime Clock</Description><StartTime><Timestamp dt:dt=""int"">0</Timestamp><DateUtc dt:dt=""string"">2018-10-18T19:45:41Z</DateUtc></StartTime><FrequencyChanges><FrequencyChange><Frequency dt:dt=""r8"">3215292</Frequency><Timestamp dt:dt=""r8"">6157732696525</Timestamp><Current dt:dt=""r8"">0</Current><DateUtc dt:dt=""string"">2018-10-18T19:45:41Z</DateUtc></FrequencyChange></FrequencyChanges></Clock>\n",KW_Experiment5A-31-1,59.946,1.0.0.105,2,-1249772156,Professional,2.0.10.353,2.0.10.353,10/18/2018,10/18/2018 19:45,15:45:41,2.0.10.248,2,2,1,2,,,,,,,,TrainingProc,BlockList,20,1,Distractor1.bmp,1,0,,0,1,229650,600,,0,0,lime,600,3,600,,vertical,lime,Distractor1.bmp,purple,Distractor1.bmp,cyan,Distractor2.bmp,blue,Distractor1.bmp,yellow,Distractor2.bmp,red,Target1.bmp,,,,TrialProc,6,TrainingTrialList,1,1,-999999,0,230250,0,1,571,230821,Target1.bmp,red,1,,,,12,2,20
KW_Experiment5A,31,1,"<?xml version=""1.0""?>\n<Clock xmlns:dt=""urn:schemas-microsoft-com:datatypes""><Description dt:dt=""string"">E-Prime Primary Realtime Clock</Description><StartTime><Timestamp dt:dt=""int"">0</Timestamp><DateUtc dt:dt=""string"">2018-10-18T19:45:41Z</DateUtc></StartTime><FrequencyChanges><FrequencyChange><Frequency dt:dt=""r8"">3215292</Frequency><Timestamp dt:dt=""r8"">6157732696525</Timestamp><Current dt:dt=""r8"">0</Current><DateUtc dt:dt=""string"">2018-10-18T19:45:41Z</DateUtc></FrequencyChange></FrequencyChanges></Clock>\n",KW_Experiment5A-31-1,59.946,1.0.0.105,2,-1249772156,Professional,2.0.10.353,2.0.10.353,10/18/2018,10/18/2018 19:45,15:45:41,2.0.10.248,2,2,1,2,,,,,,,,TrainingProc,BlockList,21,1,Distractor1.bmp,1,0,,0,1,231835,501,,0,0,yellow,500,2,500,,vertical,yellow,Distractor2.bmp,red,Target1.bmp,purple,Distractor1.bmp,lime,Distractor2.bmp,cyan,Distractor1.bmp,blue,Distractor2.bmp,,,,TrialProc,2,TrainingTrialList,1,1,-999999,1,232336,0,1,604,232940,Target1.bmp,red,1,,,,8,2,21
KW_Experiment5A,31,1,"<?xml version=""1.0""?>\n<Clock xmlns:dt=""urn:schemas-microsoft-com:datatypes""><Description dt:dt=""string"">E-Prime Primary Realtime Clock</Description><StartTime><Timestamp dt:dt=""int"">0</Timestamp><DateUtc dt:dt=""string"">2018-10-18T19:45:41Z</DateUtc></StartTime><FrequencyChanges><FrequencyChange><Frequency dt:dt=""r8"">3215292</Frequency><Timestamp dt:dt=""r8"">6157732696525</Timestamp><Current dt:dt=""r8"">0</Current><DateUtc dt:dt=""string"">2018-10-18T19:45:41Z</DateUtc></FrequencyChange></FrequencyChanges></Clock>\n",KW_Experiment5A-31-1,59.946,1.0.0.105,2,-1249772156,Professional,2.0.10.353,2.0.10.353,10/18/2018,10/18/2018 19:45,15:45:41,2.0.10.248,2,2,1,2,,,,,,,,TrainingProc,BlockList,22,1,Distractor1.bmp,1,0,,0,1,233954,400,,0,0,purple,400,1,400,,vertical,purple,Distractor1.bmp,yellow,Distractor1.bmp,blue,Distractor2.bmp,lime,Distractor1.bmp,red,Target1.bmp,cyan,Distractor1.bmp,,,,TrialProc,5,TrainingTrialList,1,1,-999999,0,234354,0,1,586,234940,Target1.bmp,red,1,,,,11,2,22
KW_Experiment5A,31,1,"<?xml version=""1.0""?>\n<Clock xmlns:dt=""urn:schemas-microsoft-com:datatypes""><Description dt:dt=""string"">E-Prime Primary Realtime Clock</Description><StartTime><Timestamp dt:dt=""int"">0</Timestamp><DateUtc dt:dt=""string"">2018-10-18T19:45:41Z</DateUtc></StartTime><FrequencyChanges><FrequencyChange><Frequency dt:dt=""r8"">3215292</Frequency><Timestamp dt:dt=""r8"">6157732696525</Timestamp><Current dt:dt=""r8"">0</Current><DateUtc dt:dt=""string"">2018-10-18T19:45:41Z</DateUtc></FrequencyChange></FrequencyChanges></Clock>\n",KW_Experiment5A-31-1,59.946,1.0.0.105,2,-1249772156,Professional,2.0.10.353,2.0.10.353,10/18/2018,10/18/2018 19:45,15:45:41,2.0.10.248,2,2,1,2,,,,,,,,TrainingProc,BlockList,23,2,Distractor2.bmp,2,0,,0,1,235956,400,,0,0,red,400,1,400,1,horizontal,red,Distractor1.bmp,cyan,Distractor2.bmp,blue,Distractor1.bmp,lime,Target2.bmp,yellow,Distractor2.bmp,purple,Distractor1.bmp,,,,TrialProc,,TrainingTrialList,1,2,-999999,0,236356,0,2,688,237044,Target2.bmp,lime,2,,,,4,2,23
KW_Experiment5A,31,1,"<?xml version=""1.0""?>\n<Clock xmlns:dt=""urn:schemas-microsoft-com:datatypes""><Description dt:dt=""string"">E-Prime Primary Realtime Clock</Description><StartTime><Timestamp dt:dt=""int"">0</Timestamp><DateUtc dt:dt=""string"">2018-10-18T19:45:41Z</DateUtc></StartTime><FrequencyChanges><FrequencyChange><Frequency dt:dt=""r8"">3215292</Frequency><Timestamp dt:dt=""r8"">6157732696525</Timestamp><Current dt:dt=""r8"">0</Current><DateUtc dt:dt=""string"">2018-10-18T19:45:41Z</DateUtc></FrequencyChange></FrequencyChanges></Clock>\n",KW_Experiment5A-31-1,59.946,1.0.0.105,2,-1249772156,Professional,2.0.10.353,2.0.10.353,10/18/2018,10/18/2018 19:45,15:45:41,2.0.10.248,2,2,1,2,,,,,,,,TrainingProc,BlockList,24,2,Distractor1.bmp,1,0,,0,1,238058,400,,0,0,purple,400,1,400,,horizontal,purple,Distractor1.bmp,cyan,Distractor1.bmp,red,Target2.bmp,lime,Distractor1.bmp,yellow,Distractor1.bmp,blue,Distractor2.bmp,,,,TrialProc,5,TrainingTrialList,1,2,-999999,0,238458,0,2,530,238988,Target2.bmp,red,2,,,,9,2,24
KW_Experiment5A,31,1,"<?xml version=""1.0""?>\n<Clock xmlns:dt=""urn:schemas-microsoft-com:datatypes""><Description dt:dt=""string"">E-Prime Primary Realtime Clock</Description><StartTime><Timestamp dt:dt=""int"">0</Timestamp><DateUtc dt:dt=""string"">2018-10-18T19:45:41Z</DateUtc></StartTime><FrequencyChanges><FrequencyChange><Frequency dt:dt=""r8"">3215292</Frequency><Timestamp dt:dt=""r8"">6157732696525</Timestamp><Current dt:dt=""r8"">0</Current><DateUtc dt:dt=""string"">2018-10-18T19:45:41Z</DateUtc></FrequencyChange></FrequencyChanges></Clock>\n",KW_Experiment5A-31-1,59.946,1.0.0.105,2,-1249772156,Professional,2.0.10.353,2.0.10.353,10/18/2018,10/18/2018 19:45,15:45:41,2.0.10.248,2,2,1,2,,,,,,,,TrainingProc,BlockList,25,1,Distractor1.bmp,1,0,,0,1,240009,401,,0,0,blue,400,1,400,,vertical,blue,Distractor2.bmp,yellow,Distractor1.bmp,cyan,Distractor1.bmp,red,Target1.bmp,purple,Distractor1.bmp,lime,Distractor1.bmp,,,,TrialProc,3,TrainingTrialList,1,1,-999999,1,240410,0,1,554,240964,Target1.bmp,red,1,,,,10,3,25
KW_Experiment5A,31,1,"<?xml version=""1.0""?>\n<Clock xmlns:dt=""urn:schemas-microsoft-com:datatypes""><Description dt:dt=""string"">E-Prime Primary Realtime Clock</Description><StartTime><Timestamp dt:dt=""int"">0</Timestamp><DateUtc dt:dt=""string"">2018-10-18T19:45:41Z</DateUtc></StartTime><FrequencyChanges><FrequencyChange><Frequency dt:dt=""r8"">3215292</Frequency><Timestamp dt:dt=""r8"">6157732696525</Timestamp><Current dt:dt=""r8"">0</Current><DateUtc dt:dt=""string"">2018-10-18T19:45:41Z</DateUtc></FrequencyChange></FrequencyChanges></Clock>\n",KW_Experiment5A-31-1,59.946,1.0.0.105,2,-1249772156,Professional,2.0.10.353,2.0.10.353,10/18/2018,10/18/2018 19:45,15:45:41,2.0.10.248,2,2,1,2,,,,,,,,TrainingProc,BlockList,26,2,Distractor1.bmp,1,0,,0,1,241978,600,,0,0,red,600,3,600,1,horizontal,red,Distractor2.bmp,blue,Distractor2.bmp,lime,Target2.bmp,yellow,Distractor1.bmp,purple,Distractor1.bmp,cyan,Distractor1.bmp,,,,TrialProc,,TrainingTrialList,1,2,-999999,0,242578,0,2,514,243092,Target2.bmp,lime,2,,,,3,3,26
KW_Experiment5A,31,1,"<?xml version=""1.0""?>\n<Clock xmlns:dt=""urn:schemas-microsoft-com:datatypes""><Description dt:dt=""string"">E-Prime Primary Realtime Clock</Description><StartTime><Timestamp dt:dt=""int"">0</Timestamp><DateUtc dt:dt=""string"">2018-10-18T19:45:41Z</DateUtc></StartTime><FrequencyChanges><FrequencyChange><Frequency dt:dt=""r8"">3215292</Frequency><Timestamp dt:dt=""r8"">6157732696525</Timestamp><Current dt:dt=""r8"">0</Current><DateUtc dt:dt=""string"">2018-10-18T19:45:41Z</DateUtc></FrequencyChange></FrequencyChanges></Clock>\n",KW_Experiment5A-31-1,59.946,1.0.0.105,2,-1249772156,Professional,2.0.10.353,2.0.10.353,10/18/2018,10/18/2018 19:45,15:45:41,2.0.10.248,2,2,1,2,,,,,,,,TrainingProc,BlockList,27,1,Distractor2.bmp,2,0,,0,1,244113,601,,0,0,purple,600,3,600,,vertical,purple,Distractor2.bmp,red,Target1.bmp,yellow,Distractor2.bmp,blue,Distractor2.bmp,lime,Distractor1.bmp,cyan,Distractor1.bmp,,,,TrialProc,5,TrainingTrialList,1,1,-999999,1,244714,0,1,554,245268,Target1.bmp,red,1,,,,8,3,27
KW_Experiment5A,31,1,"<?xml version=""1.0""?>\n<Clock xmlns:dt=""urn:schemas-microsoft-com:datatypes""><Description dt:dt=""string"">E-Prime Primary Realtime Clock</Description><StartTime><Timestamp dt:dt=""int"">0</Timestamp><DateUtc dt:dt=""string"">2018-10-18T19:45:41Z</DateUtc></StartTime><FrequencyChanges><FrequencyChange><Frequency dt:dt=""r8"">3215292</Frequency><Timestamp dt:dt=""r8"">6157732696525</Timestamp><Current dt:dt=""r8"">0</Current><DateUtc dt:dt=""string"">2018-10-18T19:45:41Z</DateUtc></FrequencyChange></FrequencyChanges></Clock>\n",KW_Experiment5A-31-1,59.946,1.0.0.105,2,-1249772156,Professional,2.0.10.353,2.0.10.353,10/18/2018,10/18/2018 19:45,15:45:41,2.0.10.248,2,2,1,2,,,,,,,,TrainingProc,BlockList,28,2,Distractor2.bmp,2,0,,0,1,246282,500,,0,0,lime,500,2,500,,horizontal,lime,Distractor2.bmp,cyan,Distractor2.bmp,purple,Distractor2.bmp,yellow,Distractor1.bmp,blue,Distractor1.bmp,red,Target2.bmp,,,,TrialProc,6,TrainingTrialList,1,2,-999999,0,246782,0,2,574,247356,Target2.bmp,red,2,,,,12,3,28
KW_Experiment5A,31,1,"<?xml version=""1.0""?>\n<Clock xmlns:dt=""urn:schemas-microsoft-com:datatypes""><Description dt:dt=""string"">E-Prime Primary Realtime Clock</Description><StartTime><Timestamp dt:dt=""int"">0</Timestamp><DateUtc dt:dt=""string"">2018-10-18T19:45:41Z</DateUtc></StartTime><FrequencyChanges><FrequencyChange><Frequency dt:dt=""r8"">3215292</Frequency><Timestamp dt:dt=""r8"">6157732696525</Timestamp><Current dt:dt=""r8"">0</Current><DateUtc dt:dt=""string"">2018-10-18T19:45:41Z</DateUtc></FrequencyChange></FrequencyChanges></Clock>\n",KW_Experiment5A-31-1,59.946,1.0.0.105,2,-1249772156,Professional,2.0.10.353,2.0.10.353,10/18/2018,10/18/2018 19:45,15:45:41,2.0.10.248,2,2,1,2,,,,,,,,TrainingProc,BlockList,29,2,Distractor2.bmp,2,0,,0,1,248367,601,,0,0,cyan,600,3,600,,horizontal,cyan,Distractor2.bmp,blue,Distractor1.bmp,lime,Distractor2.bmp,purple,Distractor2.bmp,red,Target2.bmp,yellow,Distractor2.bmp,,,,TrialProc,4,TrainingTrialList,1,2,-999999,1,248968,0,2,588,249556,Target2.bmp,red,2,,,,11,3,29
KW_Experiment5A,31,1,"<?xml version=""1.0""?>\n<Clock xmlns:dt=""urn:schemas-microsoft-com:datatypes""><Description dt:dt=""string"">E-Prime Primary Realtime Clock</Description><StartTime><Timestamp dt:dt=""int"">0</Timestamp><DateUtc dt:dt=""string"">2018-10-18T19:45:41Z</DateUtc></StartTime><FrequencyChanges><FrequencyChange><Frequency dt:dt=""r8"">3215292</Frequency><Timestamp dt:dt=""r8"">6157732696525</Timestamp><Current dt:dt=""r8"">0</Current><DateUtc dt:dt=""string"">2018-10-18T19:45:41Z</DateUtc></FrequencyChange></FrequencyChanges></Clock>\n",KW_Experiment5A-31-1,59.946,1.0.0.105,2,-1249772156,Professional,2.0.10.353,2.0.10.353,10/18/2018,10/18/2018 19:45,15:45:41,2.0.10.248,2,2,1,2,,,,,,,,TrainingProc,BlockList,30,1,Distractor1.bmp,1,0,,0,1,250569,400,,0,0,blue,400,1,400,,vertical,blue,Distractor2.bmp,purple,Distractor2.bmp,lime,Distractor1.bmp,cyan,Distractor2.bmp,red,Target1.bmp,yellow,Distractor1.bmp,,,,TrialProc,3,TrainingTrialList,1,1,-999999,0,250969,0,1,451,251420,Target1.bmp,red,1,,,,11,3,30
KW_Experiment5A,31,1,"<?xml version=""1.0""?>\n<Clock xmlns:dt=""urn:schemas-microsoft-com:datatypes""><Description dt:dt=""string"">E-Prime Primary Realtime Clock</Description><StartTime><Timestamp dt:dt=""int"">0</Timestamp><DateUtc dt:dt=""string"">2018-10-18T19:45:41Z</DateUtc></StartTime><FrequencyChanges><FrequencyChange><Frequency dt:dt=""r8"">3215292</Frequency><Timestamp dt:dt=""r8"">6157732696525</Timestamp><Current dt:dt=""r8"">0</Current><DateUtc dt:dt=""string"">2018-10-18T19:45:41Z</DateUtc></FrequencyChange></FrequencyChanges></Clock>\n",KW_Experiment5A-31-1,59.946,1.0.0.105,2,-1249772156,Professional,2.0.10.353,2.0.10.353,10/18/2018,10/18/2018 19:45,15:45:41,2.0.10.248,2,2,1,2,,,,,,,,TrainingProc,BlockList,31,1,Distractor1.bmp,1,0,,0,1,252437,401,,0,0,cyan,400,1,400,4,vertical,cyan,Distractor2.bmp,yellow,Distractor2.bmp,red,Distractor1.bmp,lime,Target1.bmp,blue,Distractor1.bmp,purple,Distractor2.bmp,,,,TrialProc,,TrainingTrialList,1,1,-999999,1,252838,0,1,646,253484,Target1.bmp,lime,1,,,,4,3,31
KW_Experiment5A,31,1,"<?xml version=""1.0""?>\n<Clock xmlns:dt=""urn:schemas-microsoft-com:datatypes""><Description dt:dt=""string"">E-Prime Primary Realtime Clock</Description><StartTime><Timestamp dt:dt=""int"">0</Timestamp><DateUtc dt:dt=""string"">2018-10-18T19:45:41Z</DateUtc></StartTime><FrequencyChanges><FrequencyChange><Frequency dt:dt=""r8"">3215292</Frequency><Timestamp dt:dt=""r8"">6157732696525</Timestamp><Current dt:dt=""r8"">0</Current><DateUtc dt:dt=""string"">2018-10-18T19:45:41Z</DateUtc></FrequencyChange></FrequencyChanges></Clock>\n",KW_Experiment5A-31-1,59.946,1.0.0.105,2,-1249772156,Professional,2.0.10.353,2.0.10.353,10/18/2018,10/18/2018 19:45,15:45:41,2.0.10.248,2,2,1,2,,,,,,,,TrainingProc,BlockList,32,2,Distractor2.bmp,2,0,,0,1,254506,600,,0,0,lime,600,3,600,,horizontal,red,Target2.bmp,cyan,Distractor2.bmp,blue,Distractor1.bmp,purple,Distractor1.bmp,yellow,Distractor1.bmp,lime,Distractor2.bmp,,,,TrialProc,6,TrainingTrialList,1,2,-999999,0,255106,0,2,490,255596,Target2.bmp,red,2,,,,7,3,32
KW_Experiment5A,31,1,"<?xml version=""1.0""?>\n<Clock xmlns:dt=""urn:schemas-microsoft-com:datatypes""><Description dt:dt=""string"">E-Prime Primary Realtime Clock</Description><StartTime><Timestamp dt:dt=""int"">0</Timestamp><DateUtc dt:dt=""string"">2018-10-18T19:45:41Z</DateUtc></StartTime><FrequencyChanges><FrequencyChange><Frequency dt:dt=""r8"">3215292</Frequency><Timestamp dt:dt=""r8"">6157732696525</Timestamp><Current dt:dt=""r8"">0</Current><DateUtc dt:dt=""string"">2018-10-18T19:45:41Z</DateUtc></FrequencyChange></FrequencyChanges></Clock>\n",KW_Experiment5A-31-1,59.946,1.0.0.105,2,-1249772156,Professional,2.0.10.353,2.0.10.353,10/18/2018,10/18/2018 19:45,15:45:41,2.0.10.248,2,2,1,2,,,,,,,,TrainingProc,BlockList,33,1,Distractor2.bmp,2,0,,0,1,256608,400,,0,0,yellow,400,1,400,2,vertical,lime,Target1.bmp,yellow,Distractor2.bmp,cyan,Distractor1.bmp,blue,Distractor2.bmp,red,Distractor1.bmp,purple,Distractor1.bmp,,,,TrialProc,,TrainingTrialList,1,1,-999999,0,257008,0,1,572,257580,Target1.bmp,lime,1,,,,1,3,33
KW_Experiment5A,31,1,"<?xml version=""1.0""?>\n<Clock xmlns:dt=""urn:schemas-microsoft-com:datatypes""><Description dt:dt=""string"">E-Prime Primary Realtime Clock</Description><StartTime><Timestamp dt:dt=""int"">0</Timestamp><DateUtc dt:dt=""string"">2018-10-18T19:45:41Z</DateUtc></StartTime><FrequencyChanges><FrequencyChange><Frequency dt:dt=""r8"">3215292</Frequency><Timestamp dt:dt=""r8"">6157732696525</Timestamp><Current dt:dt=""r8"">0</Current><DateUtc dt:dt=""string"">2018-10-18T19:45:41Z</DateUtc></FrequencyChange></FrequencyChanges></Clock>\n",KW_Experiment5A-31-1,59.946,1.0.0.105,2,-1249772156,Professional,2.0.10.353,2.0.10.353,10/18/2018,10/18/2018 19:45,15:45:41,2.0.10.248,2,2,1,2,,,,,,,,TrainingProc,BlockList,34,2,Distractor2.bmp,2,0,,0,1,258593,600,,0,0,yellow,600,3,600,,horizontal,yellow,Distractor2.bmp,purple,Distractor2.bmp,red,Target2.bmp,cyan,Distractor2.bmp,lime,Distractor1.bmp,blue,Distractor2.bmp,,,,TrialProc,2,TrainingTrialList,1,2,-999999,0,259193,0,2,659,259852,Target2.bmp,red,2,,,,9,3,34
KW_Experiment5A,31,1,"<?xml version=""1.0""?>\n<Clock xmlns:dt=""urn:schemas-microsoft-com:datatypes""><Description dt:dt=""string"">E-Prime Primary Realtime Clock</Description><StartTime><Timestamp dt:dt=""int"">0</Timestamp><DateUtc dt:dt=""string"">2018-10-18T19:45:41Z</DateUtc></StartTime><FrequencyChanges><FrequencyChange><Frequency dt:dt=""r8"">3215292</Frequency><Timestamp dt:dt=""r8"">6157732696525</Timestamp><Current dt:dt=""r8"">0</Current><DateUtc dt:dt=""string"">2018-10-18T19:45:41Z</DateUtc></FrequencyChange></FrequencyChanges></Clock>\n",KW_Experiment5A-31-1,59.946,1.0.0.105,2,-1249772156,Professional,2.0.10.353,2.0.10.353,10/18/2018,10/18/2018 19:45,15:45:41,2.0.10.248,2,2,1,2,,,,,,,,TrainingProc,BlockList,35,1,Distractor2.bmp,2,0,,0,1,260862,600,,0,0,yellow,600,3,600,,vertical,yellow,Distractor2.bmp,blue,Distractor1.bmp,purple,Distractor1.bmp,red,Target1.bmp,cyan,Distractor2.bmp,lime,Distractor1.bmp,,,,TrialProc,2,TrainingTrialList,1,1,-999999,0,261462,0,1,454,261916,Target1.bmp,red,1,,,,10,3,35
KW_Experiment5A,31,1,"<?xml version=""1.0""?>\n<Clock xmlns:dt=""urn:schemas-microsoft-com:datatypes""><Description dt:dt=""string"">E-Prime Primary Realtime Clock</Description><StartTime><Timestamp dt:dt=""int"">0</Timestamp><DateUtc dt:dt=""string"">2018-10-18T19:45:41Z</DateUtc></StartTime><FrequencyChanges><FrequencyChange><Frequency dt:dt=""r8"">3215292</Frequency><Timestamp dt:dt=""r8"">6157732696525</Timestamp><Current dt:dt=""r8"">0</Current><DateUtc dt:dt=""string"">2018-10-18T19:45:41Z</DateUtc></FrequencyChange></FrequencyChanges></Clock>\n",KW_Experiment5A-31-1,59.946,1.0.0.105,2,-1249772156,Professional,2.0.10.353,2.0.10.353,10/18/2018,10/18/2018 19:45,15:45:41,2.0.10.248,2,2,1,2,,,,,,,,TrainingProc,BlockList,36,1,Distractor1.bmp,1,0,,0,1,262930,401,,0,0,purple,400,1,400,,vertical,red,Target1.bmp,cyan,Distractor1.bmp,blue,Distractor2.bmp,yellow,Distractor1.bmp,lime,Distractor1.bmp,purple,Distractor1.bmp,,,,TrialProc,5,TrainingTrialList,1,1,-999999,1,263331,0,1,561,263892,Target1.bmp,red,1,,,,7,3,36
KW_Experiment5A,31,1,"<?xml version=""1.0""?>\n<Clock xmlns:dt=""urn:schemas-microsoft-com:datatypes""><Description dt:dt=""string"">E-Prime Primary Realtime Clock</Description><StartTime><Timestamp dt:dt=""int"">0</Timestamp><DateUtc dt:dt=""string"">2018-10-18T19:45:41Z</DateUtc></StartTime><FrequencyChanges><FrequencyChange><Frequency dt:dt=""r8"">3215292</Frequency><Timestamp dt:dt=""r8"">6157732696525</Timestamp><Current dt:dt=""r8"">0</Current><DateUtc dt:dt=""string"">2018-10-18T19:45:41Z</DateUtc></FrequencyChange></FrequencyChanges></Clock>\n",KW_Experiment5A-31-1,59.946,1.0.0.105,2,-1249772156,Professional,2.0.10.353,2.0.10.353,10/18/2018,10/18/2018 19:45,15:45:41,2.0.10.248,2,2,1,2,,,,,,,,TrainingProc,BlockList,37,2,Distractor1.bmp,1,0,,0,1,264915,401,,0,0,purple,400,1,400,5,horizontal,purple,Distractor1.bmp,red,Distractor2.bmp,blue,Distractor1.bmp,yellow,Distractor1.bmp,cyan,Distractor1.bmp,lime,Target2.bmp,,,,TrialProc,,TrainingTrialList,1,2,-999999,1,265316,0,2,656,265972,Target2.bmp,lime,2,,,,6,3,37
KW_Experiment5A,31,1,"<?xml version=""1.0""?>\n<Clock xmlns:dt=""urn:schemas-microsoft-com:datatypes""><Description dt:dt=""string"">E-Prime Primary Realtime Clock</Description><StartTime><Timestamp dt:dt=""int"">0</Timestamp><DateUtc dt:dt=""string"">2018-10-18T19:45:41Z</DateUtc></StartTime><FrequencyChanges><FrequencyChange><Frequency dt:dt=""r8"">3215292</Frequency><Timestamp dt:dt=""r8"">6157732696525</Timestamp><Current dt:dt=""r8"">0</Current><DateUtc dt:dt=""string"">2018-10-18T19:45:41Z</DateUtc></FrequencyChange></FrequencyChanges></Clock>\n",KW_Experiment5A-31-1,59.946,1.0.0.105,2,-1249772156,Professional,2.0.10.353,2.0.10.353,10/18/2018,10/18/2018 19:45,15:45:41,2.0.10.248,2,2,1,2,,,,,,,,TrainingProc,BlockList,38,2,Distractor2.bmp,2,0,,0,1,266984,600,,0,0,purple,600,3,600,,horizontal,purple,Distractor2.bmp,red,Target2.bmp,lime,Distractor2.bmp,yellow,Distractor2.bmp,cyan,Distractor1.bmp,blue,Distractor1.bmp,,,,TrialProc,5,TrainingTrialList,1,2,-999999,0,267584,0,2,524,268108,Target2.bmp,red,2,,,,8,3,38
KW_Experiment5A,31,1,"<?xml version=""1.0""?>\n<Clock xmlns:dt=""urn:schemas-microsoft-com:datatypes""><Description dt:dt=""string"">E-Prime Primary Realtime Clock</Description><StartTime><Timestamp dt:dt=""int"">0</Timestamp><DateUtc dt:dt=""string"">2018-10-18T19:45:41Z</DateUtc></StartTime><FrequencyChanges><FrequencyChange><Frequency dt:dt=""r8"">3215292</Frequency><Timestamp dt:dt=""r8"">6157732696525</Timestamp><Current dt:dt=""r8"">0</Current><DateUtc dt:dt=""string"">2018-10-18T19:45:41Z</DateUtc></FrequencyChange></FrequencyChanges></Clock>\n",KW_Experiment5A-31-1,59.946,1.0.0.105,2,-1249772156,Professional,2.0.10.353,2.0.10.353,10/18/2018,10/18/2018 19:45,15:45:41,2.0.10.248,2,2,1,2,,,,,,,,TrainingProc,BlockList,39,2,Distractor2.bmp,2,0,,0,1,269119,400,,0,0,blue,400,1,400,,horizontal,blue,Distractor2.bmp,red,Target2.bmp,lime,Distractor2.bmp,purple,Distractor2.bmp,yellow,Distractor1.bmp,cyan,Distractor2.bmp,,,,TrialProc,3,TrainingTrialList,1,2,-999999,0,269519,0,2,389,269908,Target2.bmp,red,2,,,,8,3,39
KW_Experiment5A,31,1,"<?xml version=""1.0""?>\n<Clock xmlns:dt=""urn:schemas-microsoft-com:datatypes""><Description dt:dt=""string"">E-Prime Primary Realtime Clock</Description><StartTime><Timestamp dt:dt=""int"">0</Timestamp><DateUtc dt:dt=""string"">2018-10-18T19:45:41Z</DateUtc></StartTime><FrequencyChanges><FrequencyChange><Frequency dt:dt=""r8"">3215292</Frequency><Timestamp dt:dt=""r8"">6157732696525</Timestamp><Current dt:dt=""r8"">0</Current><DateUtc dt:dt=""string"">2018-10-18T19:45:41Z</DateUtc></FrequencyChange></FrequencyChanges></Clock>\n",KW_Experiment5A-31-1,59.946,1.0.0.105,2,-1249772156,Professional,2.0.10.353,2.0.10.353,10/18/2018,10/18/2018 19:45,15:45:41,2.0.10.248,2,2,1,2,,,,,,,,TrainingProc,BlockList,40,2,Distractor1.bmp,1,0,,0,1,270921,500,,0,0,yellow,500,2,500,,horizontal,yellow,Distractor1.bmp,blue,Distractor2.bmp,red,Target2.bmp,cyan,Distractor1.bmp,lime,Distractor2.bmp,purple,Distractor2.bmp,,,,TrialProc,2,TrainingTrialList,1,2,-999999,0,271421,0,2,598,272019,Target2.bmp,red,2,,,,9,3,40
KW_Experiment5A,31,1,"<?xml version=""1.0""?>\n<Clock xmlns:dt=""urn:schemas-microsoft-com:datatypes""><Description dt:dt=""string"">E-Prime Primary Realtime Clock</Description><StartTime><Timestamp dt:dt=""int"">0</Timestamp><DateUtc dt:dt=""string"">2018-10-18T19:45:41Z</DateUtc></StartTime><FrequencyChanges><FrequencyChange><Frequency dt:dt=""r8"">3215292</Frequency><Timestamp dt:dt=""r8"">6157732696525</Timestamp><Current dt:dt=""r8"">0</Current><DateUtc dt:dt=""string"">2018-10-18T19:45:41Z</DateUtc></FrequencyChange></FrequencyChanges></Clock>\n",KW_Experiment5A-31-1,59.946,1.0.0.105,2,-1249772156,Professional,2.0.10.353,2.0.10.353,10/18/2018,10/18/2018 19:45,15:45:41,2.0.10.248,2,2,1,2,,,,,,,,TrainingProc,BlockList,41,2,Distractor1.bmp,1,0,,0,1,273039,501,,0,0,blue,500,2,500,,horizontal,blue,Distractor1.bmp,yellow,Distractor1.bmp,purple,Distractor1.bmp,red,Target2.bmp,lime,Distractor1.bmp,cyan,Distractor2.bmp,,,,TrialProc,3,TrainingTrialList,1,2,-999999,1,273540,0,2,575,274115,Target2.bmp,red,2,,,,10,3,41
KW_Experiment5A,31,1,"<?xml version=""1.0""?>\n<Clock xmlns:dt=""urn:schemas-microsoft-com:datatypes""><Description dt:dt=""string"">E-Prime Primary Realtime Clock</Description><StartTime><Timestamp dt:dt=""int"">0</Timestamp><DateUtc dt:dt=""string"">2018-10-18T19:45:41Z</DateUtc></StartTime><FrequencyChanges><FrequencyChange><Frequency dt:dt=""r8"">3215292</Frequency><Timestamp dt:dt=""r8"">6157732696525</Timestamp><Current dt:dt=""r8"">0</Current><DateUtc dt:dt=""string"">2018-10-18T19:45:41Z</DateUtc></FrequencyChange></FrequencyChanges></Clock>\n",KW_Experiment5A-31-1,59.946,1.0.0.105,2,-1249772156,Professional,2.0.10.353,2.0.10.353,10/18/2018,10/18/2018 19:45,15:45:41,2.0.10.248,2,2,1,2,,,,,,,,TrainingProc,BlockList,42,2,Distractor1.bmp,1,0,,0,1,275125,500,,0,0,purple,500,2,500,,horizontal,purple,Distractor1.bmp,yellow,Distractor2.bmp,cyan,Distractor2.bmp,lime,Distractor2.bmp,blue,Distractor1.bmp,red,Target2.bmp,,,,TrialProc,5,TrainingTrialList,0,2,-999999,0,275625,0,1,506,276131,Target2.bmp,red,2,,,,12,3,42
KW_Experiment5A,31,1,"<?xml version=""1.0""?>\n<Clock xmlns:dt=""urn:schemas-microsoft-com:datatypes""><Description dt:dt=""string"">E-Prime Primary Realtime Clock</Description><StartTime><Timestamp dt:dt=""int"">0</Timestamp><DateUtc dt:dt=""string"">2018-10-18T19:45:41Z</DateUtc></StartTime><FrequencyChanges><FrequencyChange><Frequency dt:dt=""r8"">3215292</Frequency><Timestamp dt:dt=""r8"">6157732696525</Timestamp><Current dt:dt=""r8"">0</Current><DateUtc dt:dt=""string"">2018-10-18T19:45:41Z</DateUtc></FrequencyChange></FrequencyChanges></Clock>\n",KW_Experiment5A-31-1,59.946,1.0.0.105,2,-1249772156,Professional,2.0.10.353,2.0.10.353,10/18/2018,10/18/2018 19:45,15:45:41,2.0.10.248,2,2,1,2,,,,,,,,TrainingProc,BlockList,43,2,Distractor2.bmp,2,0,,0,1,277143,400,,0,0,red,400,1,400,1,horizontal,red,Distractor1.bmp,blue,Distractor1.bmp,purple,Distractor2.bmp,yellow,Distractor2.bmp,lime,Target2.bmp,cyan,Distractor2.bmp,,,,TrialProc,,TrainingTrialList,1,2,-999999,0,277543,0,2,636,278179,Target2.bmp,lime,2,,,,5,3,43
KW_Experiment5A,31,1,"<?xml version=""1.0""?>\n<Clock xmlns:dt=""urn:schemas-microsoft-com:datatypes""><Description dt:dt=""string"">E-Prime Primary Realtime Clock</Description><StartTime><Timestamp dt:dt=""int"">0</Timestamp><DateUtc dt:dt=""string"">2018-10-18T19:45:41Z</DateUtc></StartTime><FrequencyChanges><FrequencyChange><Frequency dt:dt=""r8"">3215292</Frequency><Timestamp dt:dt=""r8"">6157732696525</Timestamp><Current dt:dt=""r8"">0</Current><DateUtc dt:dt=""string"">2018-10-18T19:45:41Z</DateUtc></FrequencyChange></FrequencyChanges></Clock>\n",KW_Experiment5A-31-1,59.946,1.0.0.105,2,-1249772156,Professional,2.0.10.353,2.0.10.353,10/18/2018,10/18/2018 19:45,15:45:41,2.0.10.248,2,2,1,2,,,,,,,,TrainingProc,BlockList,44,2,Distractor1.bmp,1,0,,0,1,279195,500,,0,0,lime,500,2,500,,horizontal,lime,Distractor1.bmp,purple,Distractor2.bmp,cyan,Distractor2.bmp,blue,Distractor2.bmp,yellow,Distractor1.bmp,red,Target2.bmp,,,,TrialProc,6,TrainingTrialList,1,2,-999999,0,279695,0,2,540,280235,Target2.bmp,red,2,,,,12,3,44
KW_Experiment5A,31,1,"<?xml version=""1.0""?>\n<Clock xmlns:dt=""urn:schemas-microsoft-com:datatypes""><Description dt:dt=""string"">E-Prime Primary Realtime Clock</Description><StartTime><Timestamp dt:dt=""int"">0</Timestamp><DateUtc dt:dt=""string"">2018-10-18T19:45:41Z</DateUtc></StartTime><FrequencyChanges><FrequencyChange><Frequency dt:dt=""r8"">3215292</Frequency><Timestamp dt:dt=""r8"">6157732696525</Timestamp><Current dt:dt=""r8"">0</Current><DateUtc dt:dt=""string"">2018-10-18T19:45:41Z</DateUtc></FrequencyChange></FrequencyChanges></Clock>\n",KW_Experiment5A-31-1,59.946,1.0.0.105,2,-1249772156,Professional,2.0.10.353,2.0.10.353,10/18/2018,10/18/2018 19:45,15:45:41,2.0.10.248,2,2,1,2,,,,,,,,TrainingProc,BlockList,45,2,Distractor2.bmp,2,0,,0,1,281247,400,,0,0,purple,400,1,400,,horizontal,purple,Distractor2.bmp,yellow,Distractor1.bmp,lime,Distractor2.bmp,blue,Distractor2.bmp,red,Target2.bmp,cyan,Distractor2.bmp,,,,TrialProc,5,TrainingTrialList,1,2,-999999,0,281647,0,2,548,282195,Target2.bmp,red,2,,,,11,3,45
KW_Experiment5A,31,1,"<?xml version=""1.0""?>\n<Clock xmlns:dt=""urn:schemas-microsoft-com:datatypes""><Description dt:dt=""string"">E-Prime Primary Realtime Clock</Description><StartTime><Timestamp dt:dt=""int"">0</Timestamp><DateUtc dt:dt=""string"">2018-10-18T19:45:41Z</DateUtc></StartTime><FrequencyChanges><FrequencyChange><Frequency dt:dt=""r8"">3215292</Frequency><Timestamp dt:dt=""r8"">6157732696525</Timestamp><Current dt:dt=""r8"">0</Current><DateUtc dt:dt=""string"">2018-10-18T19:45:41Z</DateUtc></FrequencyChange></FrequencyChanges></Clock>\n",KW_Experiment5A-31-1,59.946,1.0.0.105,2,-1249772156,Professional,2.0.10.353,2.0.10.353,10/18/2018,10/18/2018 19:45,15:45:41,2.0.10.248,2,2,1,2,,,,,,,,TrainingProc,BlockList,46,2,Distractor1.bmp,1,0,,0,1,283215,501,,0,0,cyan,500,2,500,,horizontal,cyan,Distractor2.bmp,lime,Distractor2.bmp,red,Target2.bmp,blue,Distractor1.bmp,yellow,Distractor1.bmp,purple,Distractor1.bmp,,,,TrialProc,4,TrainingTrialList,1,2,-999999,1,283716,0,2,687,284403,Target2.bmp,red,2,,,,9,3,46
KW_Experiment5A,31,1,"<?xml version=""1.0""?>\n<Clock xmlns:dt=""urn:schemas-microsoft-com:datatypes""><Description dt:dt=""string"">E-Prime Primary Realtime Clock</Description><StartTime><Timestamp dt:dt=""int"">0</Timestamp><DateUtc dt:dt=""string"">2018-10-18T19:45:41Z</DateUtc></StartTime><FrequencyChanges><FrequencyChange><Frequency dt:dt=""r8"">3215292</Frequency><Timestamp dt:dt=""r8"">6157732696525</Timestamp><Current dt:dt=""r8"">0</Current><DateUtc dt:dt=""string"">2018-10-18T19:45:41Z</DateUtc></FrequencyChange></FrequencyChanges></Clock>\n",KW_Experiment5A-31-1,59.946,1.0.0.105,2,-1249772156,Professional,2.0.10.353,2.0.10.353,10/18/2018,10/18/2018 19:45,15:45:41,2.0.10.248,2,2,1,2,,,,,,,,TrainingProc,BlockList,47,2,Distractor2.bmp,2,0,,0,1,285417,501,,0,0,red,500,2,500,1,horizontal,red,Distractor2.bmp,lime,Target2.bmp,yellow,Distractor2.bmp,purple,Distractor2.bmp,blue,Distractor2.bmp,cyan,Distractor1.bmp,,,,TrialProc,,TrainingTrialList,1,2,-999999,1,285918,0,2,701,286619,Target2.bmp,lime,2,,,,2,3,47
KW_Experiment5A,31,1,"<?xml version=""1.0""?>\n<Clock xmlns:dt=""urn:schemas-microsoft-com:datatypes""><Description dt:dt=""string"">E-Prime Primary Realtime Clock</Description><StartTime><Timestamp dt:dt=""int"">0</Timestamp><DateUtc dt:dt=""string"">2018-10-18T19:45:41Z</DateUtc></StartTime><FrequencyChanges><FrequencyChange><Frequency dt:dt=""r8"">3215292</Frequency><Timestamp dt:dt=""r8"">6157732696525</Timestamp><Current dt:dt=""r8"">0</Current><DateUtc dt:dt=""string"">2018-10-18T19:45:41Z</DateUtc></FrequencyChange></FrequencyChanges></Clock>\n",KW_Experiment5A-31-1,59.946,1.0.0.105,2,-1249772156,Professional,2.0.10.353,2.0.10.353,10/18/2018,10/18/2018 19:45,15:45:41,2.0.10.248,2,2,1,2,,,,,,,,TrainingProc,BlockList,48,1,Distractor1.bmp,1,0,,0,1,287636,600,,0,0,yellow,600,3,600,,vertical,red,Target1.bmp,blue,Distractor1.bmp,cyan,Distractor1.bmp,lime,Distractor1.bmp,purple,Distractor2.bmp,yellow,Distractor1.bmp,,,,TrialProc,2,TrainingTrialList,1,1,-999999,0,288236,0,1,479,288715,Target1.bmp,red,1,,,,7,3,48
KW_Experiment5A,31,1,"<?xml version=""1.0""?>\n<Clock xmlns:dt=""urn:schemas-microsoft-com:datatypes""><Description dt:dt=""string"">E-Prime Primary Realtime Clock</Description><StartTime><Timestamp dt:dt=""int"">0</Timestamp><DateUtc dt:dt=""string"">2018-10-18T19:45:41Z</DateUtc></StartTime><FrequencyChanges><FrequencyChange><Frequency dt:dt=""r8"">3215292</Frequency><Timestamp dt:dt=""r8"">6157732696525</Timestamp><Current dt:dt=""r8"">0</Current><DateUtc dt:dt=""string"">2018-10-18T19:45:41Z</DateUtc></FrequencyChange></FrequencyChanges></Clock>\n",KW_Experiment5A-31-1,59.946,1.0.0.105,2,-1249772156,Professional,2.0.10.353,2.0.10.353,10/18/2018,10/18/2018 19:45,15:45:41,2.0.10.248,3,2,1,3,,,,,,,,TrainingProc,BlockList,1,2,Distractor2.bmp,2,0,,0,26,291957,400,,0,0,lime,400,1,400,,horizontal,lime,Distractor2.bmp,red,Target2.bmp,purple,Distractor2.bmp,blue,Distractor2.bmp,yellow,Distractor1.bmp,cyan,Distractor2.bmp,,,,TrialProc,6,TrainingTrialList,1,2,-999999,0,292357,0,2,574,292931,Target2.bmp,red,2,,,,8,4,49
KW_Experiment5A,31,1,"<?xml version=""1.0""?>\n<Clock xmlns:dt=""urn:schemas-microsoft-com:datatypes""><Description dt:dt=""string"">E-Prime Primary Realtime Clock</Description><StartTime><Timestamp dt:dt=""int"">0</Timestamp><DateUtc dt:dt=""string"">2018-10-18T19:45:41Z</DateUtc></StartTime><FrequencyChanges><FrequencyChange><Frequency dt:dt=""r8"">3215292</Frequency><Timestamp dt:dt=""r8"">6157732696525</Timestamp><Current dt:dt=""r8"">0</Current><DateUtc dt:dt=""string"">2018-10-18T19:45:41Z</DateUtc></FrequencyChange></FrequencyChanges></Clock>\n",KW_Experiment5A-31-1,59.946,1.0.0.105,2,-1249772156,Professional,2.0.10.353,2.0.10.353,10/18/2018,10/18/2018 19:45,15:45:41,2.0.10.248,3,2,1,3,,,,,,,,TrainingProc,BlockList,2,1,Distractor1.bmp,1,0,,0,1,293942,600,,0,0,yellow,600,3,600,2,vertical,yellow,Distractor2.bmp,lime,Target1.bmp,cyan,Distractor1.bmp,blue,Distractor1.bmp,purple,Distractor1.bmp,red,Distractor1.bmp,,,,TrialProc,,TrainingTrialList,1,1,-999999,0,294542,0,1,549,295091,Target1.bmp,lime,1,,,,2,4,50
KW_Experiment5A,31,1,"<?xml version=""1.0""?>\n<Clock xmlns:dt=""urn:schemas-microsoft-com:datatypes""><Description dt:dt=""string"">E-Prime Primary Realtime Clock</Description><StartTime><Timestamp dt:dt=""int"">0</Timestamp><DateUtc dt:dt=""string"">2018-10-18T19:45:41Z</DateUtc></StartTime><FrequencyChanges><FrequencyChange><Frequency dt:dt=""r8"">3215292</Frequency><Timestamp dt:dt=""r8"">6157732696525</Timestamp><Current dt:dt=""r8"">0</Current><DateUtc dt:dt=""string"">2018-10-18T19:45:41Z</DateUtc></FrequencyChange></FrequencyChanges></Clock>\n",KW_Experiment5A-31-1,59.946,1.0.0.105,2,-1249772156,Professional,2.0.10.353,2.0.10.353,10/18/2018,10/18/2018 19:45,15:45:41,2.0.10.248,3,2,1,3,,,,,,,,TrainingProc,BlockList,3,1,Distractor1.bmp,1,0,,0,1,296110,401,,0,0,purple,400,1,400,,vertical,purple,Distractor2.bmp,cyan,Distractor2.bmp,blue,Distractor2.bmp,yellow,Distractor1.bmp,red,Target1.bmp,lime,Distractor1.bmp,,,,TrialProc,5,TrainingTrialList,1,1,-999999,1,296511,0,1,748,297259,Target1.bmp,red,1,,,,11,4,51
KW_Experiment5A,31,1,"<?xml version=""1.0""?>\n<Clock xmlns:dt=""urn:schemas-microsoft-com:datatypes""><Description dt:dt=""string"">E-Prime Primary Realtime Clock</Description><StartTime><Timestamp dt:dt=""int"">0</Timestamp><DateUtc dt:dt=""string"">2018-10-18T19:45:41Z</DateUtc></StartTime><FrequencyChanges><FrequencyChange><Frequency dt:dt=""r8"">3215292</Frequency><Timestamp dt:dt=""r8"">6157732696525</Timestamp><Current dt:dt=""r8"">0</Current><DateUtc dt:dt=""string"">2018-10-18T19:45:41Z</DateUtc></FrequencyChange></FrequencyChanges></Clock>\n",KW_Experiment5A-31-1,59.946,1.0.0.105,2,-1249772156,Professional,2.0.10.353,2.0.10.353,10/18/2018,10/18/2018 19:45,15:45:41,2.0.10.248,3,2,1,3,,,,,,,,TrainingProc,BlockList,4,1,Distractor1.bmp,1,0,,0,1,298279,400,,0,0,blue,400,1,400,,vertical,blue,Distractor1.bmp,purple,Distractor2.bmp,lime,Distractor1.bmp,yellow,Distractor1.bmp,cyan,Distractor2.bmp,red,Target1.bmp,,,,TrialProc,3,TrainingTrialList,1,1,-999999,0,298679,0,1,444,299123,Target1.bmp,red,1,,,,12,4,52
KW_Experiment5A,31,1,"<?xml version=""1.0""?>\n<Clock xmlns:dt=""urn:schemas-microsoft-com:datatypes""><Description dt:dt=""string"">E-Prime Primary Realtime Clock</Description><StartTime><Timestamp dt:dt=""int"">0</Timestamp><DateUtc dt:dt=""string"">2018-10-18T19:45:41Z</DateUtc></StartTime><FrequencyChanges><FrequencyChange><Frequency dt:dt=""r8"">3215292</Frequency><Timestamp dt:dt=""r8"">6157732696525</Timestamp><Current dt:dt=""r8"">0</Current><DateUtc dt:dt=""string"">2018-10-18T19:45:41Z</DateUtc></FrequencyChange></FrequencyChanges></Clock>\n",KW_Experiment5A-31-1,59.946,1.0.0.105,2,-1249772156,Professional,2.0.10.353,2.0.10.353,10/18/2018,10/18/2018 19:45,15:45:41,2.0.10.248,3,2,1,3,,,,,,,,TrainingProc,BlockList,5,1,Distractor2.bmp,2,0,,0,1,300147,501,,0,0,red,500,2,500,1,vertical,red,Distractor2.bmp,purple,Distractor2.bmp,blue,Distractor2.bmp,cyan,Distractor1.bmp,yellow,Distractor1.bmp,lime,Target1.bmp,,,,TrialProc,,TrainingTrialList,1,1,-999999,1,300648,0,1,691,301339,Target1.bmp,lime,1,,,,6,4,53
KW_Experiment5A,31,1,"<?xml version=""1.0""?>\n<Clock xmlns:dt=""urn:schemas-microsoft-com:datatypes""><Description dt:dt=""string"">E-Prime Primary Realtime Clock</Description><StartTime><Timestamp dt:dt=""int"">0</Timestamp><DateUtc dt:dt=""string"">2018-10-18T19:45:41Z</DateUtc></StartTime><FrequencyChanges><FrequencyChange><Frequency dt:dt=""r8"">3215292</Frequency><Timestamp dt:dt=""r8"">6157732696525</Timestamp><Current dt:dt=""r8"">0</Current><DateUtc dt:dt=""string"">2018-10-18T19:45:41Z</DateUtc></FrequencyChange></FrequencyChanges></Clock>\n",KW_Experiment5A-31-1,59.946,1.0.0.105,2,-1249772156,Professional,2.0.10.353,2.0.10.353,10/18/2018,10/18/2018 19:45,15:45:41,2.0.10.248,3,2,1,3,,,,,,,,TrainingProc,BlockList,6,1,Distractor1.bmp,1,0,,0,1,302349,601,,0,0,blue,600,3,600,3,vertical,lime,Target1.bmp,blue,Distractor1.bmp,red,Distractor2.bmp,cyan,Distractor1.bmp,yellow,Distractor2.bmp,purple,Distractor2.bmp,,,,TrialProc,,TrainingTrialList,1,1,-999999,1,302950,0,1,581,303531,Target1.bmp,lime,1,,,,1,4,54
KW_Experiment5A,31,1,"<?xml version=""1.0""?>\n<Clock xmlns:dt=""urn:schemas-microsoft-com:datatypes""><Description dt:dt=""string"">E-Prime Primary Realtime Clock</Description><StartTime><Timestamp dt:dt=""int"">0</Timestamp><DateUtc dt:dt=""string"">2018-10-18T19:45:41Z</DateUtc></StartTime><FrequencyChanges><FrequencyChange><Frequency dt:dt=""r8"">3215292</Frequency><Timestamp dt:dt=""r8"">6157732696525</Timestamp><Current dt:dt=""r8"">0</Current><DateUtc dt:dt=""string"">2018-10-18T19:45:41Z</DateUtc></FrequencyChange></FrequencyChanges></Clock>\n",KW_Experiment5A-31-1,59.946,1.0.0.105,2,-1249772156,Professional,2.0.10.353,2.0.10.353,10/18/2018,10/18/2018 19:45,15:45:41,2.0.10.248,3,2,1,3,,,,,,,,TrainingProc,BlockList,7,1,Distractor2.bmp,2,0,,0,1,304551,601,,0,0,purple,600,3,600,,vertical,purple,Distractor1.bmp,blue,Distractor2.bmp,red,Target1.bmp,lime,Distractor2.bmp,yellow,Distractor2.bmp,cyan,Distractor2.bmp,,,,TrialProc,5,TrainingTrialList,0,1,-999999,1,305152,0,2,667,305819,Target1.bmp,red,1,,,,9,4,55
KW_Experiment5A,31,1,"<?xml version=""1.0""?>\n<Clock xmlns:dt=""urn:schemas-microsoft-com:datatypes""><Description dt:dt=""string"">E-Prime Primary Realtime Clock</Description><StartTime><Timestamp dt:dt=""int"">0</Timestamp><DateUtc dt:dt=""string"">2018-10-18T19:45:41Z</DateUtc></StartTime><FrequencyChanges><FrequencyChange><Frequency dt:dt=""r8"">3215292</Frequency><Timestamp dt:dt=""r8"">6157732696525</Timestamp><Current dt:dt=""r8"">0</Current><DateUtc dt:dt=""string"">2018-10-18T19:45:41Z</DateUtc></FrequencyChange></FrequencyChanges></Clock>\n",KW_Experiment5A-31-1,59.946,1.0.0.105,2,-1249772156,Professional,2.0.10.353,2.0.10.353,10/18/2018,10/18/2018 19:45,15:45:41,2.0.10.248,3,2,1,3,,,,,,,,TrainingProc,BlockList,8,1,Distractor1.bmp,1,0,,0,1,306837,400,,0,0,red,400,1,400,1,vertical,red,Distractor1.bmp,purple,Distractor2.bmp,yellow,Distractor1.bmp,lime,Target1.bmp,cyan,Distractor1.bmp,blue,Distractor2.bmp,,,,TrialProc,,TrainingTrialList,1,1,-999999,0,307237,0,1,558,307795,Target1.bmp,lime,1,,,,4,4,56
KW_Experiment5A,31,1,"<?xml version=""1.0""?>\n<Clock xmlns:dt=""urn:schemas-microsoft-com:datatypes""><Description dt:dt=""string"">E-Prime Primary Realtime Clock</Description><StartTime><Timestamp dt:dt=""int"">0</Timestamp><DateUtc dt:dt=""string"">2018-10-18T19:45:41Z</DateUtc></StartTime><FrequencyChanges><FrequencyChange><Frequency dt:dt=""r8"">3215292</Frequency><Timestamp dt:dt=""r8"">6157732696525</Timestamp><Current dt:dt=""r8"">0</Current><DateUtc dt:dt=""string"">2018-10-18T19:45:41Z</DateUtc></FrequencyChange></FrequencyChanges></Clock>\n",KW_Experiment5A-31-1,59.946,1.0.0.105,2,-1249772156,Professional,2.0.10.353,2.0.10.353,10/18/2018,10/18/2018 19:45,15:45:41,2.0.10.248,3,2,1,3,,,,,,,,TrainingProc,BlockList,9,2,Distractor2.bmp,2,0,,0,1,308805,501,,0,0,cyan,500,2,500,,horizontal,red,Target2.bmp,yellow,Distractor2.bmp,lime,Distractor1.bmp,purple,Distractor2.bmp,blue,Distractor1.bmp,cyan,Distractor1.bmp,,,,TrialProc,4,TrainingTrialList,1,2,-999999,1,309306,0,2,545,309851,Target2.bmp,red,2,,,,7,4,57
KW_Experiment5A,31,1,"<?xml version=""1.0""?>\n<Clock xmlns:dt=""urn:schemas-microsoft-com:datatypes""><Description dt:dt=""string"">E-Prime Primary Realtime Clock</Description><StartTime><Timestamp dt:dt=""int"">0</Timestamp><DateUtc dt:dt=""string"">2018-10-18T19:45:41Z</DateUtc></StartTime><FrequencyChanges><FrequencyChange><Frequency dt:dt=""r8"">3215292</Frequency><Timestamp dt:dt=""r8"">6157732696525</Timestamp><Current dt:dt=""r8"">0</Current><DateUtc dt:dt=""string"">2018-10-18T19:45:41Z</DateUtc></FrequencyChange></FrequencyChanges></Clock>\n",KW_Experiment5A-31-1,59.946,1.0.0.105,2,-1249772156,Professional,2.0.10.353,2.0.10.353,10/18/2018,10/18/2018 19:45,15:45:41,2.0.10.248,3,2,1,3,,,,,,,,TrainingProc,BlockList,10,2,Distractor2.bmp,2,0,,0,1,310874,400,,0,0,blue,400,1,400,,horizontal,blue,Distractor2.bmp,purple,Distractor2.bmp,red,Target2.bmp,lime,Distractor2.bmp,yellow,Distractor1.bmp,cyan,Distractor1.bmp,,,,TrialProc,3,TrainingTrialList,1,2,-999999,0,311274,0,2,625,311899,Target2.bmp,red,2,,,,9,4,58
KW_Experiment5A,31,1,"<?xml version=""1.0""?>\n<Clock xmlns:dt=""urn:schemas-microsoft-com:datatypes""><Description dt:dt=""string"">E-Prime Primary Realtime Clock</Description><StartTime><Timestamp dt:dt=""int"">0</Timestamp><DateUtc dt:dt=""string"">2018-10-18T19:45:41Z</DateUtc></StartTime><FrequencyChanges><FrequencyChange><Frequency dt:dt=""r8"">3215292</Frequency><Timestamp dt:dt=""r8"">6157732696525</Timestamp><Current dt:dt=""r8"">0</Current><DateUtc dt:dt=""string"">2018-10-18T19:45:41Z</DateUtc></FrequencyChange></FrequencyChanges></Clock>\n",KW_Experiment5A-31-1,59.946,1.0.0.105,2,-1249772156,Professional,2.0.10.353,2.0.10.353,10/18/2018,10/18/2018 19:45,15:45:41,2.0.10.248,3,2,1,3,,,,,,,,TrainingProc,BlockList,11,1,Distractor2.bmp,2,0,,0,1,312909,400,,0,0,cyan,400,1,400,,vertical,red,Target1.bmp,yellow,Distractor2.bmp,lime,Distractor2.bmp,blue,Distractor2.bmp,purple,Distractor2.bmp,cyan,Distractor1.bmp,,,,TrialProc,4,TrainingTrialList,1,1,-999999,0,313309,0,1,437,313746,Target1.bmp,red,1,,,,7,4,59
KW_Experiment5A,31,1,"<?xml version=""1.0""?>\n<Clock xmlns:dt=""urn:schemas-microsoft-com:datatypes""><Description dt:dt=""string"">E-Prime Primary Realtime Clock</Description><StartTime><Timestamp dt:dt=""int"">0</Timestamp><DateUtc dt:dt=""string"">2018-10-18T19:45:41Z</DateUtc></StartTime><FrequencyChanges><FrequencyChange><Frequency dt:dt=""r8"">3215292</Frequency><Timestamp dt:dt=""r8"">6157732696525</Timestamp><Current dt:dt=""r8"">0</Current><DateUtc dt:dt=""string"">2018-10-18T19:45:41Z</DateUtc></FrequencyChange></FrequencyChanges></Clock>\n",KW_Experiment5A-31-1,59.946,1.0.0.105,2,-1249772156,Professional,2.0.10.353,2.0.10.353,10/18/2018,10/18/2018 19:45,15:45:41,2.0.10.248,3,2,1,3,,,,,,,,TrainingProc,BlockList,12,2,Distractor1.bmp,1,0,,0,1,314761,500,,0,0,cyan,500,2,500,,horizontal,cyan,Distractor1.bmp,yellow,Distractor2.bmp,lime,Distractor2.bmp,red,Target2.bmp,blue,Distractor1.bmp,purple,Distractor2.bmp,,,,TrialProc,4,TrainingTrialList,1,2,-999999,0,315261,0,2,605,315866,Target2.bmp,red,2,,,,10,4,60
KW_Experiment5A,31,1,"<?xml version=""1.0""?>\n<Clock xmlns:dt=""urn:schemas-microsoft-com:datatypes""><Description dt:dt=""string"">E-Prime Primary Realtime Clock</Description><StartTime><Timestamp dt:dt=""int"">0</Timestamp><DateUtc dt:dt=""string"">2018-10-18T19:45:41Z</DateUtc></StartTime><FrequencyChanges><FrequencyChange><Frequency dt:dt=""r8"">3215292</Frequency><Timestamp dt:dt=""r8"">6157732696525</Timestamp><Current dt:dt=""r8"">0</Current><DateUtc dt:dt=""string"">2018-10-18T19:45:41Z</DateUtc></FrequencyChange></FrequencyChanges></Clock>\n",KW_Experiment5A-31-1,59.946,1.0.0.105,2,-1249772156,Professional,2.0.10.353,2.0.10.353,10/18/2018,10/18/2018 19:45,15:45:41,2.0.10.248,3,2,1,3,,,,,,,,TrainingProc,BlockList,13,1,Distractor2.bmp,2,0,,0,1,316879,401,,0,0,blue,400,1,400,,vertical,red,Target1.bmp,purple,Distractor2.bmp,cyan,Distractor2.bmp,lime,Distractor2.bmp,yellow,Distractor1.bmp,blue,Distractor1.bmp,,,,TrialProc,3,TrainingTrialList,1,1,-999999,1,317280,0,1,586,317866,Target1.bmp,red,1,,,,7,4,61
KW_Experiment5A,31,1,"<?xml version=""1.0""?>\n<Clock xmlns:dt=""urn:schemas-microsoft-com:datatypes""><Description dt:dt=""string"">E-Prime Primary Realtime Clock</Description><StartTime><Timestamp dt:dt=""int"">0</Timestamp><DateUtc dt:dt=""string"">2018-10-18T19:45:41Z</DateUtc></StartTime><FrequencyChanges><FrequencyChange><Frequency dt:dt=""r8"">3215292</Frequency><Timestamp dt:dt=""r8"">6157732696525</Timestamp><Current dt:dt=""r8"">0</Current><DateUtc dt:dt=""string"">2018-10-18T19:45:41Z</DateUtc></FrequencyChange></FrequencyChanges></Clock>\n",KW_Experiment5A-31-1,59.946,1.0.0.105,2,-1249772156,Professional,2.0.10.353,2.0.10.353,10/18/2018,10/18/2018 19:45,15:45:41,2.0.10.248,3,2,1,3,,,,,,,,TrainingProc,BlockList,14,1,Distractor2.bmp,2,0,,0,1,318881,400,,0,0,lime,400,1,400,,vertical,lime,Distractor1.bmp,red,Target1.bmp,yellow,Distractor2.bmp,purple,Distractor1.bmp,blue,Distractor1.bmp,cyan,Distractor1.bmp,,,,TrialProc,6,TrainingTrialList,1,1,-999999,0,319281,0,1,625,319906,Target1.bmp,red,1,,,,8,4,62
KW_Experiment5A,31,1,"<?xml version=""1.0""?>\n<Clock xmlns:dt=""urn:schemas-microsoft-com:datatypes""><Description dt:dt=""string"">E-Prime Primary Realtime Clock</Description><StartTime><Timestamp dt:dt=""int"">0</Timestamp><DateUtc dt:dt=""string"">2018-10-18T19:45:41Z</DateUtc></StartTime><FrequencyChanges><FrequencyChange><Frequency dt:dt=""r8"">3215292</Frequency><Timestamp dt:dt=""r8"">6157732696525</Timestamp><Current dt:dt=""r8"">0</Current><DateUtc dt:dt=""string"">2018-10-18T19:45:41Z</DateUtc></FrequencyChange></FrequencyChanges></Clock>\n",KW_Experiment5A-31-1,59.946,1.0.0.105,2,-1249772156,Professional,2.0.10.353,2.0.10.353,10/18/2018,10/18/2018 19:45,15:45:41,2.0.10.248,3,2,1,3,,,,,,,,TrainingProc,BlockList,15,1,Distractor1.bmp,1,0,,0,1,320916,601,,0,0,blue,600,3,600,,vertical,blue,Distractor2.bmp,purple,Distractor1.bmp,yellow,Distractor1.bmp,cyan,Distractor2.bmp,red,Target1.bmp,lime,Distractor1.bmp,,,,TrialProc,3,TrainingTrialList,1,1,-999999,1,321517,0,1,693,322210,Target1.bmp,red,1,,,,11,4,63
KW_Experiment5A,31,1,"<?xml version=""1.0""?>\n<Clock xmlns:dt=""urn:schemas-microsoft-com:datatypes""><Description dt:dt=""string"">E-Prime Primary Realtime Clock</Description><StartTime><Timestamp dt:dt=""int"">0</Timestamp><DateUtc dt:dt=""string"">2018-10-18T19:45:41Z</DateUtc></StartTime><FrequencyChanges><FrequencyChange><Frequency dt:dt=""r8"">3215292</Frequency><Timestamp dt:dt=""r8"">6157732696525</Timestamp><Current dt:dt=""r8"">0</Current><DateUtc dt:dt=""string"">2018-10-18T19:45:41Z</DateUtc></FrequencyChange></FrequencyChanges></Clock>\n",KW_Experiment5A-31-1,59.946,1.0.0.105,2,-1249772156,Professional,2.0.10.353,2.0.10.353,10/18/2018,10/18/2018 19:45,15:45:41,2.0.10.248,3,2,1,3,,,,,,,,TrainingProc,BlockList,16,2,Distractor2.bmp,2,0,,0,1,323235,400,,0,0,purple,400,1,400,,horizontal,purple,Distractor1.bmp,blue,Distractor2.bmp,red,Target2.bmp,cyan,Distractor2.bmp,yellow,Distractor1.bmp,lime,Distractor1.bmp,,,,TrialProc,5,TrainingTrialList,1,2,-999999,0,323635,0,2,431,324066,Target2.bmp,red,2,,,,9,4,64
KW_Experiment5A,31,1,"<?xml version=""1.0""?>\n<Clock xmlns:dt=""urn:schemas-microsoft-com:datatypes""><Description dt:dt=""string"">E-Prime Primary Realtime Clock</Description><StartTime><Timestamp dt:dt=""int"">0</Timestamp><DateUtc dt:dt=""string"">2018-10-18T19:45:41Z</DateUtc></StartTime><FrequencyChanges><FrequencyChange><Frequency dt:dt=""r8"">3215292</Frequency><Timestamp dt:dt=""r8"">6157732696525</Timestamp><Current dt:dt=""r8"">0</Current><DateUtc dt:dt=""string"">2018-10-18T19:45:41Z</DateUtc></FrequencyChange></FrequencyChanges></Clock>\n",KW_Experiment5A-31-1,59.946,1.0.0.105,2,-1249772156,Professional,2.0.10.353,2.0.10.353,10/18/2018,10/18/2018 19:45,15:45:41,2.0.10.248,3,2,1,3,,,,,,,,TrainingProc,BlockList,17,2,Distractor1.bmp,1,0,,0,1,325087,600,,0,0,purple,600,3,600,,horizontal,purple,Distractor1.bmp,blue,Distractor2.bmp,yellow,Distractor1.bmp,red,Target2.bmp,lime,Distractor1.bmp,cyan,Distractor2.bmp,,,,TrialProc,5,TrainingTrialList,0,2,-999999,0,325687,0,1,459,326146,Target2.bmp,red,2,,,,10,4,65
KW_Experiment5A,31,1,"<?xml version=""1.0""?>\n<Clock xmlns:dt=""urn:schemas-microsoft-com:datatypes""><Description dt:dt=""string"">E-Prime Primary Realtime Clock</Description><StartTime><Timestamp dt:dt=""int"">0</Timestamp><DateUtc dt:dt=""string"">2018-10-18T19:45:41Z</DateUtc></StartTime><FrequencyChanges><FrequencyChange><Frequency dt:dt=""r8"">3215292</Frequency><Timestamp dt:dt=""r8"">6157732696525</Timestamp><Current dt:dt=""r8"">0</Current><DateUtc dt:dt=""string"">2018-10-18T19:45:41Z</DateUtc></FrequencyChange></FrequencyChanges></Clock>\n",KW_Experiment5A-31-1,59.946,1.0.0.105,2,-1249772156,Professional,2.0.10.353,2.0.10.353,10/18/2018,10/18/2018 19:45,15:45:41,2.0.10.248,3,2,1,3,,,,,,,,TrainingProc,BlockList,18,1,Distractor1.bmp,1,0,,0,1,327172,600,,0,0,blue,600,3,600,,vertical,blue,Distractor1.bmp,lime,Distractor2.bmp,purple,Distractor1.bmp,yellow,Distractor2.bmp,cyan,Distractor2.bmp,red,Target1.bmp,,,,TrialProc,3,TrainingTrialList,1,1,-999999,0,327772,0,1,534,328306,Target1.bmp,red,1,,,,12,4,66
KW_Experiment5A,31,1,"<?xml version=""1.0""?>\n<Clock xmlns:dt=""urn:schemas-microsoft-com:datatypes""><Description dt:dt=""string"">E-Prime Primary Realtime Clock</Description><StartTime><Timestamp dt:dt=""int"">0</Timestamp><DateUtc dt:dt=""string"">2018-10-18T19:45:41Z</DateUtc></StartTime><FrequencyChanges><FrequencyChange><Frequency dt:dt=""r8"">3215292</Frequency><Timestamp dt:dt=""r8"">6157732696525</Timestamp><Current dt:dt=""r8"">0</Current><DateUtc dt:dt=""string"">2018-10-18T19:45:41Z</DateUtc></FrequencyChange></FrequencyChanges></Clock>\n",KW_Experiment5A-31-1,59.946,1.0.0.105,2,-1249772156,Professional,2.0.10.353,2.0.10.353,10/18/2018,10/18/2018 19:45,15:45:41,2.0.10.248,3,2,1,3,,,,,,,,TrainingProc,BlockList,19,1,Distractor1.bmp,1,0,,0,1,329324,500,,0,0,cyan,500,2,500,4,vertical,cyan,Distractor1.bmp,purple,Distractor1.bmp,lime,Target1.bmp,blue,Distractor1.bmp,red,Distractor2.bmp,yellow,Distractor1.bmp,,,,TrialProc,,TrainingTrialList,1,1,-999999,0,329824,0,1,682,330506,Target1.bmp,lime,1,,,,3,4,67
KW_Experiment5A,31,1,"<?xml version=""1.0""?>\n<Clock xmlns:dt=""urn:schemas-microsoft-com:datatypes""><Description dt:dt=""string"">E-Prime Primary Realtime Clock</Description><StartTime><Timestamp dt:dt=""int"">0</Timestamp><DateUtc dt:dt=""string"">2018-10-18T19:45:41Z</DateUtc></StartTime><FrequencyChanges><FrequencyChange><Frequency dt:dt=""r8"">3215292</Frequency><Timestamp dt:dt=""r8"">6157732696525</Timestamp><Current dt:dt=""r8"">0</Current><DateUtc dt:dt=""string"">2018-10-18T19:45:41Z</DateUtc></FrequencyChange></FrequencyChanges></Clock>\n",KW_Experiment5A-31-1,59.946,1.0.0.105,2,-1249772156,Professional,2.0.10.353,2.0.10.353,10/18/2018,10/18/2018 19:45,15:45:41,2.0.10.248,3,2,1,3,,,,,,,,TrainingProc,BlockList,20,2,Distractor1.bmp,1,0,,0,1,331526,600,,0,0,blue,600,3,600,,horizontal,blue,Distractor1.bmp,red,Target2.bmp,lime,Distractor1.bmp,cyan,Distractor2.bmp,purple,Distractor1.bmp,yellow,Distractor1.bmp,,,,TrialProc,3,TrainingTrialList,1,2,-999999,0,332126,0,2,564,332690,Target2.bmp,red,2,,,,8,4,68
KW_Experiment5A,31,1,"<?xml version=""1.0""?>\n<Clock xmlns:dt=""urn:schemas-microsoft-com:datatypes""><Description dt:dt=""string"">E-Prime Primary Realtime Clock</Description><StartTime><Timestamp dt:dt=""int"">0</Timestamp><DateUtc dt:dt=""string"">2018-10-18T19:45:41Z</DateUtc></StartTime><FrequencyChanges><FrequencyChange><Frequency dt:dt=""r8"">3215292</Frequency><Timestamp dt:dt=""r8"">6157732696525</Timestamp><Current dt:dt=""r8"">0</Current><DateUtc dt:dt=""string"">2018-10-18T19:45:41Z</DateUtc></FrequencyChange></FrequencyChanges></Clock>\n",KW_Experiment5A-31-1,59.946,1.0.0.105,2,-1249772156,Professional,2.0.10.353,2.0.10.353,10/18/2018,10/18/2018 19:45,15:45:41,2.0.10.248,3,2,1,3,,,,,,,,TrainingProc,BlockList,21,2,Distractor1.bmp,1,0,,0,1,333711,501,,0,0,yellow,500,2,500,,horizontal,yellow,Distractor1.bmp,purple,Distractor1.bmp,cyan,Distractor1.bmp,blue,Distractor1.bmp,lime,Distractor2.bmp,red,Target2.bmp,,,,TrialProc,2,TrainingTrialList,1,2,-999999,1,334212,0,2,510,334722,Target2.bmp,red,2,,,,12,4,69
KW_Experiment5A,31,1,"<?xml version=""1.0""?>\n<Clock xmlns:dt=""urn:schemas-microsoft-com:datatypes""><Description dt:dt=""string"">E-Prime Primary Realtime Clock</Description><StartTime><Timestamp dt:dt=""int"">0</Timestamp><DateUtc dt:dt=""string"">2018-10-18T19:45:41Z</DateUtc></StartTime><FrequencyChanges><FrequencyChange><Frequency dt:dt=""r8"">3215292</Frequency><Timestamp dt:dt=""r8"">6157732696525</Timestamp><Current dt:dt=""r8"">0</Current><DateUtc dt:dt=""string"">2018-10-18T19:45:41Z</DateUtc></FrequencyChange></FrequencyChanges></Clock>\n",KW_Experiment5A-31-1,59.946,1.0.0.105,2,-1249772156,Professional,2.0.10.353,2.0.10.353,10/18/2018,10/18/2018 19:45,15:45:41,2.0.10.248,3,2,1,3,,,,,,,,TrainingProc,BlockList,22,2,Distractor2.bmp,2,0,,0,1,335746,601,,0,0,purple,600,3,600,5,horizontal,purple,Distractor2.bmp,blue,Distractor2.bmp,red,Distractor1.bmp,yellow,Distractor2.bmp,lime,Target2.bmp,cyan,Distractor2.bmp,,,,TrialProc,,TrainingTrialList,1,2,-999999,1,336347,0,2,1079,337426,Target2.bmp,lime,2,,,,5,4,70
KW_Experiment5A,31,1,"<?xml version=""1.0""?>\n<Clock xmlns:dt=""urn:schemas-microsoft-com:datatypes""><Description dt:dt=""string"">E-Prime Primary Realtime Clock</Description><StartTime><Timestamp dt:dt=""int"">0</Timestamp><DateUtc dt:dt=""string"">2018-10-18T19:45:41Z</DateUtc></StartTime><FrequencyChanges><FrequencyChange><Frequency dt:dt=""r8"">3215292</Frequency><Timestamp dt:dt=""r8"">6157732696525</Timestamp><Current dt:dt=""r8"">0</Current><DateUtc dt:dt=""string"">2018-10-18T19:45:41Z</DateUtc></FrequencyChange></FrequencyChanges></Clock>\n",KW_Experiment5A-31-1,59.946,1.0.0.105,2,-1249772156,Professional,2.0.10.353,2.0.10.353,10/18/2018,10/18/2018 19:45,15:45:41,2.0.10.248,3,2,1,3,,,,,,,,TrainingProc,BlockList,23,1,Distractor2.bmp,2,0,,0,1,338449,600,,0,0,cyan,600,3,600,,vertical,cyan,Distractor1.bmp,blue,Distractor2.bmp,yellow,Distractor2.bmp,purple,Distractor1.bmp,red,Target1.bmp,lime,Distractor2.bmp,,,,TrialProc,4,TrainingTrialList,1,1,-999999,0,339049,0,1,665,339714,Target1.bmp,red,1,,,,11,4,71
KW_Experiment5A,31,1,"<?xml version=""1.0""?>\n<Clock xmlns:dt=""urn:schemas-microsoft-com:datatypes""><Description dt:dt=""string"">E-Prime Primary Realtime Clock</Description><StartTime><Timestamp dt:dt=""int"">0</Timestamp><DateUtc dt:dt=""string"">2018-10-18T19:45:41Z</DateUtc></StartTime><FrequencyChanges><FrequencyChange><Frequency dt:dt=""r8"">3215292</Frequency><Timestamp dt:dt=""r8"">6157732696525</Timestamp><Current dt:dt=""r8"">0</Current><DateUtc dt:dt=""string"">2018-10-18T19:45:41Z</DateUtc></FrequencyChange></FrequencyChanges></Clock>\n",KW_Experiment5A-31-1,59.946,1.0.0.105,2,-1249772156,Professional,2.0.10.353,2.0.10.353,10/18/2018,10/18/2018 19:45,15:45:41,2.0.10.248,3,2,1,3,,,,,,,,TrainingProc,BlockList,24,1,Distractor1.bmp,1,0,,0,1,340734,601,,0,0,blue,600,3,600,,vertical,blue,Distractor1.bmp,yellow,Distractor2.bmp,purple,Distractor1.bmp,red,Target1.bmp,cyan,Distractor1.bmp,lime,Distractor1.bmp,,,,TrialProc,3,TrainingTrialList,1,1,-999999,1,341335,0,1,603,341938,Target1.bmp,red,1,,,,10,4,72
KW_Experiment5A,31,1,"<?xml version=""1.0""?>\n<Clock xmlns:dt=""urn:schemas-microsoft-com:datatypes""><Description dt:dt=""string"">E-Prime Primary Realtime Clock</Description><StartTime><Timestamp dt:dt=""int"">0</Timestamp><DateUtc dt:dt=""string"">2018-10-18T19:45:41Z</DateUtc></StartTime><FrequencyChanges><FrequencyChange><Frequency dt:dt=""r8"">3215292</Frequency><Timestamp dt:dt=""r8"">6157732696525</Timestamp><Current dt:dt=""r8"">0</Current><DateUtc dt:dt=""string"">2018-10-18T19:45:41Z</DateUtc></FrequencyChange></FrequencyChanges></Clock>\n",KW_Experiment5A-31-1,59.946,1.0.0.105,2,-1249772156,Professional,2.0.10.353,2.0.10.353,10/18/2018,10/18/2018 19:45,15:45:41,2.0.10.248,3,2,1,3,,,,,,,,TrainingProc,BlockList,25,1,Distractor1.bmp,1,0,,0,1,342953,600,,0,0,cyan,600,3,600,,vertical,cyan,Distractor1.bmp,blue,Distractor1.bmp,purple,Distractor1.bmp,yellow,Distractor2.bmp,lime,Distractor2.bmp,red,Target1.bmp,,,,TrialProc,4,TrainingTrialList,1,1,-999999,0,343553,0,1,537,344090,Target1.bmp,red,1,,,,12,5,73
KW_Experiment5A,31,1,"<?xml version=""1.0""?>\n<Clock xmlns:dt=""urn:schemas-microsoft-com:datatypes""><Description dt:dt=""string"">E-Prime Primary Realtime Clock</Description><StartTime><Timestamp dt:dt=""int"">0</Timestamp><DateUtc dt:dt=""string"">2018-10-18T19:45:41Z</DateUtc></StartTime><FrequencyChanges><FrequencyChange><Frequency dt:dt=""r8"">3215292</Frequency><Timestamp dt:dt=""r8"">6157732696525</Timestamp><Current dt:dt=""r8"">0</Current><DateUtc dt:dt=""string"">2018-10-18T19:45:41Z</DateUtc></FrequencyChange></FrequencyChanges></Clock>\n",KW_Experiment5A-31-1,59.946,1.0.0.105,2,-1249772156,Professional,2.0.10.353,2.0.10.353,10/18/2018,10/18/2018 19:45,15:45:41,2.0.10.248,3,2,1,3,,,,,,,,TrainingProc,BlockList,26,2,Distractor1.bmp,1,0,,0,1,345105,600,,0,0,blue,600,3,600,,horizontal,blue,Distractor2.bmp,yellow,Distractor2.bmp,purple,Distractor1.bmp,cyan,Distractor2.bmp,red,Target2.bmp,lime,Distractor1.bmp,,,,TrialProc,3,TrainingTrialList,0,2,-999999,0,345705,0,1,537,346242,Target2.bmp,red,2,,,,11,5,74
KW_Experiment5A,31,1,"<?xml version=""1.0""?>\n<Clock xmlns:dt=""urn:schemas-microsoft-com:datatypes""><Description dt:dt=""string"">E-Prime Primary Realtime Clock</Description><StartTime><Timestamp dt:dt=""int"">0</Timestamp><DateUtc dt:dt=""string"">2018-10-18T19:45:41Z</DateUtc></StartTime><FrequencyChanges><FrequencyChange><Frequency dt:dt=""r8"">3215292</Frequency><Timestamp dt:dt=""r8"">6157732696525</Timestamp><Current dt:dt=""r8"">0</Current><DateUtc dt:dt=""string"">2018-10-18T19:45:41Z</DateUtc></FrequencyChange></FrequencyChanges></Clock>\n",KW_Experiment5A-31-1,59.946,1.0.0.105,2,-1249772156,Professional,2.0.10.353,2.0.10.353,10/18/2018,10/18/2018 19:45,15:45:41,2.0.10.248,3,2,1,3,,,,,,,,TrainingProc,BlockList,27,1,Distractor1.bmp,1,0,,0,1,347257,600,,0,0,blue,600,3,600,,vertical,blue,Distractor2.bmp,purple,Distractor1.bmp,cyan,Distractor1.bmp,red,Target1.bmp,lime,Distractor1.bmp,yellow,Distractor1.bmp,,,,TrialProc,3,TrainingTrialList,1,1,-999999,0,347857,0,1,625,348482,Target1.bmp,red,1,,,,10,5,75
KW_Experiment5A,31,1,"<?xml version=""1.0""?>\n<Clock xmlns:dt=""urn:schemas-microsoft-com:datatypes""><Description dt:dt=""string"">E-Prime Primary Realtime Clock</Description><StartTime><Timestamp dt:dt=""int"">0</Timestamp><DateUtc dt:dt=""string"">2018-10-18T19:45:41Z</DateUtc></StartTime><FrequencyChanges><FrequencyChange><Frequency dt:dt=""r8"">3215292</Frequency><Timestamp dt:dt=""r8"">6157732696525</Timestamp><Current dt:dt=""r8"">0</Current><DateUtc dt:dt=""string"">2018-10-18T19:45:41Z</DateUtc></FrequencyChange></FrequencyChanges></Clock>\n",KW_Experiment5A-31-1,59.946,1.0.0.105,2,-1249772156,Professional,2.0.10.353,2.0.10.353,10/18/2018,10/18/2018 19:45,15:45:41,2.0.10.248,3,2,1,3,,,,,,,,TrainingProc,BlockList,28,1,Distractor1.bmp,1,0,,0,1,349492,401,,0,0,cyan,400,1,400,,vertical,cyan,Distractor1.bmp,blue,Distractor2.bmp,red,Target1.bmp,purple,Distractor1.bmp,lime,Distractor2.bmp,yellow,Distractor1.bmp,,,,TrialProc,4,TrainingTrialList,1,1,-999999,1,349893,0,1,557,350450,Target1.bmp,red,1,,,,9,5,76
KW_Experiment5A,31,1,"<?xml version=""1.0""?>\n<Clock xmlns:dt=""urn:schemas-microsoft-com:datatypes""><Description dt:dt=""string"">E-Prime Primary Realtime Clock</Description><StartTime><Timestamp dt:dt=""int"">0</Timestamp><DateUtc dt:dt=""string"">2018-10-18T19:45:41Z</DateUtc></StartTime><FrequencyChanges><FrequencyChange><Frequency dt:dt=""r8"">3215292</Frequency><Timestamp dt:dt=""r8"">6157732696525</Timestamp><Current dt:dt=""r8"">0</Current><DateUtc dt:dt=""string"">2018-10-18T19:45:41Z</DateUtc></FrequencyChange></FrequencyChanges></Clock>\n",KW_Experiment5A-31-1,59.946,1.0.0.105,2,-1249772156,Professional,2.0.10.353,2.0.10.353,10/18/2018,10/18/2018 19:45,15:45:41,2.0.10.248,3,2,1,3,,,,,,,,TrainingProc,BlockList,29,1,Distractor1.bmp,1,0,,0,1,351461,600,,0,0,lime,600,3,600,,vertical,lime,Distractor2.bmp,yellow,Distractor1.bmp,red,Target1.bmp,cyan,Distractor1.bmp,purple,Distractor2.bmp,blue,Distractor1.bmp,,,,TrialProc,6,TrainingTrialList,1,1,-999999,0,352061,0,1,637,352698,Target1.bmp,red,1,,,,9,5,77
KW_Experiment5A,31,1,"<?xml version=""1.0""?>\n<Clock xmlns:dt=""urn:schemas-microsoft-com:datatypes""><Description dt:dt=""string"">E-Prime Primary Realtime Clock</Description><StartTime><Timestamp dt:dt=""int"">0</Timestamp><DateUtc dt:dt=""string"">2018-10-18T19:45:41Z</DateUtc></StartTime><FrequencyChanges><FrequencyChange><Frequency dt:dt=""r8"">3215292</Frequency><Timestamp dt:dt=""r8"">6157732696525</Timestamp><Current dt:dt=""r8"">0</Current><DateUtc dt:dt=""string"">2018-10-18T19:45:41Z</DateUtc></FrequencyChange></FrequencyChanges></Clock>\n",KW_Experiment5A-31-1,59.946,1.0.0.105,2,-1249772156,Professional,2.0.10.353,2.0.10.353,10/18/2018,10/18/2018 19:45,15:45:41,2.0.10.248,3,2,1,3,,,,,,,,TrainingProc,BlockList,30,1,Distractor2.bmp,2,0,,0,1,353713,600,,0,0,lime,600,3,600,,vertical,red,Target1.bmp,cyan,Distractor2.bmp,blue,Distractor1.bmp,purple,Distractor1.bmp,yellow,Distractor1.bmp,lime,Distractor2.bmp,,,,TrialProc,6,TrainingTrialList,1,1,-999999,0,354313,0,1,640,354953,Target1.bmp,red,1,,,,7,5,78
KW_Experiment5A,31,1,"<?xml version=""1.0""?>\n<Clock xmlns:dt=""urn:schemas-microsoft-com:datatypes""><Description dt:dt=""string"">E-Prime Primary Realtime Clock</Description><StartTime><Timestamp dt:dt=""int"">0</Timestamp><DateUtc dt:dt=""string"">2018-10-18T19:45:41Z</DateUtc></StartTime><FrequencyChanges><FrequencyChange><Frequency dt:dt=""r8"">3215292</Frequency><Timestamp dt:dt=""r8"">6157732696525</Timestamp><Current dt:dt=""r8"">0</Current><DateUtc dt:dt=""string"">2018-10-18T19:45:41Z</DateUtc></FrequencyChange></FrequencyChanges></Clock>\n",KW_Experiment5A-31-1,59.946,1.0.0.105,2,-1249772156,Professional,2.0.10.353,2.0.10.353,10/18/2018,10/18/2018 19:45,15:45:41,2.0.10.248,3,2,1,3,,,,,,,,TrainingProc,BlockList,31,2,Distractor2.bmp,2,0,,0,1,355965,400,,0,0,cyan,400,1,400,,horizontal,red,Target2.bmp,blue,Distractor2.bmp,lime,Distractor2.bmp,purple,Distractor1.bmp,yellow,Distractor1.bmp,cyan,Distractor1.bmp,,,,TrialProc,4,TrainingTrialList,1,2,-999999,0,356365,0,2,684,357049,Target2.bmp,red,2,,,,7,5,79
KW_Experiment5A,31,1,"<?xml version=""1.0""?>\n<Clock xmlns:dt=""urn:schemas-microsoft-com:datatypes""><Description dt:dt=""string"">E-Prime Primary Realtime Clock</Description><StartTime><Timestamp dt:dt=""int"">0</Timestamp><DateUtc dt:dt=""string"">2018-10-18T19:45:41Z</DateUtc></StartTime><FrequencyChanges><FrequencyChange><Frequency dt:dt=""r8"">3215292</Frequency><Timestamp dt:dt=""r8"">6157732696525</Timestamp><Current dt:dt=""r8"">0</Current><DateUtc dt:dt=""string"">2018-10-18T19:45:41Z</DateUtc></FrequencyChange></FrequencyChanges></Clock>\n",KW_Experiment5A-31-1,59.946,1.0.0.105,2,-1249772156,Professional,2.0.10.353,2.0.10.353,10/18/2018,10/18/2018 19:45,15:45:41,2.0.10.248,3,2,1,3,,,,,,,,TrainingProc,BlockList,32,2,Distractor2.bmp,2,0,,0,1,358067,400,,0,0,cyan,400,1,400,4,horizontal,cyan,Distractor1.bmp,red,Distractor1.bmp,purple,Distractor1.bmp,blue,Distractor1.bmp,lime,Target2.bmp,yellow,Distractor2.bmp,,,,TrialProc,,TrainingTrialList,0,2,-999999,0,358467,0,1,758,359225,Target2.bmp,lime,2,,,,5,5,80
KW_Experiment5A,31,1,"<?xml version=""1.0""?>\n<Clock xmlns:dt=""urn:schemas-microsoft-com:datatypes""><Description dt:dt=""string"">E-Prime Primary Realtime Clock</Description><StartTime><Timestamp dt:dt=""int"">0</Timestamp><DateUtc dt:dt=""string"">2018-10-18T19:45:41Z</DateUtc></StartTime><FrequencyChanges><FrequencyChange><Frequency dt:dt=""r8"">3215292</Frequency><Timestamp dt:dt=""r8"">6157732696525</Timestamp><Current dt:dt=""r8"">0</Current><DateUtc dt:dt=""string"">2018-10-18T19:45:41Z</DateUtc></FrequencyChange></FrequencyChanges></Clock>\n",KW_Experiment5A-31-1,59.946,1.0.0.105,2,-1249772156,Professional,2.0.10.353,2.0.10.353,10/18/2018,10/18/2018 19:45,15:45:41,2.0.10.248,3,2,1,3,,,,,,,,TrainingProc,BlockList,33,2,Distractor2.bmp,2,0,,0,1,360252,601,,0,0,purple,600,3,600,,horizontal,red,Target2.bmp,cyan,Distractor2.bmp,blue,Distractor2.bmp,yellow,Distractor1.bmp,lime,Distractor2.bmp,purple,Distractor2.bmp,,,,TrialProc,5,TrainingTrialList,1,2,-999999,1,360853,0,2,796,361649,Target2.bmp,red,2,,,,7,5,81
KW_Experiment5A,31,1,"<?xml version=""1.0""?>\n<Clock xmlns:dt=""urn:schemas-microsoft-com:datatypes""><Description dt:dt=""string"">E-Prime Primary Realtime Clock</Description><StartTime><Timestamp dt:dt=""int"">0</Timestamp><DateUtc dt:dt=""string"">2018-10-18T19:45:41Z</DateUtc></StartTime><FrequencyChanges><FrequencyChange><Frequency dt:dt=""r8"">3215292</Frequency><Timestamp dt:dt=""r8"">6157732696525</Timestamp><Current dt:dt=""r8"">0</Current><DateUtc dt:dt=""string"">2018-10-18T19:45:41Z</DateUtc></FrequencyChange></FrequencyChanges></Clock>\n",KW_Experiment5A-31-1,59.946,1.0.0.105,2,-1249772156,Professional,2.0.10.353,2.0.10.353,10/18/2018,10/18/2018 19:45,15:45:41,2.0.10.248,3,2,1,3,,,,,,,,TrainingProc,BlockList,34,1,Distractor1.bmp,1,0,,0,1,362671,600,,0,0,yellow,600,3,600,2,vertical,lime,Target1.bmp,yellow,Distractor1.bmp,red,Distractor2.bmp,purple,Distractor1.bmp,cyan,Distractor1.bmp,blue,Distractor1.bmp,,,,TrialProc,,TrainingTrialList,1,1,-999999,0,363271,0,1,474,363745,Target1.bmp,lime,1,,,,1,5,82
KW_Experiment5A,31,1,"<?xml version=""1.0""?>\n<Clock xmlns:dt=""urn:schemas-microsoft-com:datatypes""><Description dt:dt=""string"">E-Prime Primary Realtime Clock</Description><StartTime><Timestamp dt:dt=""int"">0</Timestamp><DateUtc dt:dt=""string"">2018-10-18T19:45:41Z</DateUtc></StartTime><FrequencyChanges><FrequencyChange><Frequency dt:dt=""r8"">3215292</Frequency><Timestamp dt:dt=""r8"">6157732696525</Timestamp><Current dt:dt=""r8"">0</Current><DateUtc dt:dt=""string"">2018-10-18T19:45:41Z</DateUtc></FrequencyChange></FrequencyChanges></Clock>\n",KW_Experiment5A-31-1,59.946,1.0.0.105,2,-1249772156,Professional,2.0.10.353,2.0.10.353,10/18/2018,10/18/2018 19:45,15:45:41,2.0.10.248,3,2,1,3,,,,,,,,TrainingProc,BlockList,35,2,Distractor2.bmp,2,0,,0,1,364756,500,,0,0,purple,500,2,500,5,horizontal,purple,Distractor2.bmp,blue,Distractor1.bmp,lime,Target2.bmp,yellow,Distractor2.bmp,cyan,Distractor2.bmp,red,Distractor2.bmp,,,,TrialProc,,TrainingTrialList,1,2,-999999,0,365256,0,2,929,366185,Target2.bmp,lime,2,,,,3,5,83
KW_Experiment5A,31,1,"<?xml version=""1.0""?>\n<Clock xmlns:dt=""urn:schemas-microsoft-com:datatypes""><Description dt:dt=""string"">E-Prime Primary Realtime Clock</Description><StartTime><Timestamp dt:dt=""int"">0</Timestamp><DateUtc dt:dt=""string"">2018-10-18T19:45:41Z</DateUtc></StartTime><FrequencyChanges><FrequencyChange><Frequency dt:dt=""r8"">3215292</Frequency><Timestamp dt:dt=""r8"">6157732696525</Timestamp><Current dt:dt=""r8"">0</Current><DateUtc dt:dt=""string"">2018-10-18T19:45:41Z</DateUtc></FrequencyChange></FrequencyChanges></Clock>\n",KW_Experiment5A-31-1,59.946,1.0.0.105,2,-1249772156,Professional,2.0.10.353,2.0.10.353,10/18/2018,10/18/2018 19:45,15:45:41,2.0.10.248,3,2,1,3,,,,,,,,TrainingProc,BlockList,36,1,Distractor1.bmp,1,0,,0,1,367208,401,,0,0,blue,400,1,400,,vertical,blue,Distractor1.bmp,lime,Distractor2.bmp,purple,Distractor2.bmp,yellow,Distractor2.bmp,cyan,Distractor2.bmp,red,Target1.bmp,,,,TrialProc,3,TrainingTrialList,1,1,-999999,1,367609,0,1,648,368257,Target1.bmp,red,1,,,,12,5,84
KW_Experiment5A,31,1,"<?xml version=""1.0""?>\n<Clock xmlns:dt=""urn:schemas-microsoft-com:datatypes""><Description dt:dt=""string"">E-Prime Primary Realtime Clock</Description><StartTime><Timestamp dt:dt=""int"">0</Timestamp><DateUtc dt:dt=""string"">2018-10-18T19:45:41Z</DateUtc></StartTime><FrequencyChanges><FrequencyChange><Frequency dt:dt=""r8"">3215292</Frequency><Timestamp dt:dt=""r8"">6157732696525</Timestamp><Current dt:dt=""r8"">0</Current><DateUtc dt:dt=""string"">2018-10-18T19:45:41Z</DateUtc></FrequencyChange></FrequencyChanges></Clock>\n",KW_Experiment5A-31-1,59.946,1.0.0.105,2,-1249772156,Professional,2.0.10.353,2.0.10.353,10/18/2018,10/18/2018 19:45,15:45:41,2.0.10.248,3,2,1,3,,,,,,,,TrainingProc,BlockList,37,1,Distractor2.bmp,2,0,,0,1,369277,600,,0,0,yellow,600,3,600,2,vertical,yellow,Distractor1.bmp,lime,Target1.bmp,purple,Distractor2.bmp,red,Distractor2.bmp,cyan,Distractor2.bmp,blue,Distractor2.bmp,,,,TrialProc,,TrainingTrialList,0,1,-999999,0,369877,0,2,980,370857,Target1.bmp,lime,1,,,,2,5,85
KW_Experiment5A,31,1,"<?xml version=""1.0""?>\n<Clock xmlns:dt=""urn:schemas-microsoft-com:datatypes""><Description dt:dt=""string"">E-Prime Primary Realtime Clock</Description><StartTime><Timestamp dt:dt=""int"">0</Timestamp><DateUtc dt:dt=""string"">2018-10-18T19:45:41Z</DateUtc></StartTime><FrequencyChanges><FrequencyChange><Frequency dt:dt=""r8"">3215292</Frequency><Timestamp dt:dt=""r8"">6157732696525</Timestamp><Current dt:dt=""r8"">0</Current><DateUtc dt:dt=""string"">2018-10-18T19:45:41Z</DateUtc></FrequencyChange></FrequencyChanges></Clock>\n",KW_Experiment5A-31-1,59.946,1.0.0.105,2,-1249772156,Professional,2.0.10.353,2.0.10.353,10/18/2018,10/18/2018 19:45,15:45:41,2.0.10.248,3,2,1,3,,,,,,,,TrainingProc,BlockList,38,1,Distractor1.bmp,1,0,,0,1,371879,401,,0,0,blue,400,1,400,,vertical,blue,Distractor2.bmp,red,Target1.bmp,purple,Distractor1.bmp,cyan,Distractor1.bmp,yellow,Distractor1.bmp,lime,Distractor2.bmp,,,,TrialProc,3,TrainingTrialList,1,1,-999999,1,372280,0,1,713,372993,Target1.bmp,red,1,,,,8,5,86
KW_Experiment5A,31,1,"<?xml version=""1.0""?>\n<Clock xmlns:dt=""urn:schemas-microsoft-com:datatypes""><Description dt:dt=""string"">E-Prime Primary Realtime Clock</Description><StartTime><Timestamp dt:dt=""int"">0</Timestamp><DateUtc dt:dt=""string"">2018-10-18T19:45:41Z</DateUtc></StartTime><FrequencyChanges><FrequencyChange><Frequency dt:dt=""r8"">3215292</Frequency><Timestamp dt:dt=""r8"">6157732696525</Timestamp><Current dt:dt=""r8"">0</Current><DateUtc dt:dt=""string"">2018-10-18T19:45:41Z</DateUtc></FrequencyChange></FrequencyChanges></Clock>\n",KW_Experiment5A-31-1,59.946,1.0.0.105,2,-1249772156,Professional,2.0.10.353,2.0.10.353,10/18/2018,10/18/2018 19:45,15:45:41,2.0.10.248,3,2,1,3,,,,,,,,TrainingProc,BlockList,39,1,Distractor2.bmp,2,0,,1,0,374014,401,,0,0,cyan,400,1,400,,vertical,cyan,Distractor1.bmp,lime,Distractor1.bmp,yellow,Distractor2.bmp,purple,Distractor1.bmp,red,Target1.bmp,blue,Distractor2.bmp,,,,TrialProc,4,TrainingTrialList,1,1,-999999,1,374415,0,1,658,375073,Target1.bmp,red,1,,,,11,5,87
KW_Experiment5A,31,1,"<?xml version=""1.0""?>\n<Clock xmlns:dt=""urn:schemas-microsoft-com:datatypes""><Description dt:dt=""string"">E-Prime Primary Realtime Clock</Description><StartTime><Timestamp dt:dt=""int"">0</Timestamp><DateUtc dt:dt=""string"">2018-10-18T19:45:41Z</DateUtc></StartTime><FrequencyChanges><FrequencyChange><Frequency dt:dt=""r8"">3215292</Frequency><Timestamp dt:dt=""r8"">6157732696525</Timestamp><Current dt:dt=""r8"">0</Current><DateUtc dt:dt=""string"">2018-10-18T19:45:41Z</DateUtc></FrequencyChange></FrequencyChanges></Clock>\n",KW_Experiment5A-31-1,59.946,1.0.0.105,2,-1249772156,Professional,2.0.10.353,2.0.10.353,10/18/2018,10/18/2018 19:45,15:45:41,2.0.10.248,3,2,1,3,,,,,,,,TrainingProc,BlockList,40,1,Distractor1.bmp,1,0,,0,1,376083,601,,0,0,blue,600,3,600,,vertical,blue,Distractor2.bmp,purple,Distractor1.bmp,cyan,Distractor2.bmp,red,Target1.bmp,yellow,Distractor1.bmp,lime,Distractor1.bmp,,,,TrialProc,3,TrainingTrialList,1,1,-999999,1,376684,0,1,621,377305,Target1.bmp,red,1,,,,10,5,88
KW_Experiment5A,31,1,"<?xml version=""1.0""?>\n<Clock xmlns:dt=""urn:schemas-microsoft-com:datatypes""><Description dt:dt=""string"">E-Prime Primary Realtime Clock</Description><StartTime><Timestamp dt:dt=""int"">0</Timestamp><DateUtc dt:dt=""string"">2018-10-18T19:45:41Z</DateUtc></StartTime><FrequencyChanges><FrequencyChange><Frequency dt:dt=""r8"">3215292</Frequency><Timestamp dt:dt=""r8"">6157732696525</Timestamp><Current dt:dt=""r8"">0</Current><DateUtc dt:dt=""string"">2018-10-18T19:45:41Z</DateUtc></FrequencyChange></FrequencyChanges></Clock>\n",KW_Experiment5A-31-1,59.946,1.0.0.105,2,-1249772156,Professional,2.0.10.353,2.0.10.353,10/18/2018,10/18/2018 19:45,15:45:41,2.0.10.248,3,2,1,3,,,,,,,,TrainingProc,BlockList,41,2,Distractor1.bmp,1,0,,0,1,378318,501,,0,0,yellow,500,2,500,,horizontal,yellow,Distractor1.bmp,lime,Distractor1.bmp,cyan,Distractor1.bmp,red,Target2.bmp,blue,Distractor1.bmp,purple,Distractor2.bmp,,,,TrialProc,2,TrainingTrialList,1,2,-999999,1,378819,0,2,550,379369,Target2.bmp,red,2,,,,10,5,89
KW_Experiment5A,31,1,"<?xml version=""1.0""?>\n<Clock xmlns:dt=""urn:schemas-microsoft-com:datatypes""><Description dt:dt=""string"">E-Prime Primary Realtime Clock</Description><StartTime><Timestamp dt:dt=""int"">0</Timestamp><DateUtc dt:dt=""string"">2018-10-18T19:45:41Z</DateUtc></StartTime><FrequencyChanges><FrequencyChange><Frequency dt:dt=""r8"">3215292</Frequency><Timestamp dt:dt=""r8"">6157732696525</Timestamp><Current dt:dt=""r8"">0</Current><DateUtc dt:dt=""string"">2018-10-18T19:45:41Z</DateUtc></FrequencyChange></FrequencyChanges></Clock>\n",KW_Experiment5A-31-1,59.946,1.0.0.105,2,-1249772156,Professional,2.0.10.353,2.0.10.353,10/18/2018,10/18/2018 19:45,15:45:41,2.0.10.248,3,2,1,3,,,,,,,,TrainingProc,BlockList,42,1,Distractor1.bmp,1,0,,0,1,380387,500,,0,0,cyan,500,2,500,,vertical,cyan,Distractor1.bmp,red,Target1.bmp,blue,Distractor1.bmp,yellow,Distractor1.bmp,purple,Distractor2.bmp,lime,Distractor2.bmp,,,,TrialProc,4,TrainingTrialList,1,1,-999999,0,380887,0,1,778,381665,Target1.bmp,red,1,,,,8,5,90
