ExperimentName,Subject,Session,Clock.Information,DataFile.Basename,Display.RefreshRate,ExperimentVersion,Group,RandomSeed,RuntimeCapabilities,RuntimeVersion,RuntimeVersionExpected,SessionDate,SessionStartDateTimeUtc,SessionTime,StudioVersion,Block,BlockList,BlockList.Cycle,BlockList.Sample,PostTestQ1.RESP,PostTestQ1CJ.RESP,PostTestQ2.RESP,PostTestQ2CJ.RESP,PostTestQ3.RESP,PostTestQ3CJ.RESP,PostTestSlide.RESP,Procedure[Block],Running[Block],Trial,CorrectResponse,Distractor,DistractorList,Fixation.ACC,Fixation.CRESP,Fixation.DurationError,Fixation.OnsetDelay,Fixation.OnsetTime,Fixation.OnsetToOnsetTime,Fixation.RESP,Fixation.RT,Fixation.RTTime,ItemColor,Jitter,JitterList,JitterTime,Lime0List,Orientation,Pos1Color,Pos1Item,Pos2Color,Pos2Item,Pos3Color,Pos3Item,Pos4Color,Pos4Item,Pos5Color,Pos5Item,Pos6Color,Pos6Item,PracticeTrialList,PracticeTrialList.Cycle,PracticeTrialList.Sample,Procedure[Trial],Red0List,Running[Trial],Stimulus.ACC,Stimulus.CRESP,Stimulus.DurationError,Stimulus.OnsetDelay,Stimulus.OnsetTime,Stimulus.OnsetToOnsetTime,Stimulus.RESP,Stimulus.RT,Stimulus.RTTime,Target,TargetColor,TargetList,TestTrialList,TestTrialList.Cycle,TestTrialList.Sample,TrainingTrialList,TrainingTrialList.Cycle,TrainingTrialList.Sample
KW_Experiment5A,25,1,"<?xml version=""1.0""?>\n<Clock xmlns:dt=""urn:schemas-microsoft-com:datatypes""><Description dt:dt=""string"">E-Prime Primary Realtime Clock</Description><StartTime><Timestamp dt:dt=""int"">0</Timestamp><DateUtc dt:dt=""string"">2018-10-17T17:15:01Z</DateUtc></StartTime><FrequencyChanges><FrequencyChange><Frequency dt:dt=""r8"">3215292</Frequency><Timestamp dt:dt=""r8"">5850874100447</Timestamp><Current dt:dt=""r8"">0</Current><DateUtc dt:dt=""string"">2018-10-17T17:15:01Z</DateUtc></FrequencyChange></FrequencyChanges></Clock>\n",KW_Experiment5A-25-1,59.944,1.0.0.105,2,1129285324,Professional,2.0.10.353,2.0.10.353,10/17/2018,10/17/2018 17:15,13:15:01,2.0.10.248,1,1,1,1,,,,,,,,PracticeProc,BlockList,1,1,Distractor1.bmp,1,0,,0,42,57090,400,,0,0,blue,400,1,400,,vertical,blue,Distractor1.bmp,red,Target1.bmp,purple,Distractor1.bmp,cyan,Distractor2.bmp,yellow,Distractor1.bmp,lime,Distractor1.bmp,2,1,1,TrialProc,3,PracticeTrialList,1,1,-999999,0,57490,0,1,1502,58992,Target1.bmp,red,1,,,,,,
KW_Experiment5A,25,1,"<?xml version=""1.0""?>\n<Clock xmlns:dt=""urn:schemas-microsoft-com:datatypes""><Description dt:dt=""string"">E-Prime Primary Realtime Clock</Description><StartTime><Timestamp dt:dt=""int"">0</Timestamp><DateUtc dt:dt=""string"">2018-10-17T17:15:01Z</DateUtc></StartTime><FrequencyChanges><FrequencyChange><Frequency dt:dt=""r8"">3215292</Frequency><Timestamp dt:dt=""r8"">5850874100447</Timestamp><Current dt:dt=""r8"">0</Current><DateUtc dt:dt=""string"">2018-10-17T17:15:01Z</DateUtc></FrequencyChange></FrequencyChanges></Clock>\n",KW_Experiment5A-25-1,59.944,1.0.0.105,2,1129285324,Professional,2.0.10.353,2.0.10.353,10/17/2018,10/17/2018 17:15,13:15:01,2.0.10.248,1,1,1,1,,,,,,,,PracticeProc,BlockList,2,1,Distractor1.bmp,1,0,,0,1,60009,500,,0,0,blue,500,2,500,3,vertical,lime,Target1.bmp,red,Distractor1.bmp,cyan,Distractor2.bmp,purple,Distractor2.bmp,yellow,Distractor2.bmp,blue,Distractor2.bmp,1,1,2,TrialProc,,PracticeTrialList,0,1,-999999,0,60509,0,2,635,61144,Target1.bmp,lime,1,,,,,,
KW_Experiment5A,25,1,"<?xml version=""1.0""?>\n<Clock xmlns:dt=""urn:schemas-microsoft-com:datatypes""><Description dt:dt=""string"">E-Prime Primary Realtime Clock</Description><StartTime><Timestamp dt:dt=""int"">0</Timestamp><DateUtc dt:dt=""string"">2018-10-17T17:15:01Z</DateUtc></StartTime><FrequencyChanges><FrequencyChange><Frequency dt:dt=""r8"">3215292</Frequency><Timestamp dt:dt=""r8"">5850874100447</Timestamp><Current dt:dt=""r8"">0</Current><DateUtc dt:dt=""string"">2018-10-17T17:15:01Z</DateUtc></FrequencyChange></FrequencyChanges></Clock>\n",KW_Experiment5A-25-1,59.944,1.0.0.105,2,1129285324,Professional,2.0.10.353,2.0.10.353,10/17/2018,10/17/2018 17:15,13:15:01,2.0.10.248,1,1,1,1,,,,,,,,PracticeProc,BlockList,3,2,Distractor1.bmp,1,0,,0,1,62161,600,,0,0,yellow,600,3,600,2,horizontal,cyan,Distractor1.bmp,red,Distractor1.bmp,purple,Distractor2.bmp,yellow,Distractor1.bmp,lime,Target2.bmp,blue,Distractor1.bmp,5,1,3,TrialProc,,PracticeTrialList,1,2,-999999,0,62761,0,2,1846,64607,Target2.bmp,lime,2,,,,,,
KW_Experiment5A,25,1,"<?xml version=""1.0""?>\n<Clock xmlns:dt=""urn:schemas-microsoft-com:datatypes""><Description dt:dt=""string"">E-Prime Primary Realtime Clock</Description><StartTime><Timestamp dt:dt=""int"">0</Timestamp><DateUtc dt:dt=""string"">2018-10-17T17:15:01Z</DateUtc></StartTime><FrequencyChanges><FrequencyChange><Frequency dt:dt=""r8"">3215292</Frequency><Timestamp dt:dt=""r8"">5850874100447</Timestamp><Current dt:dt=""r8"">0</Current><DateUtc dt:dt=""string"">2018-10-17T17:15:01Z</DateUtc></FrequencyChange></FrequencyChanges></Clock>\n",KW_Experiment5A-25-1,59.944,1.0.0.105,2,1129285324,Professional,2.0.10.353,2.0.10.353,10/17/2018,10/17/2018 17:15,13:15:01,2.0.10.248,1,1,1,1,,,,,,,,PracticeProc,BlockList,4,2,Distractor1.bmp,1,0,,0,1,65631,500,,0,0,yellow,500,2,500,,horizontal,lime,Distractor1.bmp,blue,Distractor2.bmp,cyan,Distractor1.bmp,purple,Distractor2.bmp,yellow,Distractor1.bmp,red,Target2.bmp,6,1,4,TrialProc,2,PracticeTrialList,1,2,-999999,0,66131,0,2,1044,67175,Target2.bmp,red,2,,,,,,
KW_Experiment5A,25,1,"<?xml version=""1.0""?>\n<Clock xmlns:dt=""urn:schemas-microsoft-com:datatypes""><Description dt:dt=""string"">E-Prime Primary Realtime Clock</Description><StartTime><Timestamp dt:dt=""int"">0</Timestamp><DateUtc dt:dt=""string"">2018-10-17T17:15:01Z</DateUtc></StartTime><FrequencyChanges><FrequencyChange><Frequency dt:dt=""r8"">3215292</Frequency><Timestamp dt:dt=""r8"">5850874100447</Timestamp><Current dt:dt=""r8"">0</Current><DateUtc dt:dt=""string"">2018-10-17T17:15:01Z</DateUtc></FrequencyChange></FrequencyChanges></Clock>\n",KW_Experiment5A-25-1,59.944,1.0.0.105,2,1129285324,Professional,2.0.10.353,2.0.10.353,10/17/2018,10/17/2018 17:15,13:15:01,2.0.10.248,1,1,1,1,,,,,,,,PracticeProc,BlockList,5,2,Distractor2.bmp,2,0,,0,1,68200,600,,0,0,purple,600,3,600,,horizontal,lime,Distractor2.bmp,yellow,Distractor2.bmp,purple,Distractor1.bmp,red,Target2.bmp,cyan,Distractor2.bmp,blue,Distractor1.bmp,4,1,5,TrialProc,5,PracticeTrialList,1,2,-999999,0,68800,0,2,775,69575,Target2.bmp,red,2,,,,,,
KW_Experiment5A,25,1,"<?xml version=""1.0""?>\n<Clock xmlns:dt=""urn:schemas-microsoft-com:datatypes""><Description dt:dt=""string"">E-Prime Primary Realtime Clock</Description><StartTime><Timestamp dt:dt=""int"">0</Timestamp><DateUtc dt:dt=""string"">2018-10-17T17:15:01Z</DateUtc></StartTime><FrequencyChanges><FrequencyChange><Frequency dt:dt=""r8"">3215292</Frequency><Timestamp dt:dt=""r8"">5850874100447</Timestamp><Current dt:dt=""r8"">0</Current><DateUtc dt:dt=""string"">2018-10-17T17:15:01Z</DateUtc></FrequencyChange></FrequencyChanges></Clock>\n",KW_Experiment5A-25-1,59.944,1.0.0.105,2,1129285324,Professional,2.0.10.353,2.0.10.353,10/17/2018,10/17/2018 17:15,13:15:01,2.0.10.248,1,1,1,1,,,,,,,,PracticeProc,BlockList,6,2,Distractor1.bmp,1,0,,0,1,70585,501,,0,0,red,500,2,500,1,horizontal,purple,Distractor2.bmp,red,Distractor1.bmp,lime,Target2.bmp,blue,Distractor1.bmp,yellow,Distractor2.bmp,cyan,Distractor1.bmp,3,1,6,TrialProc,,PracticeTrialList,1,2,-999999,1,71086,0,2,1009,72095,Target2.bmp,lime,2,,,,,,
KW_Experiment5A,25,1,"<?xml version=""1.0""?>\n<Clock xmlns:dt=""urn:schemas-microsoft-com:datatypes""><Description dt:dt=""string"">E-Prime Primary Realtime Clock</Description><StartTime><Timestamp dt:dt=""int"">0</Timestamp><DateUtc dt:dt=""string"">2018-10-17T17:15:01Z</DateUtc></StartTime><FrequencyChanges><FrequencyChange><Frequency dt:dt=""r8"">3215292</Frequency><Timestamp dt:dt=""r8"">5850874100447</Timestamp><Current dt:dt=""r8"">0</Current><DateUtc dt:dt=""string"">2018-10-17T17:15:01Z</DateUtc></FrequencyChange></FrequencyChanges></Clock>\n",KW_Experiment5A-25-1,59.944,1.0.0.105,2,1129285324,Professional,2.0.10.353,2.0.10.353,10/17/2018,10/17/2018 17:15,13:15:01,2.0.10.248,2,2,1,2,,,,,,,,TrainingProc,BlockList,1,2,Distractor1.bmp,1,0,,0,26,80945,400,,0,0,red,400,1,400,1,horizontal,red,Distractor2.bmp,cyan,Distractor2.bmp,lime,Target2.bmp,purple,Distractor1.bmp,yellow,Distractor1.bmp,blue,Distractor1.bmp,,,,TrialProc,,TrainingTrialList,1,2,-999999,0,81345,0,2,878,82223,Target2.bmp,lime,2,,,,3,2,1
KW_Experiment5A,25,1,"<?xml version=""1.0""?>\n<Clock xmlns:dt=""urn:schemas-microsoft-com:datatypes""><Description dt:dt=""string"">E-Prime Primary Realtime Clock</Description><StartTime><Timestamp dt:dt=""int"">0</Timestamp><DateUtc dt:dt=""string"">2018-10-17T17:15:01Z</DateUtc></StartTime><FrequencyChanges><FrequencyChange><Frequency dt:dt=""r8"">3215292</Frequency><Timestamp dt:dt=""r8"">5850874100447</Timestamp><Current dt:dt=""r8"">0</Current><DateUtc dt:dt=""string"">2018-10-17T17:15:01Z</DateUtc></FrequencyChange></FrequencyChanges></Clock>\n",KW_Experiment5A-25-1,59.944,1.0.0.105,2,1129285324,Professional,2.0.10.353,2.0.10.353,10/17/2018,10/17/2018 17:15,13:15:01,2.0.10.248,2,2,1,2,,,,,,,,TrainingProc,BlockList,2,1,Distractor1.bmp,1,0,,0,1,83247,400,,0,0,cyan,400,1,400,,vertical,cyan,Distractor2.bmp,red,Target1.bmp,yellow,Distractor1.bmp,blue,Distractor1.bmp,lime,Distractor1.bmp,purple,Distractor2.bmp,,,,TrialProc,4,TrainingTrialList,0,1,-999999,0,83647,0,2,936,84583,Target1.bmp,red,1,,,,8,2,2
KW_Experiment5A,25,1,"<?xml version=""1.0""?>\n<Clock xmlns:dt=""urn:schemas-microsoft-com:datatypes""><Description dt:dt=""string"">E-Prime Primary Realtime Clock</Description><StartTime><Timestamp dt:dt=""int"">0</Timestamp><DateUtc dt:dt=""string"">2018-10-17T17:15:01Z</DateUtc></StartTime><FrequencyChanges><FrequencyChange><Frequency dt:dt=""r8"">3215292</Frequency><Timestamp dt:dt=""r8"">5850874100447</Timestamp><Current dt:dt=""r8"">0</Current><DateUtc dt:dt=""string"">2018-10-17T17:15:01Z</DateUtc></FrequencyChange></FrequencyChanges></Clock>\n",KW_Experiment5A-25-1,59.944,1.0.0.105,2,1129285324,Professional,2.0.10.353,2.0.10.353,10/17/2018,10/17/2018 17:15,13:15:01,2.0.10.248,2,2,1,2,,,,,,,,TrainingProc,BlockList,3,2,Distractor1.bmp,1,0,,0,1,85599,600,,0,0,yellow,600,3,600,,horizontal,red,Target2.bmp,purple,Distractor1.bmp,blue,Distractor2.bmp,cyan,Distractor1.bmp,lime,Distractor1.bmp,yellow,Distractor1.bmp,,,,TrialProc,2,TrainingTrialList,1,2,-999999,0,86199,0,2,560,86759,Target2.bmp,red,2,,,,7,2,3
KW_Experiment5A,25,1,"<?xml version=""1.0""?>\n<Clock xmlns:dt=""urn:schemas-microsoft-com:datatypes""><Description dt:dt=""string"">E-Prime Primary Realtime Clock</Description><StartTime><Timestamp dt:dt=""int"">0</Timestamp><DateUtc dt:dt=""string"">2018-10-17T17:15:01Z</DateUtc></StartTime><FrequencyChanges><FrequencyChange><Frequency dt:dt=""r8"">3215292</Frequency><Timestamp dt:dt=""r8"">5850874100447</Timestamp><Current dt:dt=""r8"">0</Current><DateUtc dt:dt=""string"">2018-10-17T17:15:01Z</DateUtc></FrequencyChange></FrequencyChanges></Clock>\n",KW_Experiment5A-25-1,59.944,1.0.0.105,2,1129285324,Professional,2.0.10.353,2.0.10.353,10/17/2018,10/17/2018 17:15,13:15:01,2.0.10.248,2,2,1,2,,,,,,,,TrainingProc,BlockList,4,2,Distractor2.bmp,2,0,,0,1,87784,601,,0,0,blue,600,3,600,,horizontal,red,Target2.bmp,cyan,Distractor2.bmp,yellow,Distractor1.bmp,purple,Distractor1.bmp,lime,Distractor2.bmp,blue,Distractor2.bmp,,,,TrialProc,3,TrainingTrialList,1,2,-999999,1,88385,0,2,590,88975,Target2.bmp,red,2,,,,7,2,4
KW_Experiment5A,25,1,"<?xml version=""1.0""?>\n<Clock xmlns:dt=""urn:schemas-microsoft-com:datatypes""><Description dt:dt=""string"">E-Prime Primary Realtime Clock</Description><StartTime><Timestamp dt:dt=""int"">0</Timestamp><DateUtc dt:dt=""string"">2018-10-17T17:15:01Z</DateUtc></StartTime><FrequencyChanges><FrequencyChange><Frequency dt:dt=""r8"">3215292</Frequency><Timestamp dt:dt=""r8"">5850874100447</Timestamp><Current dt:dt=""r8"">0</Current><DateUtc dt:dt=""string"">2018-10-17T17:15:01Z</DateUtc></FrequencyChange></FrequencyChanges></Clock>\n",KW_Experiment5A-25-1,59.944,1.0.0.105,2,1129285324,Professional,2.0.10.353,2.0.10.353,10/17/2018,10/17/2018 17:15,13:15:01,2.0.10.248,2,2,1,2,,,,,,,,TrainingProc,BlockList,5,1,Distractor2.bmp,2,0,,0,1,89986,601,,0,0,purple,600,3,600,,vertical,purple,Distractor2.bmp,lime,Distractor1.bmp,cyan,Distractor2.bmp,blue,Distractor1.bmp,yellow,Distractor1.bmp,red,Target1.bmp,,,,TrialProc,5,TrainingTrialList,1,1,-999999,1,90587,0,1,460,91047,Target1.bmp,red,1,,,,12,2,5
KW_Experiment5A,25,1,"<?xml version=""1.0""?>\n<Clock xmlns:dt=""urn:schemas-microsoft-com:datatypes""><Description dt:dt=""string"">E-Prime Primary Realtime Clock</Description><StartTime><Timestamp dt:dt=""int"">0</Timestamp><DateUtc dt:dt=""string"">2018-10-17T17:15:01Z</DateUtc></StartTime><FrequencyChanges><FrequencyChange><Frequency dt:dt=""r8"">3215292</Frequency><Timestamp dt:dt=""r8"">5850874100447</Timestamp><Current dt:dt=""r8"">0</Current><DateUtc dt:dt=""string"">2018-10-17T17:15:01Z</DateUtc></FrequencyChange></FrequencyChanges></Clock>\n",KW_Experiment5A-25-1,59.944,1.0.0.105,2,1129285324,Professional,2.0.10.353,2.0.10.353,10/17/2018,10/17/2018 17:15,13:15:01,2.0.10.248,2,2,1,2,,,,,,,,TrainingProc,BlockList,6,2,Distractor1.bmp,1,0,,0,1,92071,501,,0,0,cyan,500,2,500,4,horizontal,cyan,Distractor2.bmp,purple,Distractor1.bmp,yellow,Distractor2.bmp,lime,Target2.bmp,red,Distractor1.bmp,blue,Distractor2.bmp,,,,TrialProc,,TrainingTrialList,1,2,-999999,1,92572,0,2,491,93063,Target2.bmp,lime,2,,,,4,2,6
KW_Experiment5A,25,1,"<?xml version=""1.0""?>\n<Clock xmlns:dt=""urn:schemas-microsoft-com:datatypes""><Description dt:dt=""string"">E-Prime Primary Realtime Clock</Description><StartTime><Timestamp dt:dt=""int"">0</Timestamp><DateUtc dt:dt=""string"">2018-10-17T17:15:01Z</DateUtc></StartTime><FrequencyChanges><FrequencyChange><Frequency dt:dt=""r8"">3215292</Frequency><Timestamp dt:dt=""r8"">5850874100447</Timestamp><Current dt:dt=""r8"">0</Current><DateUtc dt:dt=""string"">2018-10-17T17:15:01Z</DateUtc></FrequencyChange></FrequencyChanges></Clock>\n",KW_Experiment5A-25-1,59.944,1.0.0.105,2,1129285324,Professional,2.0.10.353,2.0.10.353,10/17/2018,10/17/2018 17:15,13:15:01,2.0.10.248,2,2,1,2,,,,,,,,TrainingProc,BlockList,7,1,Distractor1.bmp,1,0,,0,1,94073,501,,0,0,yellow,500,2,500,,vertical,yellow,Distractor1.bmp,blue,Distractor2.bmp,cyan,Distractor2.bmp,purple,Distractor1.bmp,lime,Distractor1.bmp,red,Target1.bmp,,,,TrialProc,2,TrainingTrialList,1,1,-999999,1,94574,0,1,721,95295,Target1.bmp,red,1,,,,12,2,7
KW_Experiment5A,25,1,"<?xml version=""1.0""?>\n<Clock xmlns:dt=""urn:schemas-microsoft-com:datatypes""><Description dt:dt=""string"">E-Prime Primary Realtime Clock</Description><StartTime><Timestamp dt:dt=""int"">0</Timestamp><DateUtc dt:dt=""string"">2018-10-17T17:15:01Z</DateUtc></StartTime><FrequencyChanges><FrequencyChange><Frequency dt:dt=""r8"">3215292</Frequency><Timestamp dt:dt=""r8"">5850874100447</Timestamp><Current dt:dt=""r8"">0</Current><DateUtc dt:dt=""string"">2018-10-17T17:15:01Z</DateUtc></FrequencyChange></FrequencyChanges></Clock>\n",KW_Experiment5A-25-1,59.944,1.0.0.105,2,1129285324,Professional,2.0.10.353,2.0.10.353,10/17/2018,10/17/2018 17:15,13:15:01,2.0.10.248,2,2,1,2,,,,,,,,TrainingProc,BlockList,8,2,Distractor1.bmp,1,0,,0,1,96309,500,,0,0,yellow,500,2,500,2,horizontal,yellow,Distractor1.bmp,lime,Target2.bmp,red,Distractor1.bmp,cyan,Distractor1.bmp,purple,Distractor2.bmp,blue,Distractor1.bmp,,,,TrialProc,,TrainingTrialList,1,2,-999999,0,96809,0,2,718,97527,Target2.bmp,lime,2,,,,2,2,8
KW_Experiment5A,25,1,"<?xml version=""1.0""?>\n<Clock xmlns:dt=""urn:schemas-microsoft-com:datatypes""><Description dt:dt=""string"">E-Prime Primary Realtime Clock</Description><StartTime><Timestamp dt:dt=""int"">0</Timestamp><DateUtc dt:dt=""string"">2018-10-17T17:15:01Z</DateUtc></StartTime><FrequencyChanges><FrequencyChange><Frequency dt:dt=""r8"">3215292</Frequency><Timestamp dt:dt=""r8"">5850874100447</Timestamp><Current dt:dt=""r8"">0</Current><DateUtc dt:dt=""string"">2018-10-17T17:15:01Z</DateUtc></FrequencyChange></FrequencyChanges></Clock>\n",KW_Experiment5A-25-1,59.944,1.0.0.105,2,1129285324,Professional,2.0.10.353,2.0.10.353,10/17/2018,10/17/2018 17:15,13:15:01,2.0.10.248,2,2,1,2,,,,,,,,TrainingProc,BlockList,9,1,Distractor1.bmp,1,0,,0,1,98544,500,,0,0,purple,500,2,500,,vertical,purple,Distractor1.bmp,blue,Distractor1.bmp,red,Target1.bmp,cyan,Distractor1.bmp,yellow,Distractor1.bmp,lime,Distractor1.bmp,,,,TrialProc,5,TrainingTrialList,1,1,-999999,0,99044,0,1,595,99639,Target1.bmp,red,1,,,,9,2,9
KW_Experiment5A,25,1,"<?xml version=""1.0""?>\n<Clock xmlns:dt=""urn:schemas-microsoft-com:datatypes""><Description dt:dt=""string"">E-Prime Primary Realtime Clock</Description><StartTime><Timestamp dt:dt=""int"">0</Timestamp><DateUtc dt:dt=""string"">2018-10-17T17:15:01Z</DateUtc></StartTime><FrequencyChanges><FrequencyChange><Frequency dt:dt=""r8"">3215292</Frequency><Timestamp dt:dt=""r8"">5850874100447</Timestamp><Current dt:dt=""r8"">0</Current><DateUtc dt:dt=""string"">2018-10-17T17:15:01Z</DateUtc></FrequencyChange></FrequencyChanges></Clock>\n",KW_Experiment5A-25-1,59.944,1.0.0.105,2,1129285324,Professional,2.0.10.353,2.0.10.353,10/17/2018,10/17/2018 17:15,13:15:01,2.0.10.248,2,2,1,2,,,,,,,,TrainingProc,BlockList,10,2,Distractor1.bmp,1,0,,0,1,100663,500,,0,0,yellow,500,2,500,2,horizontal,yellow,Distractor1.bmp,red,Distractor1.bmp,blue,Distractor1.bmp,purple,Distractor1.bmp,cyan,Distractor2.bmp,lime,Target2.bmp,,,,TrialProc,,TrainingTrialList,1,2,-999999,0,101163,0,2,628,101791,Target2.bmp,lime,2,,,,6,2,10
KW_Experiment5A,25,1,"<?xml version=""1.0""?>\n<Clock xmlns:dt=""urn:schemas-microsoft-com:datatypes""><Description dt:dt=""string"">E-Prime Primary Realtime Clock</Description><StartTime><Timestamp dt:dt=""int"">0</Timestamp><DateUtc dt:dt=""string"">2018-10-17T17:15:01Z</DateUtc></StartTime><FrequencyChanges><FrequencyChange><Frequency dt:dt=""r8"">3215292</Frequency><Timestamp dt:dt=""r8"">5850874100447</Timestamp><Current dt:dt=""r8"">0</Current><DateUtc dt:dt=""string"">2018-10-17T17:15:01Z</DateUtc></FrequencyChange></FrequencyChanges></Clock>\n",KW_Experiment5A-25-1,59.944,1.0.0.105,2,1129285324,Professional,2.0.10.353,2.0.10.353,10/17/2018,10/17/2018 17:15,13:15:01,2.0.10.248,2,2,1,2,,,,,,,,TrainingProc,BlockList,11,2,Distractor2.bmp,2,0,,1,0,102814,501,,0,0,cyan,500,2,500,,horizontal,cyan,Distractor2.bmp,purple,Distractor1.bmp,lime,Distractor2.bmp,yellow,Distractor2.bmp,red,Target2.bmp,blue,Distractor2.bmp,,,,TrialProc,4,TrainingTrialList,1,2,-999999,1,103315,0,2,516,103831,Target2.bmp,red,2,,,,11,2,11
KW_Experiment5A,25,1,"<?xml version=""1.0""?>\n<Clock xmlns:dt=""urn:schemas-microsoft-com:datatypes""><Description dt:dt=""string"">E-Prime Primary Realtime Clock</Description><StartTime><Timestamp dt:dt=""int"">0</Timestamp><DateUtc dt:dt=""string"">2018-10-17T17:15:01Z</DateUtc></StartTime><FrequencyChanges><FrequencyChange><Frequency dt:dt=""r8"">3215292</Frequency><Timestamp dt:dt=""r8"">5850874100447</Timestamp><Current dt:dt=""r8"">0</Current><DateUtc dt:dt=""string"">2018-10-17T17:15:01Z</DateUtc></FrequencyChange></FrequencyChanges></Clock>\n",KW_Experiment5A-25-1,59.944,1.0.0.105,2,1129285324,Professional,2.0.10.353,2.0.10.353,10/17/2018,10/17/2018 17:15,13:15:01,2.0.10.248,2,2,1,2,,,,,,,,TrainingProc,BlockList,12,1,Distractor1.bmp,1,0,,0,1,104850,500,,0,0,lime,500,2,500,,vertical,lime,Distractor1.bmp,yellow,Distractor1.bmp,cyan,Distractor1.bmp,purple,Distractor1.bmp,red,Target1.bmp,blue,Distractor1.bmp,,,,TrialProc,6,TrainingTrialList,1,1,-999999,0,105350,0,1,496,105846,Target1.bmp,red,1,,,,11,2,12
KW_Experiment5A,25,1,"<?xml version=""1.0""?>\n<Clock xmlns:dt=""urn:schemas-microsoft-com:datatypes""><Description dt:dt=""string"">E-Prime Primary Realtime Clock</Description><StartTime><Timestamp dt:dt=""int"">0</Timestamp><DateUtc dt:dt=""string"">2018-10-17T17:15:01Z</DateUtc></StartTime><FrequencyChanges><FrequencyChange><Frequency dt:dt=""r8"">3215292</Frequency><Timestamp dt:dt=""r8"">5850874100447</Timestamp><Current dt:dt=""r8"">0</Current><DateUtc dt:dt=""string"">2018-10-17T17:15:01Z</DateUtc></FrequencyChange></FrequencyChanges></Clock>\n",KW_Experiment5A-25-1,59.944,1.0.0.105,2,1129285324,Professional,2.0.10.353,2.0.10.353,10/17/2018,10/17/2018 17:15,13:15:01,2.0.10.248,2,2,1,2,,,,,,,,TrainingProc,BlockList,13,2,Distractor2.bmp,2,0,,0,1,106868,601,,0,0,lime,600,3,600,,horizontal,lime,Distractor2.bmp,blue,Distractor1.bmp,yellow,Distractor2.bmp,cyan,Distractor2.bmp,purple,Distractor1.bmp,red,Target2.bmp,,,,TrialProc,6,TrainingTrialList,0,2,-999999,1,107469,0,1,401,107870,Target2.bmp,red,2,,,,12,2,13
KW_Experiment5A,25,1,"<?xml version=""1.0""?>\n<Clock xmlns:dt=""urn:schemas-microsoft-com:datatypes""><Description dt:dt=""string"">E-Prime Primary Realtime Clock</Description><StartTime><Timestamp dt:dt=""int"">0</Timestamp><DateUtc dt:dt=""string"">2018-10-17T17:15:01Z</DateUtc></StartTime><FrequencyChanges><FrequencyChange><Frequency dt:dt=""r8"">3215292</Frequency><Timestamp dt:dt=""r8"">5850874100447</Timestamp><Current dt:dt=""r8"">0</Current><DateUtc dt:dt=""string"">2018-10-17T17:15:01Z</DateUtc></FrequencyChange></FrequencyChanges></Clock>\n",KW_Experiment5A-25-1,59.944,1.0.0.105,2,1129285324,Professional,2.0.10.353,2.0.10.353,10/17/2018,10/17/2018 17:15,13:15:01,2.0.10.248,2,2,1,2,,,,,,,,TrainingProc,BlockList,14,1,Distractor2.bmp,2,0,,0,1,108887,500,,0,0,yellow,500,2,500,,vertical,yellow,Distractor2.bmp,blue,Distractor2.bmp,purple,Distractor2.bmp,red,Target1.bmp,cyan,Distractor2.bmp,lime,Distractor2.bmp,,,,TrialProc,2,TrainingTrialList,0,1,-999999,0,109387,0,2,611,109998,Target1.bmp,red,1,,,,10,2,14
KW_Experiment5A,25,1,"<?xml version=""1.0""?>\n<Clock xmlns:dt=""urn:schemas-microsoft-com:datatypes""><Description dt:dt=""string"">E-Prime Primary Realtime Clock</Description><StartTime><Timestamp dt:dt=""int"">0</Timestamp><DateUtc dt:dt=""string"">2018-10-17T17:15:01Z</DateUtc></StartTime><FrequencyChanges><FrequencyChange><Frequency dt:dt=""r8"">3215292</Frequency><Timestamp dt:dt=""r8"">5850874100447</Timestamp><Current dt:dt=""r8"">0</Current><DateUtc dt:dt=""string"">2018-10-17T17:15:01Z</DateUtc></FrequencyChange></FrequencyChanges></Clock>\n",KW_Experiment5A-25-1,59.944,1.0.0.105,2,1129285324,Professional,2.0.10.353,2.0.10.353,10/17/2018,10/17/2018 17:15,13:15:01,2.0.10.248,2,2,1,2,,,,,,,,TrainingProc,BlockList,15,2,Distractor2.bmp,2,0,,0,1,111022,400,,0,0,lime,400,1,400,,horizontal,lime,Distractor2.bmp,yellow,Distractor2.bmp,red,Target2.bmp,purple,Distractor2.bmp,cyan,Distractor2.bmp,blue,Distractor2.bmp,,,,TrialProc,6,TrainingTrialList,1,2,-999999,0,111422,0,2,736,112158,Target2.bmp,red,2,,,,9,2,15
KW_Experiment5A,25,1,"<?xml version=""1.0""?>\n<Clock xmlns:dt=""urn:schemas-microsoft-com:datatypes""><Description dt:dt=""string"">E-Prime Primary Realtime Clock</Description><StartTime><Timestamp dt:dt=""int"">0</Timestamp><DateUtc dt:dt=""string"">2018-10-17T17:15:01Z</DateUtc></StartTime><FrequencyChanges><FrequencyChange><Frequency dt:dt=""r8"">3215292</Frequency><Timestamp dt:dt=""r8"">5850874100447</Timestamp><Current dt:dt=""r8"">0</Current><DateUtc dt:dt=""string"">2018-10-17T17:15:01Z</DateUtc></FrequencyChange></FrequencyChanges></Clock>\n",KW_Experiment5A-25-1,59.944,1.0.0.105,2,1129285324,Professional,2.0.10.353,2.0.10.353,10/17/2018,10/17/2018 17:15,13:15:01,2.0.10.248,2,2,1,2,,,,,,,,TrainingProc,BlockList,16,1,Distractor1.bmp,1,0,,0,1,113174,600,,0,0,purple,600,3,600,5,vertical,lime,Target1.bmp,purple,Distractor1.bmp,blue,Distractor2.bmp,cyan,Distractor1.bmp,red,Distractor2.bmp,yellow,Distractor1.bmp,,,,TrialProc,,TrainingTrialList,1,1,-999999,0,113774,0,1,816,114590,Target1.bmp,lime,1,,,,1,2,16
KW_Experiment5A,25,1,"<?xml version=""1.0""?>\n<Clock xmlns:dt=""urn:schemas-microsoft-com:datatypes""><Description dt:dt=""string"">E-Prime Primary Realtime Clock</Description><StartTime><Timestamp dt:dt=""int"">0</Timestamp><DateUtc dt:dt=""string"">2018-10-17T17:15:01Z</DateUtc></StartTime><FrequencyChanges><FrequencyChange><Frequency dt:dt=""r8"">3215292</Frequency><Timestamp dt:dt=""r8"">5850874100447</Timestamp><Current dt:dt=""r8"">0</Current><DateUtc dt:dt=""string"">2018-10-17T17:15:01Z</DateUtc></FrequencyChange></FrequencyChanges></Clock>\n",KW_Experiment5A-25-1,59.944,1.0.0.105,2,1129285324,Professional,2.0.10.353,2.0.10.353,10/17/2018,10/17/2018 17:15,13:15:01,2.0.10.248,2,2,1,2,,,,,,,,TrainingProc,BlockList,17,1,Distractor2.bmp,2,0,,0,1,115609,601,,0,0,purple,600,3,600,,vertical,purple,Distractor1.bmp,yellow,Distractor2.bmp,red,Target1.bmp,blue,Distractor2.bmp,cyan,Distractor1.bmp,lime,Distractor2.bmp,,,,TrialProc,5,TrainingTrialList,0,1,-999999,1,116210,0,2,668,116878,Target1.bmp,red,1,,,,9,2,17
KW_Experiment5A,25,1,"<?xml version=""1.0""?>\n<Clock xmlns:dt=""urn:schemas-microsoft-com:datatypes""><Description dt:dt=""string"">E-Prime Primary Realtime Clock</Description><StartTime><Timestamp dt:dt=""int"">0</Timestamp><DateUtc dt:dt=""string"">2018-10-17T17:15:01Z</DateUtc></StartTime><FrequencyChanges><FrequencyChange><Frequency dt:dt=""r8"">3215292</Frequency><Timestamp dt:dt=""r8"">5850874100447</Timestamp><Current dt:dt=""r8"">0</Current><DateUtc dt:dt=""string"">2018-10-17T17:15:01Z</DateUtc></FrequencyChange></FrequencyChanges></Clock>\n",KW_Experiment5A-25-1,59.944,1.0.0.105,2,1129285324,Professional,2.0.10.353,2.0.10.353,10/17/2018,10/17/2018 17:15,13:15:01,2.0.10.248,2,2,1,2,,,,,,,,TrainingProc,BlockList,18,2,Distractor1.bmp,1,0,,0,1,117895,400,,0,0,blue,400,1,400,,horizontal,blue,Distractor1.bmp,yellow,Distractor2.bmp,lime,Distractor1.bmp,red,Target2.bmp,purple,Distractor1.bmp,cyan,Distractor1.bmp,,,,TrialProc,3,TrainingTrialList,1,2,-999999,0,118295,0,2,799,119094,Target2.bmp,red,2,,,,10,2,18
KW_Experiment5A,25,1,"<?xml version=""1.0""?>\n<Clock xmlns:dt=""urn:schemas-microsoft-com:datatypes""><Description dt:dt=""string"">E-Prime Primary Realtime Clock</Description><StartTime><Timestamp dt:dt=""int"">0</Timestamp><DateUtc dt:dt=""string"">2018-10-17T17:15:01Z</DateUtc></StartTime><FrequencyChanges><FrequencyChange><Frequency dt:dt=""r8"">3215292</Frequency><Timestamp dt:dt=""r8"">5850874100447</Timestamp><Current dt:dt=""r8"">0</Current><DateUtc dt:dt=""string"">2018-10-17T17:15:01Z</DateUtc></FrequencyChange></FrequencyChanges></Clock>\n",KW_Experiment5A-25-1,59.944,1.0.0.105,2,1129285324,Professional,2.0.10.353,2.0.10.353,10/17/2018,10/17/2018 17:15,13:15:01,2.0.10.248,2,2,1,2,,,,,,,,TrainingProc,BlockList,19,1,Distractor1.bmp,1,0,,0,1,120114,400,,0,0,purple,400,1,400,,vertical,purple,Distractor1.bmp,red,Target1.bmp,yellow,Distractor1.bmp,blue,Distractor2.bmp,cyan,Distractor1.bmp,lime,Distractor1.bmp,,,,TrialProc,5,TrainingTrialList,1,1,-999999,0,120514,0,1,1052,121566,Target1.bmp,red,1,,,,8,2,19
KW_Experiment5A,25,1,"<?xml version=""1.0""?>\n<Clock xmlns:dt=""urn:schemas-microsoft-com:datatypes""><Description dt:dt=""string"">E-Prime Primary Realtime Clock</Description><StartTime><Timestamp dt:dt=""int"">0</Timestamp><DateUtc dt:dt=""string"">2018-10-17T17:15:01Z</DateUtc></StartTime><FrequencyChanges><FrequencyChange><Frequency dt:dt=""r8"">3215292</Frequency><Timestamp dt:dt=""r8"">5850874100447</Timestamp><Current dt:dt=""r8"">0</Current><DateUtc dt:dt=""string"">2018-10-17T17:15:01Z</DateUtc></FrequencyChange></FrequencyChanges></Clock>\n",KW_Experiment5A-25-1,59.944,1.0.0.105,2,1129285324,Professional,2.0.10.353,2.0.10.353,10/17/2018,10/17/2018 17:15,13:15:01,2.0.10.248,2,2,1,2,,,,,,,,TrainingProc,BlockList,20,2,Distractor2.bmp,2,0,,1,0,122582,501,,0,0,lime,500,2,500,,horizontal,lime,Distractor1.bmp,red,Target2.bmp,purple,Distractor2.bmp,cyan,Distractor2.bmp,blue,Distractor2.bmp,yellow,Distractor1.bmp,,,,TrialProc,6,TrainingTrialList,1,2,-999999,1,123083,0,2,619,123702,Target2.bmp,red,2,,,,8,2,20
KW_Experiment5A,25,1,"<?xml version=""1.0""?>\n<Clock xmlns:dt=""urn:schemas-microsoft-com:datatypes""><Description dt:dt=""string"">E-Prime Primary Realtime Clock</Description><StartTime><Timestamp dt:dt=""int"">0</Timestamp><DateUtc dt:dt=""string"">2018-10-17T17:15:01Z</DateUtc></StartTime><FrequencyChanges><FrequencyChange><Frequency dt:dt=""r8"">3215292</Frequency><Timestamp dt:dt=""r8"">5850874100447</Timestamp><Current dt:dt=""r8"">0</Current><DateUtc dt:dt=""string"">2018-10-17T17:15:01Z</DateUtc></FrequencyChange></FrequencyChanges></Clock>\n",KW_Experiment5A-25-1,59.944,1.0.0.105,2,1129285324,Professional,2.0.10.353,2.0.10.353,10/17/2018,10/17/2018 17:15,13:15:01,2.0.10.248,2,2,1,2,,,,,,,,TrainingProc,BlockList,21,2,Distractor1.bmp,1,0,,0,1,124718,400,,0,0,yellow,400,1,400,,horizontal,yellow,Distractor1.bmp,cyan,Distractor2.bmp,lime,Distractor1.bmp,blue,Distractor2.bmp,red,Target2.bmp,purple,Distractor1.bmp,,,,TrialProc,2,TrainingTrialList,1,2,-999999,0,125118,0,2,752,125870,Target2.bmp,red,2,,,,11,2,21
KW_Experiment5A,25,1,"<?xml version=""1.0""?>\n<Clock xmlns:dt=""urn:schemas-microsoft-com:datatypes""><Description dt:dt=""string"">E-Prime Primary Realtime Clock</Description><StartTime><Timestamp dt:dt=""int"">0</Timestamp><DateUtc dt:dt=""string"">2018-10-17T17:15:01Z</DateUtc></StartTime><FrequencyChanges><FrequencyChange><Frequency dt:dt=""r8"">3215292</Frequency><Timestamp dt:dt=""r8"">5850874100447</Timestamp><Current dt:dt=""r8"">0</Current><DateUtc dt:dt=""string"">2018-10-17T17:15:01Z</DateUtc></FrequencyChange></FrequencyChanges></Clock>\n",KW_Experiment5A-25-1,59.944,1.0.0.105,2,1129285324,Professional,2.0.10.353,2.0.10.353,10/17/2018,10/17/2018 17:15,13:15:01,2.0.10.248,2,2,1,2,,,,,,,,TrainingProc,BlockList,22,1,Distractor1.bmp,1,0,,0,1,126886,401,,0,0,purple,400,1,400,,vertical,red,Target1.bmp,blue,Distractor1.bmp,cyan,Distractor1.bmp,lime,Distractor1.bmp,yellow,Distractor2.bmp,purple,Distractor1.bmp,,,,TrialProc,5,TrainingTrialList,1,1,-999999,1,127287,0,1,591,127878,Target1.bmp,red,1,,,,7,2,22
KW_Experiment5A,25,1,"<?xml version=""1.0""?>\n<Clock xmlns:dt=""urn:schemas-microsoft-com:datatypes""><Description dt:dt=""string"">E-Prime Primary Realtime Clock</Description><StartTime><Timestamp dt:dt=""int"">0</Timestamp><DateUtc dt:dt=""string"">2018-10-17T17:15:01Z</DateUtc></StartTime><FrequencyChanges><FrequencyChange><Frequency dt:dt=""r8"">3215292</Frequency><Timestamp dt:dt=""r8"">5850874100447</Timestamp><Current dt:dt=""r8"">0</Current><DateUtc dt:dt=""string"">2018-10-17T17:15:01Z</DateUtc></FrequencyChange></FrequencyChanges></Clock>\n",KW_Experiment5A-25-1,59.944,1.0.0.105,2,1129285324,Professional,2.0.10.353,2.0.10.353,10/17/2018,10/17/2018 17:15,13:15:01,2.0.10.248,2,2,1,2,,,,,,,,TrainingProc,BlockList,23,1,Distractor2.bmp,2,0,,0,1,128888,501,,0,0,purple,500,2,500,,vertical,purple,Distractor1.bmp,lime,Distractor1.bmp,blue,Distractor1.bmp,red,Target1.bmp,cyan,Distractor2.bmp,yellow,Distractor2.bmp,,,,TrialProc,5,TrainingTrialList,1,1,-999999,1,129389,0,1,553,129942,Target1.bmp,red,1,,,,10,2,23
KW_Experiment5A,25,1,"<?xml version=""1.0""?>\n<Clock xmlns:dt=""urn:schemas-microsoft-com:datatypes""><Description dt:dt=""string"">E-Prime Primary Realtime Clock</Description><StartTime><Timestamp dt:dt=""int"">0</Timestamp><DateUtc dt:dt=""string"">2018-10-17T17:15:01Z</DateUtc></StartTime><FrequencyChanges><FrequencyChange><Frequency dt:dt=""r8"">3215292</Frequency><Timestamp dt:dt=""r8"">5850874100447</Timestamp><Current dt:dt=""r8"">0</Current><DateUtc dt:dt=""string"">2018-10-17T17:15:01Z</DateUtc></FrequencyChange></FrequencyChanges></Clock>\n",KW_Experiment5A-25-1,59.944,1.0.0.105,2,1129285324,Professional,2.0.10.353,2.0.10.353,10/17/2018,10/17/2018 17:15,13:15:01,2.0.10.248,2,2,1,2,,,,,,,,TrainingProc,BlockList,24,2,Distractor1.bmp,1,0,,0,1,130957,500,,0,0,yellow,500,2,500,2,horizontal,yellow,Distractor2.bmp,blue,Distractor1.bmp,cyan,Distractor1.bmp,purple,Distractor2.bmp,lime,Target2.bmp,red,Distractor1.bmp,,,,TrialProc,,TrainingTrialList,1,2,-999999,0,131457,0,2,829,132286,Target2.bmp,lime,2,,,,5,2,24
KW_Experiment5A,25,1,"<?xml version=""1.0""?>\n<Clock xmlns:dt=""urn:schemas-microsoft-com:datatypes""><Description dt:dt=""string"">E-Prime Primary Realtime Clock</Description><StartTime><Timestamp dt:dt=""int"">0</Timestamp><DateUtc dt:dt=""string"">2018-10-17T17:15:01Z</DateUtc></StartTime><FrequencyChanges><FrequencyChange><Frequency dt:dt=""r8"">3215292</Frequency><Timestamp dt:dt=""r8"">5850874100447</Timestamp><Current dt:dt=""r8"">0</Current><DateUtc dt:dt=""string"">2018-10-17T17:15:01Z</DateUtc></FrequencyChange></FrequencyChanges></Clock>\n",KW_Experiment5A-25-1,59.944,1.0.0.105,2,1129285324,Professional,2.0.10.353,2.0.10.353,10/17/2018,10/17/2018 17:15,13:15:01,2.0.10.248,2,2,1,2,,,,,,,,TrainingProc,BlockList,25,2,Distractor1.bmp,1,0,,0,1,133309,600,,0,0,blue,600,3,600,,horizontal,red,Target2.bmp,cyan,Distractor1.bmp,purple,Distractor1.bmp,lime,Distractor1.bmp,yellow,Distractor1.bmp,blue,Distractor2.bmp,,,,TrialProc,3,TrainingTrialList,1,2,-999999,0,133909,0,2,801,134710,Target2.bmp,red,2,,,,7,3,25
KW_Experiment5A,25,1,"<?xml version=""1.0""?>\n<Clock xmlns:dt=""urn:schemas-microsoft-com:datatypes""><Description dt:dt=""string"">E-Prime Primary Realtime Clock</Description><StartTime><Timestamp dt:dt=""int"">0</Timestamp><DateUtc dt:dt=""string"">2018-10-17T17:15:01Z</DateUtc></StartTime><FrequencyChanges><FrequencyChange><Frequency dt:dt=""r8"">3215292</Frequency><Timestamp dt:dt=""r8"">5850874100447</Timestamp><Current dt:dt=""r8"">0</Current><DateUtc dt:dt=""string"">2018-10-17T17:15:01Z</DateUtc></FrequencyChange></FrequencyChanges></Clock>\n",KW_Experiment5A-25-1,59.944,1.0.0.105,2,1129285324,Professional,2.0.10.353,2.0.10.353,10/17/2018,10/17/2018 17:15,13:15:01,2.0.10.248,2,2,1,2,,,,,,,,TrainingProc,BlockList,26,1,Distractor1.bmp,1,0,,0,1,135728,600,,0,0,cyan,600,3,600,,vertical,cyan,Distractor1.bmp,lime,Distractor1.bmp,blue,Distractor1.bmp,yellow,Distractor2.bmp,red,Target1.bmp,purple,Distractor1.bmp,,,,TrialProc,4,TrainingTrialList,1,1,-999999,0,136328,0,1,550,136878,Target1.bmp,red,1,,,,11,3,26
KW_Experiment5A,25,1,"<?xml version=""1.0""?>\n<Clock xmlns:dt=""urn:schemas-microsoft-com:datatypes""><Description dt:dt=""string"">E-Prime Primary Realtime Clock</Description><StartTime><Timestamp dt:dt=""int"">0</Timestamp><DateUtc dt:dt=""string"">2018-10-17T17:15:01Z</DateUtc></StartTime><FrequencyChanges><FrequencyChange><Frequency dt:dt=""r8"">3215292</Frequency><Timestamp dt:dt=""r8"">5850874100447</Timestamp><Current dt:dt=""r8"">0</Current><DateUtc dt:dt=""string"">2018-10-17T17:15:01Z</DateUtc></FrequencyChange></FrequencyChanges></Clock>\n",KW_Experiment5A-25-1,59.944,1.0.0.105,2,1129285324,Professional,2.0.10.353,2.0.10.353,10/17/2018,10/17/2018 17:15,13:15:01,2.0.10.248,2,2,1,2,,,,,,,,TrainingProc,BlockList,27,1,Distractor2.bmp,2,0,,0,1,137896,601,,0,0,blue,600,3,600,,vertical,blue,Distractor1.bmp,cyan,Distractor1.bmp,yellow,Distractor2.bmp,purple,Distractor2.bmp,red,Target1.bmp,lime,Distractor2.bmp,,,,TrialProc,3,TrainingTrialList,0,1,-999999,1,138497,0,2,549,139046,Target1.bmp,red,1,,,,11,3,27
KW_Experiment5A,25,1,"<?xml version=""1.0""?>\n<Clock xmlns:dt=""urn:schemas-microsoft-com:datatypes""><Description dt:dt=""string"">E-Prime Primary Realtime Clock</Description><StartTime><Timestamp dt:dt=""int"">0</Timestamp><DateUtc dt:dt=""string"">2018-10-17T17:15:01Z</DateUtc></StartTime><FrequencyChanges><FrequencyChange><Frequency dt:dt=""r8"">3215292</Frequency><Timestamp dt:dt=""r8"">5850874100447</Timestamp><Current dt:dt=""r8"">0</Current><DateUtc dt:dt=""string"">2018-10-17T17:15:01Z</DateUtc></FrequencyChange></FrequencyChanges></Clock>\n",KW_Experiment5A-25-1,59.944,1.0.0.105,2,1129285324,Professional,2.0.10.353,2.0.10.353,10/17/2018,10/17/2018 17:15,13:15:01,2.0.10.248,2,2,1,2,,,,,,,,TrainingProc,BlockList,28,1,Distractor1.bmp,1,0,,0,1,140065,400,,0,0,cyan,400,1,400,4,vertical,cyan,Distractor1.bmp,purple,Distractor1.bmp,yellow,Distractor1.bmp,red,Distractor1.bmp,lime,Target1.bmp,blue,Distractor1.bmp,,,,TrialProc,,TrainingTrialList,1,1,-999999,0,140465,0,1,933,141398,Target1.bmp,lime,1,,,,5,3,28
KW_Experiment5A,25,1,"<?xml version=""1.0""?>\n<Clock xmlns:dt=""urn:schemas-microsoft-com:datatypes""><Description dt:dt=""string"">E-Prime Primary Realtime Clock</Description><StartTime><Timestamp dt:dt=""int"">0</Timestamp><DateUtc dt:dt=""string"">2018-10-17T17:15:01Z</DateUtc></StartTime><FrequencyChanges><FrequencyChange><Frequency dt:dt=""r8"">3215292</Frequency><Timestamp dt:dt=""r8"">5850874100447</Timestamp><Current dt:dt=""r8"">0</Current><DateUtc dt:dt=""string"">2018-10-17T17:15:01Z</DateUtc></FrequencyChange></FrequencyChanges></Clock>\n",KW_Experiment5A-25-1,59.944,1.0.0.105,2,1129285324,Professional,2.0.10.353,2.0.10.353,10/17/2018,10/17/2018 17:15,13:15:01,2.0.10.248,2,2,1,2,,,,,,,,TrainingProc,BlockList,29,2,Distractor2.bmp,2,0,,0,1,142417,601,,0,0,cyan,600,3,600,4,horizontal,cyan,Distractor2.bmp,blue,Distractor1.bmp,red,Distractor2.bmp,yellow,Distractor1.bmp,purple,Distractor2.bmp,lime,Target2.bmp,,,,TrialProc,,TrainingTrialList,1,2,-999999,1,143018,0,2,724,143742,Target2.bmp,lime,2,,,,6,3,29
KW_Experiment5A,25,1,"<?xml version=""1.0""?>\n<Clock xmlns:dt=""urn:schemas-microsoft-com:datatypes""><Description dt:dt=""string"">E-Prime Primary Realtime Clock</Description><StartTime><Timestamp dt:dt=""int"">0</Timestamp><DateUtc dt:dt=""string"">2018-10-17T17:15:01Z</DateUtc></StartTime><FrequencyChanges><FrequencyChange><Frequency dt:dt=""r8"">3215292</Frequency><Timestamp dt:dt=""r8"">5850874100447</Timestamp><Current dt:dt=""r8"">0</Current><DateUtc dt:dt=""string"">2018-10-17T17:15:01Z</DateUtc></FrequencyChange></FrequencyChanges></Clock>\n",KW_Experiment5A-25-1,59.944,1.0.0.105,2,1129285324,Professional,2.0.10.353,2.0.10.353,10/17/2018,10/17/2018 17:15,13:15:01,2.0.10.248,2,2,1,2,,,,,,,,TrainingProc,BlockList,30,1,Distractor1.bmp,1,0,,0,1,144753,600,,0,0,purple,600,3,600,,vertical,purple,Distractor2.bmp,blue,Distractor2.bmp,cyan,Distractor1.bmp,yellow,Distractor2.bmp,red,Target1.bmp,lime,Distractor1.bmp,,,,TrialProc,5,TrainingTrialList,1,1,-999999,0,145353,0,1,700,146053,Target1.bmp,red,1,,,,11,3,30
KW_Experiment5A,25,1,"<?xml version=""1.0""?>\n<Clock xmlns:dt=""urn:schemas-microsoft-com:datatypes""><Description dt:dt=""string"">E-Prime Primary Realtime Clock</Description><StartTime><Timestamp dt:dt=""int"">0</Timestamp><DateUtc dt:dt=""string"">2018-10-17T17:15:01Z</DateUtc></StartTime><FrequencyChanges><FrequencyChange><Frequency dt:dt=""r8"">3215292</Frequency><Timestamp dt:dt=""r8"">5850874100447</Timestamp><Current dt:dt=""r8"">0</Current><DateUtc dt:dt=""string"">2018-10-17T17:15:01Z</DateUtc></FrequencyChange></FrequencyChanges></Clock>\n",KW_Experiment5A-25-1,59.944,1.0.0.105,2,1129285324,Professional,2.0.10.353,2.0.10.353,10/17/2018,10/17/2018 17:15,13:15:01,2.0.10.248,2,2,1,2,,,,,,,,TrainingProc,BlockList,31,1,Distractor1.bmp,1,0,,0,1,147071,601,,0,0,blue,600,3,600,,vertical,blue,Distractor1.bmp,red,Target1.bmp,yellow,Distractor1.bmp,purple,Distractor1.bmp,lime,Distractor1.bmp,cyan,Distractor2.bmp,,,,TrialProc,3,TrainingTrialList,1,1,-999999,1,147672,0,1,1173,148845,Target1.bmp,red,1,,,,8,3,31
KW_Experiment5A,25,1,"<?xml version=""1.0""?>\n<Clock xmlns:dt=""urn:schemas-microsoft-com:datatypes""><Description dt:dt=""string"">E-Prime Primary Realtime Clock</Description><StartTime><Timestamp dt:dt=""int"">0</Timestamp><DateUtc dt:dt=""string"">2018-10-17T17:15:01Z</DateUtc></StartTime><FrequencyChanges><FrequencyChange><Frequency dt:dt=""r8"">3215292</Frequency><Timestamp dt:dt=""r8"">5850874100447</Timestamp><Current dt:dt=""r8"">0</Current><DateUtc dt:dt=""string"">2018-10-17T17:15:01Z</DateUtc></FrequencyChange></FrequencyChanges></Clock>\n",KW_Experiment5A-25-1,59.944,1.0.0.105,2,1129285324,Professional,2.0.10.353,2.0.10.353,10/17/2018,10/17/2018 17:15,13:15:01,2.0.10.248,2,2,1,2,,,,,,,,TrainingProc,BlockList,32,1,Distractor1.bmp,1,0,,0,1,149857,601,,0,0,purple,600,3,600,,vertical,purple,Distractor1.bmp,red,Target1.bmp,lime,Distractor1.bmp,yellow,Distractor2.bmp,cyan,Distractor1.bmp,blue,Distractor1.bmp,,,,TrialProc,5,TrainingTrialList,1,1,-999999,1,150458,0,1,939,151397,Target1.bmp,red,1,,,,8,3,32
KW_Experiment5A,25,1,"<?xml version=""1.0""?>\n<Clock xmlns:dt=""urn:schemas-microsoft-com:datatypes""><Description dt:dt=""string"">E-Prime Primary Realtime Clock</Description><StartTime><Timestamp dt:dt=""int"">0</Timestamp><DateUtc dt:dt=""string"">2018-10-17T17:15:01Z</DateUtc></StartTime><FrequencyChanges><FrequencyChange><Frequency dt:dt=""r8"">3215292</Frequency><Timestamp dt:dt=""r8"">5850874100447</Timestamp><Current dt:dt=""r8"">0</Current><DateUtc dt:dt=""string"">2018-10-17T17:15:01Z</DateUtc></FrequencyChange></FrequencyChanges></Clock>\n",KW_Experiment5A-25-1,59.944,1.0.0.105,2,1129285324,Professional,2.0.10.353,2.0.10.353,10/17/2018,10/17/2018 17:15,13:15:01,2.0.10.248,2,2,1,2,,,,,,,,TrainingProc,BlockList,33,2,Distractor2.bmp,2,0,,0,1,152410,500,,0,0,yellow,500,2,500,,horizontal,yellow,Distractor2.bmp,purple,Distractor1.bmp,cyan,Distractor2.bmp,lime,Distractor1.bmp,blue,Distractor2.bmp,red,Target2.bmp,,,,TrialProc,2,TrainingTrialList,1,2,-999999,0,152910,0,2,559,153469,Target2.bmp,red,2,,,,12,3,33
KW_Experiment5A,25,1,"<?xml version=""1.0""?>\n<Clock xmlns:dt=""urn:schemas-microsoft-com:datatypes""><Description dt:dt=""string"">E-Prime Primary Realtime Clock</Description><StartTime><Timestamp dt:dt=""int"">0</Timestamp><DateUtc dt:dt=""string"">2018-10-17T17:15:01Z</DateUtc></StartTime><FrequencyChanges><FrequencyChange><Frequency dt:dt=""r8"">3215292</Frequency><Timestamp dt:dt=""r8"">5850874100447</Timestamp><Current dt:dt=""r8"">0</Current><DateUtc dt:dt=""string"">2018-10-17T17:15:01Z</DateUtc></FrequencyChange></FrequencyChanges></Clock>\n",KW_Experiment5A-25-1,59.944,1.0.0.105,2,1129285324,Professional,2.0.10.353,2.0.10.353,10/17/2018,10/17/2018 17:15,13:15:01,2.0.10.248,2,2,1,2,,,,,,,,TrainingProc,BlockList,34,1,Distractor2.bmp,2,0,,0,1,154495,400,,0,0,yellow,400,1,400,,vertical,yellow,Distractor1.bmp,cyan,Distractor2.bmp,red,Target1.bmp,purple,Distractor2.bmp,blue,Distractor2.bmp,lime,Distractor1.bmp,,,,TrialProc,2,TrainingTrialList,1,1,-999999,0,154895,0,1,942,155837,Target1.bmp,red,1,,,,9,3,34
KW_Experiment5A,25,1,"<?xml version=""1.0""?>\n<Clock xmlns:dt=""urn:schemas-microsoft-com:datatypes""><Description dt:dt=""string"">E-Prime Primary Realtime Clock</Description><StartTime><Timestamp dt:dt=""int"">0</Timestamp><DateUtc dt:dt=""string"">2018-10-17T17:15:01Z</DateUtc></StartTime><FrequencyChanges><FrequencyChange><Frequency dt:dt=""r8"">3215292</Frequency><Timestamp dt:dt=""r8"">5850874100447</Timestamp><Current dt:dt=""r8"">0</Current><DateUtc dt:dt=""string"">2018-10-17T17:15:01Z</DateUtc></FrequencyChange></FrequencyChanges></Clock>\n",KW_Experiment5A-25-1,59.944,1.0.0.105,2,1129285324,Professional,2.0.10.353,2.0.10.353,10/17/2018,10/17/2018 17:15,13:15:01,2.0.10.248,2,2,1,2,,,,,,,,TrainingProc,BlockList,35,2,Distractor1.bmp,1,0,,0,1,156847,600,,0,0,purple,600,3,600,,horizontal,red,Target2.bmp,lime,Distractor1.bmp,yellow,Distractor2.bmp,blue,Distractor1.bmp,cyan,Distractor2.bmp,purple,Distractor2.bmp,,,,TrialProc,5,TrainingTrialList,1,2,-999999,0,157447,0,2,1302,158749,Target2.bmp,red,2,,,,7,3,35
KW_Experiment5A,25,1,"<?xml version=""1.0""?>\n<Clock xmlns:dt=""urn:schemas-microsoft-com:datatypes""><Description dt:dt=""string"">E-Prime Primary Realtime Clock</Description><StartTime><Timestamp dt:dt=""int"">0</Timestamp><DateUtc dt:dt=""string"">2018-10-17T17:15:01Z</DateUtc></StartTime><FrequencyChanges><FrequencyChange><Frequency dt:dt=""r8"">3215292</Frequency><Timestamp dt:dt=""r8"">5850874100447</Timestamp><Current dt:dt=""r8"">0</Current><DateUtc dt:dt=""string"">2018-10-17T17:15:01Z</DateUtc></FrequencyChange></FrequencyChanges></Clock>\n",KW_Experiment5A-25-1,59.944,1.0.0.105,2,1129285324,Professional,2.0.10.353,2.0.10.353,10/17/2018,10/17/2018 17:15,13:15:01,2.0.10.248,2,2,1,2,,,,,,,,TrainingProc,BlockList,36,1,Distractor2.bmp,2,0,,0,1,159766,601,,0,0,yellow,600,3,600,,vertical,yellow,Distractor2.bmp,purple,Distractor1.bmp,cyan,Distractor2.bmp,red,Target1.bmp,blue,Distractor2.bmp,lime,Distractor2.bmp,,,,TrialProc,2,TrainingTrialList,1,1,-999999,1,160367,0,1,886,161253,Target1.bmp,red,1,,,,10,3,36
KW_Experiment5A,25,1,"<?xml version=""1.0""?>\n<Clock xmlns:dt=""urn:schemas-microsoft-com:datatypes""><Description dt:dt=""string"">E-Prime Primary Realtime Clock</Description><StartTime><Timestamp dt:dt=""int"">0</Timestamp><DateUtc dt:dt=""string"">2018-10-17T17:15:01Z</DateUtc></StartTime><FrequencyChanges><FrequencyChange><Frequency dt:dt=""r8"">3215292</Frequency><Timestamp dt:dt=""r8"">5850874100447</Timestamp><Current dt:dt=""r8"">0</Current><DateUtc dt:dt=""string"">2018-10-17T17:15:01Z</DateUtc></FrequencyChange></FrequencyChanges></Clock>\n",KW_Experiment5A-25-1,59.944,1.0.0.105,2,1129285324,Professional,2.0.10.353,2.0.10.353,10/17/2018,10/17/2018 17:15,13:15:01,2.0.10.248,2,2,1,2,,,,,,,,TrainingProc,BlockList,37,1,Distractor2.bmp,2,0,,0,1,162269,600,,0,0,cyan,600,3,600,4,vertical,cyan,Distractor1.bmp,blue,Distractor1.bmp,lime,Target1.bmp,purple,Distractor2.bmp,yellow,Distractor1.bmp,red,Distractor2.bmp,,,,TrialProc,,TrainingTrialList,0,1,-999999,0,162869,0,2,696,163565,Target1.bmp,lime,1,,,,3,3,37
KW_Experiment5A,25,1,"<?xml version=""1.0""?>\n<Clock xmlns:dt=""urn:schemas-microsoft-com:datatypes""><Description dt:dt=""string"">E-Prime Primary Realtime Clock</Description><StartTime><Timestamp dt:dt=""int"">0</Timestamp><DateUtc dt:dt=""string"">2018-10-17T17:15:01Z</DateUtc></StartTime><FrequencyChanges><FrequencyChange><Frequency dt:dt=""r8"">3215292</Frequency><Timestamp dt:dt=""r8"">5850874100447</Timestamp><Current dt:dt=""r8"">0</Current><DateUtc dt:dt=""string"">2018-10-17T17:15:01Z</DateUtc></FrequencyChange></FrequencyChanges></Clock>\n",KW_Experiment5A-25-1,59.944,1.0.0.105,2,1129285324,Professional,2.0.10.353,2.0.10.353,10/17/2018,10/17/2018 17:15,13:15:01,2.0.10.248,2,2,1,2,,,,,,,,TrainingProc,BlockList,38,2,Distractor2.bmp,2,0,,0,1,164587,601,,0,0,purple,600,3,600,,horizontal,purple,Distractor2.bmp,yellow,Distractor2.bmp,lime,Distractor2.bmp,blue,Distractor1.bmp,cyan,Distractor2.bmp,red,Target2.bmp,,,,TrialProc,5,TrainingTrialList,0,2,-999999,1,165188,0,1,561,165749,Target2.bmp,red,2,,,,12,3,38
KW_Experiment5A,25,1,"<?xml version=""1.0""?>\n<Clock xmlns:dt=""urn:schemas-microsoft-com:datatypes""><Description dt:dt=""string"">E-Prime Primary Realtime Clock</Description><StartTime><Timestamp dt:dt=""int"">0</Timestamp><DateUtc dt:dt=""string"">2018-10-17T17:15:01Z</DateUtc></StartTime><FrequencyChanges><FrequencyChange><Frequency dt:dt=""r8"">3215292</Frequency><Timestamp dt:dt=""r8"">5850874100447</Timestamp><Current dt:dt=""r8"">0</Current><DateUtc dt:dt=""string"">2018-10-17T17:15:01Z</DateUtc></FrequencyChange></FrequencyChanges></Clock>\n",KW_Experiment5A-25-1,59.944,1.0.0.105,2,1129285324,Professional,2.0.10.353,2.0.10.353,10/17/2018,10/17/2018 17:15,13:15:01,2.0.10.248,2,2,1,2,,,,,,,,TrainingProc,BlockList,39,1,Distractor1.bmp,1,0,,0,1,166773,400,,0,0,yellow,400,1,400,2,vertical,yellow,Distractor1.bmp,lime,Target1.bmp,blue,Distractor1.bmp,red,Distractor1.bmp,cyan,Distractor2.bmp,purple,Distractor1.bmp,,,,TrialProc,,TrainingTrialList,1,1,-999999,0,167173,0,1,1064,168237,Target1.bmp,lime,1,,,,2,3,39
KW_Experiment5A,25,1,"<?xml version=""1.0""?>\n<Clock xmlns:dt=""urn:schemas-microsoft-com:datatypes""><Description dt:dt=""string"">E-Prime Primary Realtime Clock</Description><StartTime><Timestamp dt:dt=""int"">0</Timestamp><DateUtc dt:dt=""string"">2018-10-17T17:15:01Z</DateUtc></StartTime><FrequencyChanges><FrequencyChange><Frequency dt:dt=""r8"">3215292</Frequency><Timestamp dt:dt=""r8"">5850874100447</Timestamp><Current dt:dt=""r8"">0</Current><DateUtc dt:dt=""string"">2018-10-17T17:15:01Z</DateUtc></FrequencyChange></FrequencyChanges></Clock>\n",KW_Experiment5A-25-1,59.944,1.0.0.105,2,1129285324,Professional,2.0.10.353,2.0.10.353,10/17/2018,10/17/2018 17:15,13:15:01,2.0.10.248,2,2,1,2,,,,,,,,TrainingProc,BlockList,40,1,Distractor1.bmp,1,0,,0,1,169258,401,,0,0,yellow,400,1,400,,vertical,yellow,Distractor2.bmp,red,Target1.bmp,cyan,Distractor1.bmp,purple,Distractor1.bmp,lime,Distractor1.bmp,blue,Distractor1.bmp,,,,TrialProc,2,TrainingTrialList,1,1,-999999,1,169659,0,1,650,170309,Target1.bmp,red,1,,,,8,3,40
KW_Experiment5A,25,1,"<?xml version=""1.0""?>\n<Clock xmlns:dt=""urn:schemas-microsoft-com:datatypes""><Description dt:dt=""string"">E-Prime Primary Realtime Clock</Description><StartTime><Timestamp dt:dt=""int"">0</Timestamp><DateUtc dt:dt=""string"">2018-10-17T17:15:01Z</DateUtc></StartTime><FrequencyChanges><FrequencyChange><Frequency dt:dt=""r8"">3215292</Frequency><Timestamp dt:dt=""r8"">5850874100447</Timestamp><Current dt:dt=""r8"">0</Current><DateUtc dt:dt=""string"">2018-10-17T17:15:01Z</DateUtc></FrequencyChange></FrequencyChanges></Clock>\n",KW_Experiment5A-25-1,59.944,1.0.0.105,2,1129285324,Professional,2.0.10.353,2.0.10.353,10/17/2018,10/17/2018 17:15,13:15:01,2.0.10.248,2,2,1,2,,,,,,,,TrainingProc,BlockList,41,2,Distractor1.bmp,1,0,,0,1,171327,600,,0,0,blue,600,3,600,3,horizontal,blue,Distractor1.bmp,red,Distractor1.bmp,yellow,Distractor1.bmp,lime,Target2.bmp,purple,Distractor1.bmp,cyan,Distractor1.bmp,,,,TrialProc,,TrainingTrialList,1,2,-999999,0,171927,0,2,622,172549,Target2.bmp,lime,2,,,,4,3,41
KW_Experiment5A,25,1,"<?xml version=""1.0""?>\n<Clock xmlns:dt=""urn:schemas-microsoft-com:datatypes""><Description dt:dt=""string"">E-Prime Primary Realtime Clock</Description><StartTime><Timestamp dt:dt=""int"">0</Timestamp><DateUtc dt:dt=""string"">2018-10-17T17:15:01Z</DateUtc></StartTime><FrequencyChanges><FrequencyChange><Frequency dt:dt=""r8"">3215292</Frequency><Timestamp dt:dt=""r8"">5850874100447</Timestamp><Current dt:dt=""r8"">0</Current><DateUtc dt:dt=""string"">2018-10-17T17:15:01Z</DateUtc></FrequencyChange></FrequencyChanges></Clock>\n",KW_Experiment5A-25-1,59.944,1.0.0.105,2,1129285324,Professional,2.0.10.353,2.0.10.353,10/17/2018,10/17/2018 17:15,13:15:01,2.0.10.248,2,2,1,2,,,,,,,,TrainingProc,BlockList,42,2,Distractor2.bmp,2,0,,0,1,173562,501,,0,0,lime,500,2,500,,horizontal,red,Target2.bmp,blue,Distractor2.bmp,yellow,Distractor2.bmp,purple,Distractor2.bmp,cyan,Distractor1.bmp,lime,Distractor2.bmp,,,,TrialProc,6,TrainingTrialList,1,2,-999999,1,174063,0,2,782,174845,Target2.bmp,red,2,,,,7,3,42
KW_Experiment5A,25,1,"<?xml version=""1.0""?>\n<Clock xmlns:dt=""urn:schemas-microsoft-com:datatypes""><Description dt:dt=""string"">E-Prime Primary Realtime Clock</Description><StartTime><Timestamp dt:dt=""int"">0</Timestamp><DateUtc dt:dt=""string"">2018-10-17T17:15:01Z</DateUtc></StartTime><FrequencyChanges><FrequencyChange><Frequency dt:dt=""r8"">3215292</Frequency><Timestamp dt:dt=""r8"">5850874100447</Timestamp><Current dt:dt=""r8"">0</Current><DateUtc dt:dt=""string"">2018-10-17T17:15:01Z</DateUtc></FrequencyChange></FrequencyChanges></Clock>\n",KW_Experiment5A-25-1,59.944,1.0.0.105,2,1129285324,Professional,2.0.10.353,2.0.10.353,10/17/2018,10/17/2018 17:15,13:15:01,2.0.10.248,2,2,1,2,,,,,,,,TrainingProc,BlockList,43,1,Distractor2.bmp,2,0,,0,1,175864,601,,0,0,cyan,600,3,600,,vertical,cyan,Distractor2.bmp,lime,Distractor2.bmp,purple,Distractor1.bmp,red,Target1.bmp,yellow,Distractor2.bmp,blue,Distractor1.bmp,,,,TrialProc,4,TrainingTrialList,1,1,-999999,1,176465,0,1,492,176957,Target1.bmp,red,1,,,,10,3,43
KW_Experiment5A,25,1,"<?xml version=""1.0""?>\n<Clock xmlns:dt=""urn:schemas-microsoft-com:datatypes""><Description dt:dt=""string"">E-Prime Primary Realtime Clock</Description><StartTime><Timestamp dt:dt=""int"">0</Timestamp><DateUtc dt:dt=""string"">2018-10-17T17:15:01Z</DateUtc></StartTime><FrequencyChanges><FrequencyChange><Frequency dt:dt=""r8"">3215292</Frequency><Timestamp dt:dt=""r8"">5850874100447</Timestamp><Current dt:dt=""r8"">0</Current><DateUtc dt:dt=""string"">2018-10-17T17:15:01Z</DateUtc></FrequencyChange></FrequencyChanges></Clock>\n",KW_Experiment5A-25-1,59.944,1.0.0.105,2,1129285324,Professional,2.0.10.353,2.0.10.353,10/17/2018,10/17/2018 17:15,13:15:01,2.0.10.248,2,2,1,2,,,,,,,,TrainingProc,BlockList,44,2,Distractor1.bmp,1,0,,0,1,177966,400,,0,0,yellow,400,1,400,,horizontal,yellow,Distractor1.bmp,lime,Distractor1.bmp,red,Target2.bmp,purple,Distractor1.bmp,blue,Distractor1.bmp,cyan,Distractor2.bmp,,,,TrialProc,2,TrainingTrialList,1,2,-999999,0,178366,0,2,623,178989,Target2.bmp,red,2,,,,9,3,44
KW_Experiment5A,25,1,"<?xml version=""1.0""?>\n<Clock xmlns:dt=""urn:schemas-microsoft-com:datatypes""><Description dt:dt=""string"">E-Prime Primary Realtime Clock</Description><StartTime><Timestamp dt:dt=""int"">0</Timestamp><DateUtc dt:dt=""string"">2018-10-17T17:15:01Z</DateUtc></StartTime><FrequencyChanges><FrequencyChange><Frequency dt:dt=""r8"">3215292</Frequency><Timestamp dt:dt=""r8"">5850874100447</Timestamp><Current dt:dt=""r8"">0</Current><DateUtc dt:dt=""string"">2018-10-17T17:15:01Z</DateUtc></FrequencyChange></FrequencyChanges></Clock>\n",KW_Experiment5A-25-1,59.944,1.0.0.105,2,1129285324,Professional,2.0.10.353,2.0.10.353,10/17/2018,10/17/2018 17:15,13:15:01,2.0.10.248,2,2,1,2,,,,,,,,TrainingProc,BlockList,45,1,Distractor1.bmp,1,0,,0,1,180001,601,,0,0,yellow,600,3,600,,vertical,yellow,Distractor1.bmp,lime,Distractor1.bmp,cyan,Distractor2.bmp,purple,Distractor1.bmp,blue,Distractor2.bmp,red,Target1.bmp,,,,TrialProc,2,TrainingTrialList,1,1,-999999,1,180602,0,1,563,181165,Target1.bmp,red,1,,,,12,3,45
KW_Experiment5A,25,1,"<?xml version=""1.0""?>\n<Clock xmlns:dt=""urn:schemas-microsoft-com:datatypes""><Description dt:dt=""string"">E-Prime Primary Realtime Clock</Description><StartTime><Timestamp dt:dt=""int"">0</Timestamp><DateUtc dt:dt=""string"">2018-10-17T17:15:01Z</DateUtc></StartTime><FrequencyChanges><FrequencyChange><Frequency dt:dt=""r8"">3215292</Frequency><Timestamp dt:dt=""r8"">5850874100447</Timestamp><Current dt:dt=""r8"">0</Current><DateUtc dt:dt=""string"">2018-10-17T17:15:01Z</DateUtc></FrequencyChange></FrequencyChanges></Clock>\n",KW_Experiment5A-25-1,59.944,1.0.0.105,2,1129285324,Professional,2.0.10.353,2.0.10.353,10/17/2018,10/17/2018 17:15,13:15:01,2.0.10.248,2,2,1,2,,,,,,,,TrainingProc,BlockList,46,1,Distractor2.bmp,2,0,,0,1,182187,500,,0,0,blue,500,2,500,,vertical,blue,Distractor2.bmp,yellow,Distractor2.bmp,purple,Distractor2.bmp,red,Target1.bmp,lime,Distractor2.bmp,cyan,Distractor1.bmp,,,,TrialProc,3,TrainingTrialList,1,1,-999999,0,182687,0,1,606,183293,Target1.bmp,red,1,,,,10,3,46
KW_Experiment5A,25,1,"<?xml version=""1.0""?>\n<Clock xmlns:dt=""urn:schemas-microsoft-com:datatypes""><Description dt:dt=""string"">E-Prime Primary Realtime Clock</Description><StartTime><Timestamp dt:dt=""int"">0</Timestamp><DateUtc dt:dt=""string"">2018-10-17T17:15:01Z</DateUtc></StartTime><FrequencyChanges><FrequencyChange><Frequency dt:dt=""r8"">3215292</Frequency><Timestamp dt:dt=""r8"">5850874100447</Timestamp><Current dt:dt=""r8"">0</Current><DateUtc dt:dt=""string"">2018-10-17T17:15:01Z</DateUtc></FrequencyChange></FrequencyChanges></Clock>\n",KW_Experiment5A-25-1,59.944,1.0.0.105,2,1129285324,Professional,2.0.10.353,2.0.10.353,10/17/2018,10/17/2018 17:15,13:15:01,2.0.10.248,2,2,1,2,,,,,,,,TrainingProc,BlockList,47,2,Distractor2.bmp,2,0,,0,1,184305,401,,0,0,blue,400,1,400,3,horizontal,lime,Target2.bmp,blue,Distractor2.bmp,yellow,Distractor1.bmp,cyan,Distractor2.bmp,purple,Distractor1.bmp,red,Distractor1.bmp,,,,TrialProc,,TrainingTrialList,1,2,-999999,1,184706,0,2,603,185309,Target2.bmp,lime,2,,,,1,3,47
KW_Experiment5A,25,1,"<?xml version=""1.0""?>\n<Clock xmlns:dt=""urn:schemas-microsoft-com:datatypes""><Description dt:dt=""string"">E-Prime Primary Realtime Clock</Description><StartTime><Timestamp dt:dt=""int"">0</Timestamp><DateUtc dt:dt=""string"">2018-10-17T17:15:01Z</DateUtc></StartTime><FrequencyChanges><FrequencyChange><Frequency dt:dt=""r8"">3215292</Frequency><Timestamp dt:dt=""r8"">5850874100447</Timestamp><Current dt:dt=""r8"">0</Current><DateUtc dt:dt=""string"">2018-10-17T17:15:01Z</DateUtc></FrequencyChange></FrequencyChanges></Clock>\n",KW_Experiment5A-25-1,59.944,1.0.0.105,2,1129285324,Professional,2.0.10.353,2.0.10.353,10/17/2018,10/17/2018 17:15,13:15:01,2.0.10.248,2,2,1,2,,,,,,,,TrainingProc,BlockList,48,1,Distractor2.bmp,2,0,,0,1,186324,600,,0,0,lime,600,3,600,,vertical,lime,Distractor1.bmp,blue,Distractor1.bmp,red,Target1.bmp,cyan,Distractor2.bmp,purple,Distractor1.bmp,yellow,Distractor1.bmp,,,,TrialProc,6,TrainingTrialList,1,1,-999999,0,186924,0,1,648,187572,Target1.bmp,red,1,,,,9,3,48
KW_Experiment5A,25,1,"<?xml version=""1.0""?>\n<Clock xmlns:dt=""urn:schemas-microsoft-com:datatypes""><Description dt:dt=""string"">E-Prime Primary Realtime Clock</Description><StartTime><Timestamp dt:dt=""int"">0</Timestamp><DateUtc dt:dt=""string"">2018-10-17T17:15:01Z</DateUtc></StartTime><FrequencyChanges><FrequencyChange><Frequency dt:dt=""r8"">3215292</Frequency><Timestamp dt:dt=""r8"">5850874100447</Timestamp><Current dt:dt=""r8"">0</Current><DateUtc dt:dt=""string"">2018-10-17T17:15:01Z</DateUtc></FrequencyChange></FrequencyChanges></Clock>\n",KW_Experiment5A-25-1,59.944,1.0.0.105,2,1129285324,Professional,2.0.10.353,2.0.10.353,10/17/2018,10/17/2018 17:15,13:15:01,2.0.10.248,3,2,1,3,,,,,,,,TrainingProc,BlockList,1,1,Distractor1.bmp,1,0,,0,23,190211,600,,0,0,blue,600,3,600,,vertical,blue,Distractor2.bmp,lime,Distractor1.bmp,cyan,Distractor1.bmp,red,Target1.bmp,purple,Distractor1.bmp,yellow,Distractor1.bmp,,,,TrialProc,3,TrainingTrialList,1,1,-999999,0,190811,0,1,721,191532,Target1.bmp,red,1,,,,10,4,49
KW_Experiment5A,25,1,"<?xml version=""1.0""?>\n<Clock xmlns:dt=""urn:schemas-microsoft-com:datatypes""><Description dt:dt=""string"">E-Prime Primary Realtime Clock</Description><StartTime><Timestamp dt:dt=""int"">0</Timestamp><DateUtc dt:dt=""string"">2018-10-17T17:15:01Z</DateUtc></StartTime><FrequencyChanges><FrequencyChange><Frequency dt:dt=""r8"">3215292</Frequency><Timestamp dt:dt=""r8"">5850874100447</Timestamp><Current dt:dt=""r8"">0</Current><DateUtc dt:dt=""string"">2018-10-17T17:15:01Z</DateUtc></FrequencyChange></FrequencyChanges></Clock>\n",KW_Experiment5A-25-1,59.944,1.0.0.105,2,1129285324,Professional,2.0.10.353,2.0.10.353,10/17/2018,10/17/2018 17:15,13:15:01,2.0.10.248,3,2,1,3,,,,,,,,TrainingProc,BlockList,2,2,Distractor1.bmp,1,0,,0,1,192546,500,,0,0,yellow,500,2,500,,horizontal,yellow,Distractor1.bmp,lime,Distractor1.bmp,purple,Distractor2.bmp,cyan,Distractor2.bmp,blue,Distractor1.bmp,red,Target2.bmp,,,,TrialProc,2,TrainingTrialList,1,2,-999999,0,193046,0,2,606,193652,Target2.bmp,red,2,,,,12,4,50
KW_Experiment5A,25,1,"<?xml version=""1.0""?>\n<Clock xmlns:dt=""urn:schemas-microsoft-com:datatypes""><Description dt:dt=""string"">E-Prime Primary Realtime Clock</Description><StartTime><Timestamp dt:dt=""int"">0</Timestamp><DateUtc dt:dt=""string"">2018-10-17T17:15:01Z</DateUtc></StartTime><FrequencyChanges><FrequencyChange><Frequency dt:dt=""r8"">3215292</Frequency><Timestamp dt:dt=""r8"">5850874100447</Timestamp><Current dt:dt=""r8"">0</Current><DateUtc dt:dt=""string"">2018-10-17T17:15:01Z</DateUtc></FrequencyChange></FrequencyChanges></Clock>\n",KW_Experiment5A-25-1,59.944,1.0.0.105,2,1129285324,Professional,2.0.10.353,2.0.10.353,10/17/2018,10/17/2018 17:15,13:15:01,2.0.10.248,3,2,1,3,,,,,,,,TrainingProc,BlockList,3,1,Distractor1.bmp,1,0,,0,1,194665,400,,0,0,blue,400,1,400,,vertical,red,Target1.bmp,yellow,Distractor1.bmp,purple,Distractor1.bmp,cyan,Distractor2.bmp,lime,Distractor1.bmp,blue,Distractor1.bmp,,,,TrialProc,3,TrainingTrialList,1,1,-999999,0,195065,0,1,715,195780,Target1.bmp,red,1,,,,7,4,51
KW_Experiment5A,25,1,"<?xml version=""1.0""?>\n<Clock xmlns:dt=""urn:schemas-microsoft-com:datatypes""><Description dt:dt=""string"">E-Prime Primary Realtime Clock</Description><StartTime><Timestamp dt:dt=""int"">0</Timestamp><DateUtc dt:dt=""string"">2018-10-17T17:15:01Z</DateUtc></StartTime><FrequencyChanges><FrequencyChange><Frequency dt:dt=""r8"">3215292</Frequency><Timestamp dt:dt=""r8"">5850874100447</Timestamp><Current dt:dt=""r8"">0</Current><DateUtc dt:dt=""string"">2018-10-17T17:15:01Z</DateUtc></FrequencyChange></FrequencyChanges></Clock>\n",KW_Experiment5A-25-1,59.944,1.0.0.105,2,1129285324,Professional,2.0.10.353,2.0.10.353,10/17/2018,10/17/2018 17:15,13:15:01,2.0.10.248,3,2,1,3,,,,,,,,TrainingProc,BlockList,4,2,Distractor2.bmp,2,0,,0,1,196800,500,,0,0,purple,500,2,500,,horizontal,purple,Distractor2.bmp,red,Target2.bmp,blue,Distractor2.bmp,cyan,Distractor2.bmp,yellow,Distractor2.bmp,lime,Distractor1.bmp,,,,TrialProc,5,TrainingTrialList,1,2,-999999,0,197300,0,2,640,197940,Target2.bmp,red,2,,,,8,4,52
KW_Experiment5A,25,1,"<?xml version=""1.0""?>\n<Clock xmlns:dt=""urn:schemas-microsoft-com:datatypes""><Description dt:dt=""string"">E-Prime Primary Realtime Clock</Description><StartTime><Timestamp dt:dt=""int"">0</Timestamp><DateUtc dt:dt=""string"">2018-10-17T17:15:01Z</DateUtc></StartTime><FrequencyChanges><FrequencyChange><Frequency dt:dt=""r8"">3215292</Frequency><Timestamp dt:dt=""r8"">5850874100447</Timestamp><Current dt:dt=""r8"">0</Current><DateUtc dt:dt=""string"">2018-10-17T17:15:01Z</DateUtc></FrequencyChange></FrequencyChanges></Clock>\n",KW_Experiment5A-25-1,59.944,1.0.0.105,2,1129285324,Professional,2.0.10.353,2.0.10.353,10/17/2018,10/17/2018 17:15,13:15:01,2.0.10.248,3,2,1,3,,,,,,,,TrainingProc,BlockList,5,2,Distractor2.bmp,2,0,,0,1,198952,400,,0,0,cyan,400,1,400,,horizontal,cyan,Distractor1.bmp,yellow,Distractor1.bmp,red,Target2.bmp,blue,Distractor2.bmp,purple,Distractor2.bmp,lime,Distractor1.bmp,,,,TrialProc,4,TrainingTrialList,1,2,-999999,0,199352,0,2,604,199956,Target2.bmp,red,2,,,,9,4,53
KW_Experiment5A,25,1,"<?xml version=""1.0""?>\n<Clock xmlns:dt=""urn:schemas-microsoft-com:datatypes""><Description dt:dt=""string"">E-Prime Primary Realtime Clock</Description><StartTime><Timestamp dt:dt=""int"">0</Timestamp><DateUtc dt:dt=""string"">2018-10-17T17:15:01Z</DateUtc></StartTime><FrequencyChanges><FrequencyChange><Frequency dt:dt=""r8"">3215292</Frequency><Timestamp dt:dt=""r8"">5850874100447</Timestamp><Current dt:dt=""r8"">0</Current><DateUtc dt:dt=""string"">2018-10-17T17:15:01Z</DateUtc></FrequencyChange></FrequencyChanges></Clock>\n",KW_Experiment5A-25-1,59.944,1.0.0.105,2,1129285324,Professional,2.0.10.353,2.0.10.353,10/17/2018,10/17/2018 17:15,13:15:01,2.0.10.248,3,2,1,3,,,,,,,,TrainingProc,BlockList,6,2,Distractor2.bmp,2,0,,0,1,200970,401,,0,0,cyan,400,1,400,,horizontal,cyan,Distractor1.bmp,blue,Distractor1.bmp,lime,Distractor2.bmp,yellow,Distractor2.bmp,red,Target2.bmp,purple,Distractor2.bmp,,,,TrialProc,4,TrainingTrialList,0,2,-999999,1,201371,0,1,481,201852,Target2.bmp,red,2,,,,11,4,54
KW_Experiment5A,25,1,"<?xml version=""1.0""?>\n<Clock xmlns:dt=""urn:schemas-microsoft-com:datatypes""><Description dt:dt=""string"">E-Prime Primary Realtime Clock</Description><StartTime><Timestamp dt:dt=""int"">0</Timestamp><DateUtc dt:dt=""string"">2018-10-17T17:15:01Z</DateUtc></StartTime><FrequencyChanges><FrequencyChange><Frequency dt:dt=""r8"">3215292</Frequency><Timestamp dt:dt=""r8"">5850874100447</Timestamp><Current dt:dt=""r8"">0</Current><DateUtc dt:dt=""string"">2018-10-17T17:15:01Z</DateUtc></FrequencyChange></FrequencyChanges></Clock>\n",KW_Experiment5A-25-1,59.944,1.0.0.105,2,1129285324,Professional,2.0.10.353,2.0.10.353,10/17/2018,10/17/2018 17:15,13:15:01,2.0.10.248,3,2,1,3,,,,,,,,TrainingProc,BlockList,7,2,Distractor2.bmp,2,0,,0,1,202872,501,,0,0,purple,500,2,500,5,horizontal,lime,Target2.bmp,purple,Distractor2.bmp,blue,Distractor2.bmp,cyan,Distractor1.bmp,red,Distractor2.bmp,yellow,Distractor1.bmp,,,,TrialProc,,TrainingTrialList,1,2,-999999,1,203373,0,2,903,204276,Target2.bmp,lime,2,,,,1,4,55
KW_Experiment5A,25,1,"<?xml version=""1.0""?>\n<Clock xmlns:dt=""urn:schemas-microsoft-com:datatypes""><Description dt:dt=""string"">E-Prime Primary Realtime Clock</Description><StartTime><Timestamp dt:dt=""int"">0</Timestamp><DateUtc dt:dt=""string"">2018-10-17T17:15:01Z</DateUtc></StartTime><FrequencyChanges><FrequencyChange><Frequency dt:dt=""r8"">3215292</Frequency><Timestamp dt:dt=""r8"">5850874100447</Timestamp><Current dt:dt=""r8"">0</Current><DateUtc dt:dt=""string"">2018-10-17T17:15:01Z</DateUtc></FrequencyChange></FrequencyChanges></Clock>\n",KW_Experiment5A-25-1,59.944,1.0.0.105,2,1129285324,Professional,2.0.10.353,2.0.10.353,10/17/2018,10/17/2018 17:15,13:15:01,2.0.10.248,3,2,1,3,,,,,,,,TrainingProc,BlockList,8,1,Distractor1.bmp,1,0,,0,1,205291,400,,0,0,blue,400,1,400,,vertical,blue,Distractor2.bmp,yellow,Distractor1.bmp,cyan,Distractor2.bmp,red,Target1.bmp,lime,Distractor1.bmp,purple,Distractor1.bmp,,,,TrialProc,3,TrainingTrialList,1,1,-999999,0,205691,0,1,785,206476,Target1.bmp,red,1,,,,10,4,56
KW_Experiment5A,25,1,"<?xml version=""1.0""?>\n<Clock xmlns:dt=""urn:schemas-microsoft-com:datatypes""><Description dt:dt=""string"">E-Prime Primary Realtime Clock</Description><StartTime><Timestamp dt:dt=""int"">0</Timestamp><DateUtc dt:dt=""string"">2018-10-17T17:15:01Z</DateUtc></StartTime><FrequencyChanges><FrequencyChange><Frequency dt:dt=""r8"">3215292</Frequency><Timestamp dt:dt=""r8"">5850874100447</Timestamp><Current dt:dt=""r8"">0</Current><DateUtc dt:dt=""string"">2018-10-17T17:15:01Z</DateUtc></FrequencyChange></FrequencyChanges></Clock>\n",KW_Experiment5A-25-1,59.944,1.0.0.105,2,1129285324,Professional,2.0.10.353,2.0.10.353,10/17/2018,10/17/2018 17:15,13:15:01,2.0.10.248,3,2,1,3,,,,,,,,TrainingProc,BlockList,9,1,Distractor1.bmp,1,0,,0,1,207493,600,,0,0,red,600,3,600,1,vertical,red,Distractor1.bmp,lime,Target1.bmp,cyan,Distractor1.bmp,yellow,Distractor2.bmp,blue,Distractor2.bmp,purple,Distractor1.bmp,,,,TrialProc,,TrainingTrialList,0,1,-999999,0,208093,0,2,1127,209220,Target1.bmp,lime,1,,,,2,4,57
KW_Experiment5A,25,1,"<?xml version=""1.0""?>\n<Clock xmlns:dt=""urn:schemas-microsoft-com:datatypes""><Description dt:dt=""string"">E-Prime Primary Realtime Clock</Description><StartTime><Timestamp dt:dt=""int"">0</Timestamp><DateUtc dt:dt=""string"">2018-10-17T17:15:01Z</DateUtc></StartTime><FrequencyChanges><FrequencyChange><Frequency dt:dt=""r8"">3215292</Frequency><Timestamp dt:dt=""r8"">5850874100447</Timestamp><Current dt:dt=""r8"">0</Current><DateUtc dt:dt=""string"">2018-10-17T17:15:01Z</DateUtc></FrequencyChange></FrequencyChanges></Clock>\n",KW_Experiment5A-25-1,59.944,1.0.0.105,2,1129285324,Professional,2.0.10.353,2.0.10.353,10/17/2018,10/17/2018 17:15,13:15:01,2.0.10.248,3,2,1,3,,,,,,,,TrainingProc,BlockList,10,1,Distractor1.bmp,1,0,,0,0,210245,601,,0,0,yellow,600,3,600,,vertical,yellow,Distractor1.bmp,lime,Distractor1.bmp,blue,Distractor2.bmp,purple,Distractor1.bmp,cyan,Distractor1.bmp,red,Target1.bmp,,,,TrialProc,2,TrainingTrialList,1,1,-999999,1,210846,0,1,718,211564,Target1.bmp,red,1,,,,12,4,58
KW_Experiment5A,25,1,"<?xml version=""1.0""?>\n<Clock xmlns:dt=""urn:schemas-microsoft-com:datatypes""><Description dt:dt=""string"">E-Prime Primary Realtime Clock</Description><StartTime><Timestamp dt:dt=""int"">0</Timestamp><DateUtc dt:dt=""string"">2018-10-17T17:15:01Z</DateUtc></StartTime><FrequencyChanges><FrequencyChange><Frequency dt:dt=""r8"">3215292</Frequency><Timestamp dt:dt=""r8"">5850874100447</Timestamp><Current dt:dt=""r8"">0</Current><DateUtc dt:dt=""string"">2018-10-17T17:15:01Z</DateUtc></FrequencyChange></FrequencyChanges></Clock>\n",KW_Experiment5A-25-1,59.944,1.0.0.105,2,1129285324,Professional,2.0.10.353,2.0.10.353,10/17/2018,10/17/2018 17:15,13:15:01,2.0.10.248,3,2,1,3,,,,,,,,TrainingProc,BlockList,11,2,Distractor2.bmp,2,0,,0,1,212581,400,,0,0,blue,400,1,400,,horizontal,red,Target2.bmp,purple,Distractor2.bmp,yellow,Distractor1.bmp,cyan,Distractor1.bmp,lime,Distractor2.bmp,blue,Distractor2.bmp,,,,TrialProc,3,TrainingTrialList,1,2,-999999,0,212981,0,2,527,213508,Target2.bmp,red,2,,,,7,4,59
KW_Experiment5A,25,1,"<?xml version=""1.0""?>\n<Clock xmlns:dt=""urn:schemas-microsoft-com:datatypes""><Description dt:dt=""string"">E-Prime Primary Realtime Clock</Description><StartTime><Timestamp dt:dt=""int"">0</Timestamp><DateUtc dt:dt=""string"">2018-10-17T17:15:01Z</DateUtc></StartTime><FrequencyChanges><FrequencyChange><Frequency dt:dt=""r8"">3215292</Frequency><Timestamp dt:dt=""r8"">5850874100447</Timestamp><Current dt:dt=""r8"">0</Current><DateUtc dt:dt=""string"">2018-10-17T17:15:01Z</DateUtc></FrequencyChange></FrequencyChanges></Clock>\n",KW_Experiment5A-25-1,59.944,1.0.0.105,2,1129285324,Professional,2.0.10.353,2.0.10.353,10/17/2018,10/17/2018 17:15,13:15:01,2.0.10.248,3,2,1,3,,,,,,,,TrainingProc,BlockList,12,1,Distractor1.bmp,1,0,,0,1,214533,500,,0,0,purple,500,2,500,,vertical,purple,Distractor1.bmp,red,Target1.bmp,blue,Distractor1.bmp,lime,Distractor2.bmp,yellow,Distractor1.bmp,cyan,Distractor2.bmp,,,,TrialProc,5,TrainingTrialList,1,1,-999999,0,215033,0,1,827,215860,Target1.bmp,red,1,,,,8,4,60
KW_Experiment5A,25,1,"<?xml version=""1.0""?>\n<Clock xmlns:dt=""urn:schemas-microsoft-com:datatypes""><Description dt:dt=""string"">E-Prime Primary Realtime Clock</Description><StartTime><Timestamp dt:dt=""int"">0</Timestamp><DateUtc dt:dt=""string"">2018-10-17T17:15:01Z</DateUtc></StartTime><FrequencyChanges><FrequencyChange><Frequency dt:dt=""r8"">3215292</Frequency><Timestamp dt:dt=""r8"">5850874100447</Timestamp><Current dt:dt=""r8"">0</Current><DateUtc dt:dt=""string"">2018-10-17T17:15:01Z</DateUtc></FrequencyChange></FrequencyChanges></Clock>\n",KW_Experiment5A-25-1,59.944,1.0.0.105,2,1129285324,Professional,2.0.10.353,2.0.10.353,10/17/2018,10/17/2018 17:15,13:15:01,2.0.10.248,3,2,1,3,,,,,,,,TrainingProc,BlockList,13,1,Distractor2.bmp,2,0,,0,1,216885,400,,0,0,yellow,400,1,400,2,vertical,yellow,Distractor1.bmp,blue,Distractor1.bmp,lime,Target1.bmp,red,Distractor2.bmp,purple,Distractor1.bmp,cyan,Distractor2.bmp,,,,TrialProc,,TrainingTrialList,1,1,-999999,0,217285,0,1,783,218068,Target1.bmp,lime,1,,,,3,4,61
KW_Experiment5A,25,1,"<?xml version=""1.0""?>\n<Clock xmlns:dt=""urn:schemas-microsoft-com:datatypes""><Description dt:dt=""string"">E-Prime Primary Realtime Clock</Description><StartTime><Timestamp dt:dt=""int"">0</Timestamp><DateUtc dt:dt=""string"">2018-10-17T17:15:01Z</DateUtc></StartTime><FrequencyChanges><FrequencyChange><Frequency dt:dt=""r8"">3215292</Frequency><Timestamp dt:dt=""r8"">5850874100447</Timestamp><Current dt:dt=""r8"">0</Current><DateUtc dt:dt=""string"">2018-10-17T17:15:01Z</DateUtc></FrequencyChange></FrequencyChanges></Clock>\n",KW_Experiment5A-25-1,59.944,1.0.0.105,2,1129285324,Professional,2.0.10.353,2.0.10.353,10/17/2018,10/17/2018 17:15,13:15:01,2.0.10.248,3,2,1,3,,,,,,,,TrainingProc,BlockList,14,2,Distractor2.bmp,2,0,,0,1,219087,400,,0,0,yellow,400,1,400,,horizontal,yellow,Distractor1.bmp,red,Target2.bmp,lime,Distractor2.bmp,blue,Distractor1.bmp,cyan,Distractor2.bmp,purple,Distractor2.bmp,,,,TrialProc,2,TrainingTrialList,1,2,-999999,0,219487,0,2,525,220012,Target2.bmp,red,2,,,,8,4,62
KW_Experiment5A,25,1,"<?xml version=""1.0""?>\n<Clock xmlns:dt=""urn:schemas-microsoft-com:datatypes""><Description dt:dt=""string"">E-Prime Primary Realtime Clock</Description><StartTime><Timestamp dt:dt=""int"">0</Timestamp><DateUtc dt:dt=""string"">2018-10-17T17:15:01Z</DateUtc></StartTime><FrequencyChanges><FrequencyChange><Frequency dt:dt=""r8"">3215292</Frequency><Timestamp dt:dt=""r8"">5850874100447</Timestamp><Current dt:dt=""r8"">0</Current><DateUtc dt:dt=""string"">2018-10-17T17:15:01Z</DateUtc></FrequencyChange></FrequencyChanges></Clock>\n",KW_Experiment5A-25-1,59.944,1.0.0.105,2,1129285324,Professional,2.0.10.353,2.0.10.353,10/17/2018,10/17/2018 17:15,13:15:01,2.0.10.248,3,2,1,3,,,,,,,,TrainingProc,BlockList,15,1,Distractor1.bmp,1,0,,0,1,221022,400,,0,0,cyan,400,1,400,,vertical,cyan,Distractor2.bmp,lime,Distractor2.bmp,red,Target1.bmp,purple,Distractor1.bmp,yellow,Distractor2.bmp,blue,Distractor1.bmp,,,,TrialProc,4,TrainingTrialList,1,1,-999999,0,221422,0,1,598,222020,Target1.bmp,red,1,,,,9,4,63
KW_Experiment5A,25,1,"<?xml version=""1.0""?>\n<Clock xmlns:dt=""urn:schemas-microsoft-com:datatypes""><Description dt:dt=""string"">E-Prime Primary Realtime Clock</Description><StartTime><Timestamp dt:dt=""int"">0</Timestamp><DateUtc dt:dt=""string"">2018-10-17T17:15:01Z</DateUtc></StartTime><FrequencyChanges><FrequencyChange><Frequency dt:dt=""r8"">3215292</Frequency><Timestamp dt:dt=""r8"">5850874100447</Timestamp><Current dt:dt=""r8"">0</Current><DateUtc dt:dt=""string"">2018-10-17T17:15:01Z</DateUtc></FrequencyChange></FrequencyChanges></Clock>\n",KW_Experiment5A-25-1,59.944,1.0.0.105,2,1129285324,Professional,2.0.10.353,2.0.10.353,10/17/2018,10/17/2018 17:15,13:15:01,2.0.10.248,3,2,1,3,,,,,,,,TrainingProc,BlockList,16,1,Distractor2.bmp,2,0,,0,1,223040,401,,0,0,yellow,400,1,400,2,vertical,yellow,Distractor2.bmp,blue,Distractor2.bmp,purple,Distractor2.bmp,cyan,Distractor2.bmp,red,Distractor1.bmp,lime,Target1.bmp,,,,TrialProc,,TrainingTrialList,1,1,-999999,1,223441,0,1,899,224340,Target1.bmp,lime,1,,,,6,4,64
KW_Experiment5A,25,1,"<?xml version=""1.0""?>\n<Clock xmlns:dt=""urn:schemas-microsoft-com:datatypes""><Description dt:dt=""string"">E-Prime Primary Realtime Clock</Description><StartTime><Timestamp dt:dt=""int"">0</Timestamp><DateUtc dt:dt=""string"">2018-10-17T17:15:01Z</DateUtc></StartTime><FrequencyChanges><FrequencyChange><Frequency dt:dt=""r8"">3215292</Frequency><Timestamp dt:dt=""r8"">5850874100447</Timestamp><Current dt:dt=""r8"">0</Current><DateUtc dt:dt=""string"">2018-10-17T17:15:01Z</DateUtc></FrequencyChange></FrequencyChanges></Clock>\n",KW_Experiment5A-25-1,59.944,1.0.0.105,2,1129285324,Professional,2.0.10.353,2.0.10.353,10/17/2018,10/17/2018 17:15,13:15:01,2.0.10.248,3,2,1,3,,,,,,,,TrainingProc,BlockList,17,2,Distractor1.bmp,1,0,,0,1,225359,501,,0,0,blue,500,2,500,,horizontal,blue,Distractor2.bmp,lime,Distractor1.bmp,yellow,Distractor1.bmp,purple,Distractor1.bmp,red,Target2.bmp,cyan,Distractor1.bmp,,,,TrialProc,3,TrainingTrialList,1,2,-999999,1,225860,0,2,760,226620,Target2.bmp,red,2,,,,11,4,65
KW_Experiment5A,25,1,"<?xml version=""1.0""?>\n<Clock xmlns:dt=""urn:schemas-microsoft-com:datatypes""><Description dt:dt=""string"">E-Prime Primary Realtime Clock</Description><StartTime><Timestamp dt:dt=""int"">0</Timestamp><DateUtc dt:dt=""string"">2018-10-17T17:15:01Z</DateUtc></StartTime><FrequencyChanges><FrequencyChange><Frequency dt:dt=""r8"">3215292</Frequency><Timestamp dt:dt=""r8"">5850874100447</Timestamp><Current dt:dt=""r8"">0</Current><DateUtc dt:dt=""string"">2018-10-17T17:15:01Z</DateUtc></FrequencyChange></FrequencyChanges></Clock>\n",KW_Experiment5A-25-1,59.944,1.0.0.105,2,1129285324,Professional,2.0.10.353,2.0.10.353,10/17/2018,10/17/2018 17:15,13:15:01,2.0.10.248,3,2,1,3,,,,,,,,TrainingProc,BlockList,18,2,Distractor2.bmp,2,0,,0,1,227645,500,,0,0,lime,500,2,500,,horizontal,lime,Distractor2.bmp,purple,Distractor2.bmp,yellow,Distractor1.bmp,cyan,Distractor2.bmp,blue,Distractor2.bmp,red,Target2.bmp,,,,TrialProc,6,TrainingTrialList,1,2,-999999,0,228145,0,2,634,228779,Target2.bmp,red,2,,,,12,4,66
KW_Experiment5A,25,1,"<?xml version=""1.0""?>\n<Clock xmlns:dt=""urn:schemas-microsoft-com:datatypes""><Description dt:dt=""string"">E-Prime Primary Realtime Clock</Description><StartTime><Timestamp dt:dt=""int"">0</Timestamp><DateUtc dt:dt=""string"">2018-10-17T17:15:01Z</DateUtc></StartTime><FrequencyChanges><FrequencyChange><Frequency dt:dt=""r8"">3215292</Frequency><Timestamp dt:dt=""r8"">5850874100447</Timestamp><Current dt:dt=""r8"">0</Current><DateUtc dt:dt=""string"">2018-10-17T17:15:01Z</DateUtc></FrequencyChange></FrequencyChanges></Clock>\n",KW_Experiment5A-25-1,59.944,1.0.0.105,2,1129285324,Professional,2.0.10.353,2.0.10.353,10/17/2018,10/17/2018 17:15,13:15:01,2.0.10.248,3,2,1,3,,,,,,,,TrainingProc,BlockList,19,2,Distractor1.bmp,1,0,,0,1,229797,500,,0,0,yellow,500,2,500,,horizontal,yellow,Distractor2.bmp,blue,Distractor2.bmp,red,Target2.bmp,cyan,Distractor1.bmp,lime,Distractor2.bmp,purple,Distractor2.bmp,,,,TrialProc,2,TrainingTrialList,1,2,-999999,0,230297,0,2,634,230931,Target2.bmp,red,2,,,,9,4,67
KW_Experiment5A,25,1,"<?xml version=""1.0""?>\n<Clock xmlns:dt=""urn:schemas-microsoft-com:datatypes""><Description dt:dt=""string"">E-Prime Primary Realtime Clock</Description><StartTime><Timestamp dt:dt=""int"">0</Timestamp><DateUtc dt:dt=""string"">2018-10-17T17:15:01Z</DateUtc></StartTime><FrequencyChanges><FrequencyChange><Frequency dt:dt=""r8"">3215292</Frequency><Timestamp dt:dt=""r8"">5850874100447</Timestamp><Current dt:dt=""r8"">0</Current><DateUtc dt:dt=""string"">2018-10-17T17:15:01Z</DateUtc></FrequencyChange></FrequencyChanges></Clock>\n",KW_Experiment5A-25-1,59.944,1.0.0.105,2,1129285324,Professional,2.0.10.353,2.0.10.353,10/17/2018,10/17/2018 17:15,13:15:01,2.0.10.248,3,2,1,3,,,,,,,,TrainingProc,BlockList,20,1,Distractor2.bmp,2,0,,0,1,231949,500,,0,0,purple,500,2,500,5,vertical,purple,Distractor2.bmp,red,Distractor2.bmp,blue,Distractor2.bmp,yellow,Distractor2.bmp,lime,Target1.bmp,cyan,Distractor2.bmp,,,,TrialProc,,TrainingTrialList,1,1,-999999,0,232449,0,1,594,233043,Target1.bmp,lime,1,,,,5,4,68
KW_Experiment5A,25,1,"<?xml version=""1.0""?>\n<Clock xmlns:dt=""urn:schemas-microsoft-com:datatypes""><Description dt:dt=""string"">E-Prime Primary Realtime Clock</Description><StartTime><Timestamp dt:dt=""int"">0</Timestamp><DateUtc dt:dt=""string"">2018-10-17T17:15:01Z</DateUtc></StartTime><FrequencyChanges><FrequencyChange><Frequency dt:dt=""r8"">3215292</Frequency><Timestamp dt:dt=""r8"">5850874100447</Timestamp><Current dt:dt=""r8"">0</Current><DateUtc dt:dt=""string"">2018-10-17T17:15:01Z</DateUtc></FrequencyChange></FrequencyChanges></Clock>\n",KW_Experiment5A-25-1,59.944,1.0.0.105,2,1129285324,Professional,2.0.10.353,2.0.10.353,10/17/2018,10/17/2018 17:15,13:15:01,2.0.10.248,3,2,1,3,,,,,,,,TrainingProc,BlockList,21,2,Distractor1.bmp,1,0,,0,1,234067,400,,0,0,yellow,400,1,400,2,horizontal,yellow,Distractor1.bmp,cyan,Distractor1.bmp,red,Distractor2.bmp,lime,Target2.bmp,purple,Distractor1.bmp,blue,Distractor1.bmp,,,,TrialProc,,TrainingTrialList,1,2,-999999,0,234467,0,2,872,235339,Target2.bmp,lime,2,,,,4,4,69
KW_Experiment5A,25,1,"<?xml version=""1.0""?>\n<Clock xmlns:dt=""urn:schemas-microsoft-com:datatypes""><Description dt:dt=""string"">E-Prime Primary Realtime Clock</Description><StartTime><Timestamp dt:dt=""int"">0</Timestamp><DateUtc dt:dt=""string"">2018-10-17T17:15:01Z</DateUtc></StartTime><FrequencyChanges><FrequencyChange><Frequency dt:dt=""r8"">3215292</Frequency><Timestamp dt:dt=""r8"">5850874100447</Timestamp><Current dt:dt=""r8"">0</Current><DateUtc dt:dt=""string"">2018-10-17T17:15:01Z</DateUtc></FrequencyChange></FrequencyChanges></Clock>\n",KW_Experiment5A-25-1,59.944,1.0.0.105,2,1129285324,Professional,2.0.10.353,2.0.10.353,10/17/2018,10/17/2018 17:15,13:15:01,2.0.10.248,3,2,1,3,,,,,,,,TrainingProc,BlockList,22,2,Distractor2.bmp,2,0,,0,1,236353,400,,0,0,yellow,400,1,400,,horizontal,red,Target2.bmp,blue,Distractor2.bmp,cyan,Distractor2.bmp,purple,Distractor2.bmp,lime,Distractor2.bmp,yellow,Distractor1.bmp,,,,TrialProc,2,TrainingTrialList,0,2,-999999,0,236753,0,1,578,237331,Target2.bmp,red,2,,,,7,4,70
KW_Experiment5A,25,1,"<?xml version=""1.0""?>\n<Clock xmlns:dt=""urn:schemas-microsoft-com:datatypes""><Description dt:dt=""string"">E-Prime Primary Realtime Clock</Description><StartTime><Timestamp dt:dt=""int"">0</Timestamp><DateUtc dt:dt=""string"">2018-10-17T17:15:01Z</DateUtc></StartTime><FrequencyChanges><FrequencyChange><Frequency dt:dt=""r8"">3215292</Frequency><Timestamp dt:dt=""r8"">5850874100447</Timestamp><Current dt:dt=""r8"">0</Current><DateUtc dt:dt=""string"">2018-10-17T17:15:01Z</DateUtc></FrequencyChange></FrequencyChanges></Clock>\n",KW_Experiment5A-25-1,59.944,1.0.0.105,2,1129285324,Professional,2.0.10.353,2.0.10.353,10/17/2018,10/17/2018 17:15,13:15:01,2.0.10.248,3,2,1,3,,,,,,,,TrainingProc,BlockList,23,1,Distractor2.bmp,2,0,,0,1,238354,601,,0,0,blue,600,3,600,,vertical,blue,Distractor1.bmp,cyan,Distractor1.bmp,yellow,Distractor1.bmp,red,Target1.bmp,purple,Distractor2.bmp,lime,Distractor2.bmp,,,,TrialProc,3,TrainingTrialList,1,1,-999999,1,238955,0,1,560,239515,Target1.bmp,red,1,,,,10,4,71
KW_Experiment5A,25,1,"<?xml version=""1.0""?>\n<Clock xmlns:dt=""urn:schemas-microsoft-com:datatypes""><Description dt:dt=""string"">E-Prime Primary Realtime Clock</Description><StartTime><Timestamp dt:dt=""int"">0</Timestamp><DateUtc dt:dt=""string"">2018-10-17T17:15:01Z</DateUtc></StartTime><FrequencyChanges><FrequencyChange><Frequency dt:dt=""r8"">3215292</Frequency><Timestamp dt:dt=""r8"">5850874100447</Timestamp><Current dt:dt=""r8"">0</Current><DateUtc dt:dt=""string"">2018-10-17T17:15:01Z</DateUtc></FrequencyChange></FrequencyChanges></Clock>\n",KW_Experiment5A-25-1,59.944,1.0.0.105,2,1129285324,Professional,2.0.10.353,2.0.10.353,10/17/2018,10/17/2018 17:15,13:15:01,2.0.10.248,3,2,1,3,,,,,,,,TrainingProc,BlockList,24,1,Distractor2.bmp,2,0,,0,1,240540,400,,0,0,blue,400,1,400,,vertical,blue,Distractor1.bmp,yellow,Distractor1.bmp,cyan,Distractor1.bmp,purple,Distractor1.bmp,red,Target1.bmp,lime,Distractor2.bmp,,,,TrialProc,3,TrainingTrialList,1,1,-999999,0,240940,0,1,591,241531,Target1.bmp,red,1,,,,11,4,72
KW_Experiment5A,25,1,"<?xml version=""1.0""?>\n<Clock xmlns:dt=""urn:schemas-microsoft-com:datatypes""><Description dt:dt=""string"">E-Prime Primary Realtime Clock</Description><StartTime><Timestamp dt:dt=""int"">0</Timestamp><DateUtc dt:dt=""string"">2018-10-17T17:15:01Z</DateUtc></StartTime><FrequencyChanges><FrequencyChange><Frequency dt:dt=""r8"">3215292</Frequency><Timestamp dt:dt=""r8"">5850874100447</Timestamp><Current dt:dt=""r8"">0</Current><DateUtc dt:dt=""string"">2018-10-17T17:15:01Z</DateUtc></FrequencyChange></FrequencyChanges></Clock>\n",KW_Experiment5A-25-1,59.944,1.0.0.105,2,1129285324,Professional,2.0.10.353,2.0.10.353,10/17/2018,10/17/2018 17:15,13:15:01,2.0.10.248,3,2,1,3,,,,,,,,TrainingProc,BlockList,25,2,Distractor2.bmp,2,0,,1,0,242541,401,,0,0,blue,400,1,400,,horizontal,red,Target2.bmp,yellow,Distractor2.bmp,lime,Distractor1.bmp,cyan,Distractor1.bmp,purple,Distractor1.bmp,blue,Distractor2.bmp,,,,TrialProc,3,TrainingTrialList,1,2,-999999,1,242942,0,2,725,243667,Target2.bmp,red,2,,,,7,5,73
KW_Experiment5A,25,1,"<?xml version=""1.0""?>\n<Clock xmlns:dt=""urn:schemas-microsoft-com:datatypes""><Description dt:dt=""string"">E-Prime Primary Realtime Clock</Description><StartTime><Timestamp dt:dt=""int"">0</Timestamp><DateUtc dt:dt=""string"">2018-10-17T17:15:01Z</DateUtc></StartTime><FrequencyChanges><FrequencyChange><Frequency dt:dt=""r8"">3215292</Frequency><Timestamp dt:dt=""r8"">5850874100447</Timestamp><Current dt:dt=""r8"">0</Current><DateUtc dt:dt=""string"">2018-10-17T17:15:01Z</DateUtc></FrequencyChange></FrequencyChanges></Clock>\n",KW_Experiment5A-25-1,59.944,1.0.0.105,2,1129285324,Professional,2.0.10.353,2.0.10.353,10/17/2018,10/17/2018 17:15,13:15:01,2.0.10.248,3,2,1,3,,,,,,,,TrainingProc,BlockList,26,2,Distractor2.bmp,2,0,,0,1,244677,500,,0,0,blue,500,2,500,,horizontal,blue,Distractor1.bmp,red,Target2.bmp,cyan,Distractor2.bmp,lime,Distractor1.bmp,purple,Distractor2.bmp,yellow,Distractor2.bmp,,,,TrialProc,3,TrainingTrialList,1,2,-999999,0,245177,0,2,674,245851,Target2.bmp,red,2,,,,8,5,74
KW_Experiment5A,25,1,"<?xml version=""1.0""?>\n<Clock xmlns:dt=""urn:schemas-microsoft-com:datatypes""><Description dt:dt=""string"">E-Prime Primary Realtime Clock</Description><StartTime><Timestamp dt:dt=""int"">0</Timestamp><DateUtc dt:dt=""string"">2018-10-17T17:15:01Z</DateUtc></StartTime><FrequencyChanges><FrequencyChange><Frequency dt:dt=""r8"">3215292</Frequency><Timestamp dt:dt=""r8"">5850874100447</Timestamp><Current dt:dt=""r8"">0</Current><DateUtc dt:dt=""string"">2018-10-17T17:15:01Z</DateUtc></FrequencyChange></FrequencyChanges></Clock>\n",KW_Experiment5A-25-1,59.944,1.0.0.105,2,1129285324,Professional,2.0.10.353,2.0.10.353,10/17/2018,10/17/2018 17:15,13:15:01,2.0.10.248,3,2,1,3,,,,,,,,TrainingProc,BlockList,27,1,Distractor2.bmp,2,0,,0,1,246862,601,,0,0,purple,600,3,600,,vertical,purple,Distractor1.bmp,yellow,Distractor2.bmp,red,Target1.bmp,blue,Distractor2.bmp,lime,Distractor1.bmp,cyan,Distractor1.bmp,,,,TrialProc,5,TrainingTrialList,1,1,-999999,1,247463,0,1,596,248059,Target1.bmp,red,1,,,,9,5,75
KW_Experiment5A,25,1,"<?xml version=""1.0""?>\n<Clock xmlns:dt=""urn:schemas-microsoft-com:datatypes""><Description dt:dt=""string"">E-Prime Primary Realtime Clock</Description><StartTime><Timestamp dt:dt=""int"">0</Timestamp><DateUtc dt:dt=""string"">2018-10-17T17:15:01Z</DateUtc></StartTime><FrequencyChanges><FrequencyChange><Frequency dt:dt=""r8"">3215292</Frequency><Timestamp dt:dt=""r8"">5850874100447</Timestamp><Current dt:dt=""r8"">0</Current><DateUtc dt:dt=""string"">2018-10-17T17:15:01Z</DateUtc></FrequencyChange></FrequencyChanges></Clock>\n",KW_Experiment5A-25-1,59.944,1.0.0.105,2,1129285324,Professional,2.0.10.353,2.0.10.353,10/17/2018,10/17/2018 17:15,13:15:01,2.0.10.248,3,2,1,3,,,,,,,,TrainingProc,BlockList,28,2,Distractor2.bmp,2,0,,0,1,249081,600,,0,0,blue,600,3,600,,horizontal,blue,Distractor2.bmp,lime,Distractor2.bmp,cyan,Distractor2.bmp,yellow,Distractor2.bmp,red,Target2.bmp,purple,Distractor2.bmp,,,,TrialProc,3,TrainingTrialList,1,2,-999999,0,249681,0,2,674,250355,Target2.bmp,red,2,,,,11,5,76
KW_Experiment5A,25,1,"<?xml version=""1.0""?>\n<Clock xmlns:dt=""urn:schemas-microsoft-com:datatypes""><Description dt:dt=""string"">E-Prime Primary Realtime Clock</Description><StartTime><Timestamp dt:dt=""int"">0</Timestamp><DateUtc dt:dt=""string"">2018-10-17T17:15:01Z</DateUtc></StartTime><FrequencyChanges><FrequencyChange><Frequency dt:dt=""r8"">3215292</Frequency><Timestamp dt:dt=""r8"">5850874100447</Timestamp><Current dt:dt=""r8"">0</Current><DateUtc dt:dt=""string"">2018-10-17T17:15:01Z</DateUtc></FrequencyChange></FrequencyChanges></Clock>\n",KW_Experiment5A-25-1,59.944,1.0.0.105,2,1129285324,Professional,2.0.10.353,2.0.10.353,10/17/2018,10/17/2018 17:15,13:15:01,2.0.10.248,3,2,1,3,,,,,,,,TrainingProc,BlockList,29,2,Distractor1.bmp,1,0,,0,1,251366,501,,0,0,yellow,500,2,500,2,horizontal,yellow,Distractor2.bmp,red,Distractor1.bmp,lime,Target2.bmp,blue,Distractor1.bmp,purple,Distractor1.bmp,cyan,Distractor2.bmp,,,,TrialProc,,TrainingTrialList,1,2,-999999,1,251867,0,2,912,252779,Target2.bmp,lime,2,,,,3,5,77
KW_Experiment5A,25,1,"<?xml version=""1.0""?>\n<Clock xmlns:dt=""urn:schemas-microsoft-com:datatypes""><Description dt:dt=""string"">E-Prime Primary Realtime Clock</Description><StartTime><Timestamp dt:dt=""int"">0</Timestamp><DateUtc dt:dt=""string"">2018-10-17T17:15:01Z</DateUtc></StartTime><FrequencyChanges><FrequencyChange><Frequency dt:dt=""r8"">3215292</Frequency><Timestamp dt:dt=""r8"">5850874100447</Timestamp><Current dt:dt=""r8"">0</Current><DateUtc dt:dt=""string"">2018-10-17T17:15:01Z</DateUtc></FrequencyChange></FrequencyChanges></Clock>\n",KW_Experiment5A-25-1,59.944,1.0.0.105,2,1129285324,Professional,2.0.10.353,2.0.10.353,10/17/2018,10/17/2018 17:15,13:15:01,2.0.10.248,3,2,1,3,,,,,,,,TrainingProc,BlockList,30,2,Distractor1.bmp,1,0,,0,1,253802,600,,0,0,cyan,600,3,600,4,horizontal,cyan,Distractor1.bmp,lime,Target2.bmp,yellow,Distractor1.bmp,purple,Distractor1.bmp,blue,Distractor1.bmp,red,Distractor1.bmp,,,,TrialProc,,TrainingTrialList,0,2,-999999,0,254402,0,1,561,254963,Target2.bmp,lime,2,,,,2,5,78
KW_Experiment5A,25,1,"<?xml version=""1.0""?>\n<Clock xmlns:dt=""urn:schemas-microsoft-com:datatypes""><Description dt:dt=""string"">E-Prime Primary Realtime Clock</Description><StartTime><Timestamp dt:dt=""int"">0</Timestamp><DateUtc dt:dt=""string"">2018-10-17T17:15:01Z</DateUtc></StartTime><FrequencyChanges><FrequencyChange><Frequency dt:dt=""r8"">3215292</Frequency><Timestamp dt:dt=""r8"">5850874100447</Timestamp><Current dt:dt=""r8"">0</Current><DateUtc dt:dt=""string"">2018-10-17T17:15:01Z</DateUtc></FrequencyChange></FrequencyChanges></Clock>\n",KW_Experiment5A-25-1,59.944,1.0.0.105,2,1129285324,Professional,2.0.10.353,2.0.10.353,10/17/2018,10/17/2018 17:15,13:15:01,2.0.10.248,3,2,1,3,,,,,,,,TrainingProc,BlockList,31,1,Distractor1.bmp,1,0,,0,1,255987,601,,0,0,red,600,3,600,1,vertical,red,Distractor1.bmp,purple,Distractor2.bmp,cyan,Distractor2.bmp,yellow,Distractor1.bmp,blue,Distractor1.bmp,lime,Target1.bmp,,,,TrialProc,,TrainingTrialList,1,1,-999999,1,256588,0,1,655,257243,Target1.bmp,lime,1,,,,6,5,79
KW_Experiment5A,25,1,"<?xml version=""1.0""?>\n<Clock xmlns:dt=""urn:schemas-microsoft-com:datatypes""><Description dt:dt=""string"">E-Prime Primary Realtime Clock</Description><StartTime><Timestamp dt:dt=""int"">0</Timestamp><DateUtc dt:dt=""string"">2018-10-17T17:15:01Z</DateUtc></StartTime><FrequencyChanges><FrequencyChange><Frequency dt:dt=""r8"">3215292</Frequency><Timestamp dt:dt=""r8"">5850874100447</Timestamp><Current dt:dt=""r8"">0</Current><DateUtc dt:dt=""string"">2018-10-17T17:15:01Z</DateUtc></FrequencyChange></FrequencyChanges></Clock>\n",KW_Experiment5A-25-1,59.944,1.0.0.105,2,1129285324,Professional,2.0.10.353,2.0.10.353,10/17/2018,10/17/2018 17:15,13:15:01,2.0.10.248,3,2,1,3,,,,,,,,TrainingProc,BlockList,32,1,Distractor2.bmp,2,0,,0,1,258256,400,,0,0,blue,400,1,400,,vertical,blue,Distractor2.bmp,lime,Distractor2.bmp,yellow,Distractor1.bmp,cyan,Distractor1.bmp,purple,Distractor1.bmp,red,Target1.bmp,,,,TrialProc,3,TrainingTrialList,1,1,-999999,0,258656,0,1,451,259107,Target1.bmp,red,1,,,,12,5,80
KW_Experiment5A,25,1,"<?xml version=""1.0""?>\n<Clock xmlns:dt=""urn:schemas-microsoft-com:datatypes""><Description dt:dt=""string"">E-Prime Primary Realtime Clock</Description><StartTime><Timestamp dt:dt=""int"">0</Timestamp><DateUtc dt:dt=""string"">2018-10-17T17:15:01Z</DateUtc></StartTime><FrequencyChanges><FrequencyChange><Frequency dt:dt=""r8"">3215292</Frequency><Timestamp dt:dt=""r8"">5850874100447</Timestamp><Current dt:dt=""r8"">0</Current><DateUtc dt:dt=""string"">2018-10-17T17:15:01Z</DateUtc></FrequencyChange></FrequencyChanges></Clock>\n",KW_Experiment5A-25-1,59.944,1.0.0.105,2,1129285324,Professional,2.0.10.353,2.0.10.353,10/17/2018,10/17/2018 17:15,13:15:01,2.0.10.248,3,2,1,3,,,,,,,,TrainingProc,BlockList,33,1,Distractor1.bmp,1,0,,0,1,260124,400,,0,0,blue,400,1,400,,vertical,blue,Distractor2.bmp,cyan,Distractor2.bmp,lime,Distractor2.bmp,purple,Distractor1.bmp,red,Target1.bmp,yellow,Distractor1.bmp,,,,TrialProc,3,TrainingTrialList,1,1,-999999,0,260524,0,1,543,261067,Target1.bmp,red,1,,,,11,5,81
KW_Experiment5A,25,1,"<?xml version=""1.0""?>\n<Clock xmlns:dt=""urn:schemas-microsoft-com:datatypes""><Description dt:dt=""string"">E-Prime Primary Realtime Clock</Description><StartTime><Timestamp dt:dt=""int"">0</Timestamp><DateUtc dt:dt=""string"">2018-10-17T17:15:01Z</DateUtc></StartTime><FrequencyChanges><FrequencyChange><Frequency dt:dt=""r8"">3215292</Frequency><Timestamp dt:dt=""r8"">5850874100447</Timestamp><Current dt:dt=""r8"">0</Current><DateUtc dt:dt=""string"">2018-10-17T17:15:01Z</DateUtc></FrequencyChange></FrequencyChanges></Clock>\n",KW_Experiment5A-25-1,59.944,1.0.0.105,2,1129285324,Professional,2.0.10.353,2.0.10.353,10/17/2018,10/17/2018 17:15,13:15:01,2.0.10.248,3,2,1,3,,,,,,,,TrainingProc,BlockList,34,1,Distractor1.bmp,1,0,,0,1,262076,400,,0,0,red,400,1,400,1,vertical,lime,Target1.bmp,red,Distractor1.bmp,purple,Distractor2.bmp,yellow,Distractor1.bmp,blue,Distractor1.bmp,cyan,Distractor1.bmp,,,,TrialProc,,TrainingTrialList,1,1,-999999,0,262476,0,1,559,263035,Target1.bmp,lime,1,,,,1,5,82
KW_Experiment5A,25,1,"<?xml version=""1.0""?>\n<Clock xmlns:dt=""urn:schemas-microsoft-com:datatypes""><Description dt:dt=""string"">E-Prime Primary Realtime Clock</Description><StartTime><Timestamp dt:dt=""int"">0</Timestamp><DateUtc dt:dt=""string"">2018-10-17T17:15:01Z</DateUtc></StartTime><FrequencyChanges><FrequencyChange><Frequency dt:dt=""r8"">3215292</Frequency><Timestamp dt:dt=""r8"">5850874100447</Timestamp><Current dt:dt=""r8"">0</Current><DateUtc dt:dt=""string"">2018-10-17T17:15:01Z</DateUtc></FrequencyChange></FrequencyChanges></Clock>\n",KW_Experiment5A-25-1,59.944,1.0.0.105,2,1129285324,Professional,2.0.10.353,2.0.10.353,10/17/2018,10/17/2018 17:15,13:15:01,2.0.10.248,3,2,1,3,,,,,,,,TrainingProc,BlockList,35,2,Distractor1.bmp,1,0,,0,1,264044,401,,0,0,cyan,400,1,400,,horizontal,cyan,Distractor1.bmp,red,Target2.bmp,lime,Distractor1.bmp,yellow,Distractor2.bmp,blue,Distractor2.bmp,purple,Distractor2.bmp,,,,TrialProc,4,TrainingTrialList,1,2,-999999,1,264445,0,2,646,265091,Target2.bmp,red,2,,,,8,5,83
KW_Experiment5A,25,1,"<?xml version=""1.0""?>\n<Clock xmlns:dt=""urn:schemas-microsoft-com:datatypes""><Description dt:dt=""string"">E-Prime Primary Realtime Clock</Description><StartTime><Timestamp dt:dt=""int"">0</Timestamp><DateUtc dt:dt=""string"">2018-10-17T17:15:01Z</DateUtc></StartTime><FrequencyChanges><FrequencyChange><Frequency dt:dt=""r8"">3215292</Frequency><Timestamp dt:dt=""r8"">5850874100447</Timestamp><Current dt:dt=""r8"">0</Current><DateUtc dt:dt=""string"">2018-10-17T17:15:01Z</DateUtc></FrequencyChange></FrequencyChanges></Clock>\n",KW_Experiment5A-25-1,59.944,1.0.0.105,2,1129285324,Professional,2.0.10.353,2.0.10.353,10/17/2018,10/17/2018 17:15,13:15:01,2.0.10.248,3,2,1,3,,,,,,,,TrainingProc,BlockList,36,1,Distractor2.bmp,2,0,,0,1,266113,400,,0,0,blue,400,1,400,,vertical,blue,Distractor1.bmp,cyan,Distractor1.bmp,red,Target1.bmp,purple,Distractor2.bmp,yellow,Distractor1.bmp,lime,Distractor1.bmp,,,,TrialProc,3,TrainingTrialList,0,1,-999999,0,266513,0,2,906,267419,Target1.bmp,red,1,,,,9,5,84
KW_Experiment5A,25,1,"<?xml version=""1.0""?>\n<Clock xmlns:dt=""urn:schemas-microsoft-com:datatypes""><Description dt:dt=""string"">E-Prime Primary Realtime Clock</Description><StartTime><Timestamp dt:dt=""int"">0</Timestamp><DateUtc dt:dt=""string"">2018-10-17T17:15:01Z</DateUtc></StartTime><FrequencyChanges><FrequencyChange><Frequency dt:dt=""r8"">3215292</Frequency><Timestamp dt:dt=""r8"">5850874100447</Timestamp><Current dt:dt=""r8"">0</Current><DateUtc dt:dt=""string"">2018-10-17T17:15:01Z</DateUtc></FrequencyChange></FrequencyChanges></Clock>\n",KW_Experiment5A-25-1,59.944,1.0.0.105,2,1129285324,Professional,2.0.10.353,2.0.10.353,10/17/2018,10/17/2018 17:15,13:15:01,2.0.10.248,3,2,1,3,,,,,,,,TrainingProc,BlockList,37,1,Distractor2.bmp,2,0,,0,1,268432,600,,0,0,lime,600,3,600,,vertical,lime,Distractor2.bmp,yellow,Distractor2.bmp,blue,Distractor2.bmp,purple,Distractor1.bmp,cyan,Distractor1.bmp,red,Target1.bmp,,,,TrialProc,6,TrainingTrialList,1,1,-999999,0,269032,0,1,554,269586,Target1.bmp,red,1,,,,12,5,85
KW_Experiment5A,25,1,"<?xml version=""1.0""?>\n<Clock xmlns:dt=""urn:schemas-microsoft-com:datatypes""><Description dt:dt=""string"">E-Prime Primary Realtime Clock</Description><StartTime><Timestamp dt:dt=""int"">0</Timestamp><DateUtc dt:dt=""string"">2018-10-17T17:15:01Z</DateUtc></StartTime><FrequencyChanges><FrequencyChange><Frequency dt:dt=""r8"">3215292</Frequency><Timestamp dt:dt=""r8"">5850874100447</Timestamp><Current dt:dt=""r8"">0</Current><DateUtc dt:dt=""string"">2018-10-17T17:15:01Z</DateUtc></FrequencyChange></FrequencyChanges></Clock>\n",KW_Experiment5A-25-1,59.944,1.0.0.105,2,1129285324,Professional,2.0.10.353,2.0.10.353,10/17/2018,10/17/2018 17:15,13:15:01,2.0.10.248,3,2,1,3,,,,,,,,TrainingProc,BlockList,38,2,Distractor2.bmp,2,0,,0,1,270600,601,,0,0,cyan,600,3,600,,horizontal,cyan,Distractor2.bmp,yellow,Distractor2.bmp,purple,Distractor2.bmp,lime,Distractor2.bmp,blue,Distractor1.bmp,red,Target2.bmp,,,,TrialProc,4,TrainingTrialList,1,2,-999999,1,271201,0,2,529,271730,Target2.bmp,red,2,,,,12,5,86
KW_Experiment5A,25,1,"<?xml version=""1.0""?>\n<Clock xmlns:dt=""urn:schemas-microsoft-com:datatypes""><Description dt:dt=""string"">E-Prime Primary Realtime Clock</Description><StartTime><Timestamp dt:dt=""int"">0</Timestamp><DateUtc dt:dt=""string"">2018-10-17T17:15:01Z</DateUtc></StartTime><FrequencyChanges><FrequencyChange><Frequency dt:dt=""r8"">3215292</Frequency><Timestamp dt:dt=""r8"">5850874100447</Timestamp><Current dt:dt=""r8"">0</Current><DateUtc dt:dt=""string"">2018-10-17T17:15:01Z</DateUtc></FrequencyChange></FrequencyChanges></Clock>\n",KW_Experiment5A-25-1,59.944,1.0.0.105,2,1129285324,Professional,2.0.10.353,2.0.10.353,10/17/2018,10/17/2018 17:15,13:15:01,2.0.10.248,3,2,1,3,,,,,,,,TrainingProc,BlockList,39,2,Distractor1.bmp,1,0,,0,1,272752,501,,0,0,yellow,500,2,500,,horizontal,yellow,Distractor1.bmp,cyan,Distractor2.bmp,purple,Distractor1.bmp,red,Target2.bmp,lime,Distractor1.bmp,blue,Distractor2.bmp,,,,TrialProc,2,TrainingTrialList,1,2,-999999,1,273253,0,2,757,274010,Target2.bmp,red,2,,,,10,5,87
KW_Experiment5A,25,1,"<?xml version=""1.0""?>\n<Clock xmlns:dt=""urn:schemas-microsoft-com:datatypes""><Description dt:dt=""string"">E-Prime Primary Realtime Clock</Description><StartTime><Timestamp dt:dt=""int"">0</Timestamp><DateUtc dt:dt=""string"">2018-10-17T17:15:01Z</DateUtc></StartTime><FrequencyChanges><FrequencyChange><Frequency dt:dt=""r8"">3215292</Frequency><Timestamp dt:dt=""r8"">5850874100447</Timestamp><Current dt:dt=""r8"">0</Current><DateUtc dt:dt=""string"">2018-10-17T17:15:01Z</DateUtc></FrequencyChange></FrequencyChanges></Clock>\n",KW_Experiment5A-25-1,59.944,1.0.0.105,2,1129285324,Professional,2.0.10.353,2.0.10.353,10/17/2018,10/17/2018 17:15,13:15:01,2.0.10.248,3,2,1,3,,,,,,,,TrainingProc,BlockList,40,2,Distractor2.bmp,2,0,,0,1,275021,601,,0,0,cyan,600,3,600,,horizontal,red,Target2.bmp,lime,Distractor2.bmp,blue,Distractor1.bmp,purple,Distractor2.bmp,yellow,Distractor2.bmp,cyan,Distractor1.bmp,,,,TrialProc,4,TrainingTrialList,1,2,-999999,1,275622,0,2,588,276210,Target2.bmp,red,2,,,,7,5,88
KW_Experiment5A,25,1,"<?xml version=""1.0""?>\n<Clock xmlns:dt=""urn:schemas-microsoft-com:datatypes""><Description dt:dt=""string"">E-Prime Primary Realtime Clock</Description><StartTime><Timestamp dt:dt=""int"">0</Timestamp><DateUtc dt:dt=""string"">2018-10-17T17:15:01Z</DateUtc></StartTime><FrequencyChanges><FrequencyChange><Frequency dt:dt=""r8"">3215292</Frequency><Timestamp dt:dt=""r8"">5850874100447</Timestamp><Current dt:dt=""r8"">0</Current><DateUtc dt:dt=""string"">2018-10-17T17:15:01Z</DateUtc></FrequencyChange></FrequencyChanges></Clock>\n",KW_Experiment5A-25-1,59.944,1.0.0.105,2,1129285324,Professional,2.0.10.353,2.0.10.353,10/17/2018,10/17/2018 17:15,13:15:01,2.0.10.248,3,2,1,3,,,,,,,,TrainingProc,BlockList,41,2,Distractor2.bmp,2,0,,0,1,277223,500,,0,0,blue,500,2,500,,horizontal,blue,Distractor1.bmp,lime,Distractor1.bmp,purple,Distractor2.bmp,red,Target2.bmp,yellow,Distractor2.bmp,cyan,Distractor1.bmp,,,,TrialProc,3,TrainingTrialList,1,2,-999999,0,277723,0,2,767,278490,Target2.bmp,red,2,,,,10,5,89
KW_Experiment5A,25,1,"<?xml version=""1.0""?>\n<Clock xmlns:dt=""urn:schemas-microsoft-com:datatypes""><Description dt:dt=""string"">E-Prime Primary Realtime Clock</Description><StartTime><Timestamp dt:dt=""int"">0</Timestamp><DateUtc dt:dt=""string"">2018-10-17T17:15:01Z</DateUtc></StartTime><FrequencyChanges><FrequencyChange><Frequency dt:dt=""r8"">3215292</Frequency><Timestamp dt:dt=""r8"">5850874100447</Timestamp><Current dt:dt=""r8"">0</Current><DateUtc dt:dt=""string"">2018-10-17T17:15:01Z</DateUtc></FrequencyChange></FrequencyChanges></Clock>\n",KW_Experiment5A-25-1,59.944,1.0.0.105,2,1129285324,Professional,2.0.10.353,2.0.10.353,10/17/2018,10/17/2018 17:15,13:15:01,2.0.10.248,3,2,1,3,,,,,,,,TrainingProc,BlockList,42,2,Distractor2.bmp,2,0,,0,1,279508,401,,0,0,cyan,400,1,400,4,horizontal,cyan,Distractor2.bmp,red,Distractor2.bmp,blue,Distractor1.bmp,yellow,Distractor1.bmp,lime,Target2.bmp,purple,Distractor2.bmp,,,,TrialProc,,TrainingTrialList,0,2,-999999,1,279909,0,1,709,280618,Target2.bmp,lime,2,,,,5,5,90
