ExperimentName,Subject,Session,Clock.Information,DataFile.Basename,Display.RefreshRate,ExperimentVersion,Group,RandomSeed,RuntimeCapabilities,RuntimeVersion,RuntimeVersionExpected,SessionDate,SessionStartDateTimeUtc,SessionTime,StudioVersion,Block,BlockList,BlockList.Cycle,BlockList.Sample,PostTestQ1.RESP,PostTestQ1CJ.RESP,PostTestQ2.RESP,PostTestQ2CJ.RESP,PostTestQ3.RESP,PostTestQ3CJ.RESP,PostTestSlide.RESP,Procedure[Block],Running[Block],Trial,CorrectResponse,Distractor,DistractorList,Fixation.ACC,Fixation.CRESP,Fixation.DurationError,Fixation.OnsetDelay,Fixation.OnsetTime,Fixation.OnsetToOnsetTime,Fixation.RESP,Fixation.RT,Fixation.RTTime,ItemColor,Jitter,JitterList,JitterTime,Lime0List,Orientation,Pos1Color,Pos1Item,Pos2Color,Pos2Item,Pos3Color,Pos3Item,Pos4Color,Pos4Item,Pos5Color,Pos5Item,Pos6Color,Pos6Item,PracticeTrialList,PracticeTrialList.Cycle,PracticeTrialList.Sample,Procedure[Trial],Red0List,Running[Trial],Stimulus.ACC,Stimulus.CRESP,Stimulus.DurationError,Stimulus.OnsetDelay,Stimulus.OnsetTime,Stimulus.OnsetToOnsetTime,Stimulus.RESP,Stimulus.RT,Stimulus.RTTime,Target,TargetColor,TargetList,TestTrialList,TestTrialList.Cycle,TestTrialList.Sample,TrainingTrialList,TrainingTrialList.Cycle,TrainingTrialList.Sample
KW_Experiment5A,7,1,"<?xml version=""1.0""?>\n<Clock xmlns:dt=""urn:schemas-microsoft-com:datatypes""><Description dt:dt=""string"">E-Prime Primary Realtime Clock</Description><StartTime><Timestamp dt:dt=""int"">0</Timestamp><DateUtc dt:dt=""string"">2018-10-10T16:23:02Z</DateUtc></StartTime><FrequencyChanges><FrequencyChange><Frequency dt:dt=""r8"">3215292</Frequency><Timestamp dt:dt=""r8"">3896298863602</Timestamp><Current dt:dt=""r8"">0</Current><DateUtc dt:dt=""string"">2018-10-10T16:23:02Z</DateUtc></FrequencyChange></FrequencyChanges></Clock>\n",KW_Experiment5A-7-1,59.945,1.0.0.105,1,764170319,Professional,2.0.10.353,2.0.10.353,10/10/2018,10/10/2018 16:23,12:23:03,2.0.10.248,1,1,1,1,,,,,,,,PracticeProc,BlockList,1,1,Distractor2.bmp,2,0,,1,40,491864,501,,0,0,yellow,500,2,500,,vertical,yellow,Distractor2.bmp,red,Target1.bmp,cyan,Distractor2.bmp,lime,Distractor1.bmp,purple,Distractor2.bmp,blue,Distractor1.bmp,2,1,1,TrialProc,2,PracticeTrialList,0,1,-999999,1,492365,0,2,3603,495968,Target1.bmp,red,1,,,,,,
KW_Experiment5A,7,1,"<?xml version=""1.0""?>\n<Clock xmlns:dt=""urn:schemas-microsoft-com:datatypes""><Description dt:dt=""string"">E-Prime Primary Realtime Clock</Description><StartTime><Timestamp dt:dt=""int"">0</Timestamp><DateUtc dt:dt=""string"">2018-10-10T16:23:02Z</DateUtc></StartTime><FrequencyChanges><FrequencyChange><Frequency dt:dt=""r8"">3215292</Frequency><Timestamp dt:dt=""r8"">3896298863602</Timestamp><Current dt:dt=""r8"">0</Current><DateUtc dt:dt=""string"">2018-10-10T16:23:02Z</DateUtc></FrequencyChange></FrequencyChanges></Clock>\n",KW_Experiment5A-7-1,59.945,1.0.0.105,1,764170319,Professional,2.0.10.353,2.0.10.353,10/10/2018,10/10/2018 16:23,12:23:03,2.0.10.248,1,1,1,1,,,,,,,,PracticeProc,BlockList,2,1,Distractor1.bmp,1,0,,0,1,496986,400,,0,0,purple,400,1,400,5,vertical,lime,Target1.bmp,cyan,Distractor1.bmp,red,Distractor2.bmp,blue,Distractor2.bmp,yellow,Distractor1.bmp,purple,Distractor1.bmp,1,1,2,TrialProc,,PracticeTrialList,1,1,-999999,0,497386,0,1,3566,500952,Target1.bmp,lime,1,,,,,,
KW_Experiment5A,7,1,"<?xml version=""1.0""?>\n<Clock xmlns:dt=""urn:schemas-microsoft-com:datatypes""><Description dt:dt=""string"">E-Prime Primary Realtime Clock</Description><StartTime><Timestamp dt:dt=""int"">0</Timestamp><DateUtc dt:dt=""string"">2018-10-10T16:23:02Z</DateUtc></StartTime><FrequencyChanges><FrequencyChange><Frequency dt:dt=""r8"">3215292</Frequency><Timestamp dt:dt=""r8"">3896298863602</Timestamp><Current dt:dt=""r8"">0</Current><DateUtc dt:dt=""string"">2018-10-10T16:23:02Z</DateUtc></FrequencyChange></FrequencyChanges></Clock>\n",KW_Experiment5A-7-1,59.945,1.0.0.105,1,764170319,Professional,2.0.10.353,2.0.10.353,10/10/2018,10/10/2018 16:23,12:23:03,2.0.10.248,1,1,1,1,,,,,,,,PracticeProc,BlockList,3,2,Distractor2.bmp,2,0,,0,1,501974,600,,0,0,purple,600,3,600,,horizontal,yellow,Distractor2.bmp,blue,Distractor2.bmp,purple,Distractor2.bmp,red,Target2.bmp,lime,Distractor2.bmp,cyan,Distractor2.bmp,4,1,3,TrialProc,5,PracticeTrialList,1,2,-999999,0,502574,0,2,2569,505143,Target2.bmp,red,2,,,,,,
KW_Experiment5A,7,1,"<?xml version=""1.0""?>\n<Clock xmlns:dt=""urn:schemas-microsoft-com:datatypes""><Description dt:dt=""string"">E-Prime Primary Realtime Clock</Description><StartTime><Timestamp dt:dt=""int"">0</Timestamp><DateUtc dt:dt=""string"">2018-10-10T16:23:02Z</DateUtc></StartTime><FrequencyChanges><FrequencyChange><Frequency dt:dt=""r8"">3215292</Frequency><Timestamp dt:dt=""r8"">3896298863602</Timestamp><Current dt:dt=""r8"">0</Current><DateUtc dt:dt=""string"">2018-10-10T16:23:02Z</DateUtc></FrequencyChange></FrequencyChanges></Clock>\n",KW_Experiment5A-7-1,59.945,1.0.0.105,1,764170319,Professional,2.0.10.353,2.0.10.353,10/10/2018,10/10/2018 16:23,12:23:03,2.0.10.248,1,1,1,1,,,,,,,,PracticeProc,BlockList,4,2,Distractor1.bmp,1,0,,0,1,506161,400,,0,0,blue,400,1,400,3,horizontal,yellow,Distractor2.bmp,red,Distractor1.bmp,purple,Distractor2.bmp,blue,Distractor1.bmp,lime,Target2.bmp,cyan,Distractor1.bmp,5,1,4,TrialProc,,PracticeTrialList,1,2,-999999,0,506561,0,2,1606,508167,Target2.bmp,lime,2,,,,,,
KW_Experiment5A,7,1,"<?xml version=""1.0""?>\n<Clock xmlns:dt=""urn:schemas-microsoft-com:datatypes""><Description dt:dt=""string"">E-Prime Primary Realtime Clock</Description><StartTime><Timestamp dt:dt=""int"">0</Timestamp><DateUtc dt:dt=""string"">2018-10-10T16:23:02Z</DateUtc></StartTime><FrequencyChanges><FrequencyChange><Frequency dt:dt=""r8"">3215292</Frequency><Timestamp dt:dt=""r8"">3896298863602</Timestamp><Current dt:dt=""r8"">0</Current><DateUtc dt:dt=""string"">2018-10-10T16:23:02Z</DateUtc></FrequencyChange></FrequencyChanges></Clock>\n",KW_Experiment5A-7-1,59.945,1.0.0.105,1,764170319,Professional,2.0.10.353,2.0.10.353,10/10/2018,10/10/2018 16:23,12:23:03,2.0.10.248,1,1,1,1,,,,,,,,PracticeProc,BlockList,5,2,Distractor1.bmp,1,0,,0,1,509180,501,,0,0,yellow,500,2,500,2,horizontal,purple,Distractor1.bmp,yellow,Distractor1.bmp,lime,Target2.bmp,blue,Distractor1.bmp,red,Distractor1.bmp,cyan,Distractor1.bmp,3,1,5,TrialProc,,PracticeTrialList,0,2,-999999,1,509681,0,1,1518,511199,Target2.bmp,lime,2,,,,,,
KW_Experiment5A,7,1,"<?xml version=""1.0""?>\n<Clock xmlns:dt=""urn:schemas-microsoft-com:datatypes""><Description dt:dt=""string"">E-Prime Primary Realtime Clock</Description><StartTime><Timestamp dt:dt=""int"">0</Timestamp><DateUtc dt:dt=""string"">2018-10-10T16:23:02Z</DateUtc></StartTime><FrequencyChanges><FrequencyChange><Frequency dt:dt=""r8"">3215292</Frequency><Timestamp dt:dt=""r8"">3896298863602</Timestamp><Current dt:dt=""r8"">0</Current><DateUtc dt:dt=""string"">2018-10-10T16:23:02Z</DateUtc></FrequencyChange></FrequencyChanges></Clock>\n",KW_Experiment5A-7-1,59.945,1.0.0.105,1,764170319,Professional,2.0.10.353,2.0.10.353,10/10/2018,10/10/2018 16:23,12:23:03,2.0.10.248,1,1,1,1,,,,,,,,PracticeProc,BlockList,6,1,Distractor2.bmp,2,0,,0,1,512216,501,,0,0,purple,500,2,500,,vertical,cyan,Distractor2.bmp,yellow,Distractor1.bmp,lime,Distractor1.bmp,blue,Distractor2.bmp,purple,Distractor1.bmp,red,Target1.bmp,6,1,6,TrialProc,5,PracticeTrialList,1,1,-999999,1,512717,0,1,2618,515335,Target1.bmp,red,1,,,,,,
KW_Experiment5A,7,1,"<?xml version=""1.0""?>\n<Clock xmlns:dt=""urn:schemas-microsoft-com:datatypes""><Description dt:dt=""string"">E-Prime Primary Realtime Clock</Description><StartTime><Timestamp dt:dt=""int"">0</Timestamp><DateUtc dt:dt=""string"">2018-10-10T16:23:02Z</DateUtc></StartTime><FrequencyChanges><FrequencyChange><Frequency dt:dt=""r8"">3215292</Frequency><Timestamp dt:dt=""r8"">3896298863602</Timestamp><Current dt:dt=""r8"">0</Current><DateUtc dt:dt=""string"">2018-10-10T16:23:02Z</DateUtc></FrequencyChange></FrequencyChanges></Clock>\n",KW_Experiment5A-7-1,59.945,1.0.0.105,1,764170319,Professional,2.0.10.353,2.0.10.353,10/10/2018,10/10/2018 16:23,12:23:03,2.0.10.248,2,2,1,2,,,,,,,,TrainingProc,BlockList,1,1,Distractor2.bmp,2,0,,0,42,528865,600,,0,0,blue,600,3,600,3,vertical,lime,Target1.bmp,blue,Distractor2.bmp,purple,Distractor2.bmp,yellow,Distractor1.bmp,cyan,Distractor2.bmp,red,Distractor2.bmp,,,,TrialProc,,TrainingTrialList,1,1,-999999,0,529465,0,1,918,530383,Target1.bmp,lime,1,,,,1,1,1
KW_Experiment5A,7,1,"<?xml version=""1.0""?>\n<Clock xmlns:dt=""urn:schemas-microsoft-com:datatypes""><Description dt:dt=""string"">E-Prime Primary Realtime Clock</Description><StartTime><Timestamp dt:dt=""int"">0</Timestamp><DateUtc dt:dt=""string"">2018-10-10T16:23:02Z</DateUtc></StartTime><FrequencyChanges><FrequencyChange><Frequency dt:dt=""r8"">3215292</Frequency><Timestamp dt:dt=""r8"">3896298863602</Timestamp><Current dt:dt=""r8"">0</Current><DateUtc dt:dt=""string"">2018-10-10T16:23:02Z</DateUtc></FrequencyChange></FrequencyChanges></Clock>\n",KW_Experiment5A-7-1,59.945,1.0.0.105,1,764170319,Professional,2.0.10.353,2.0.10.353,10/10/2018,10/10/2018 16:23,12:23:03,2.0.10.248,2,2,1,2,,,,,,,,TrainingProc,BlockList,2,1,Distractor1.bmp,1,0,,1,0,531400,501,,0,0,purple,500,2,500,5,vertical,purple,Distractor2.bmp,yellow,Distractor2.bmp,lime,Target1.bmp,red,Distractor1.bmp,blue,Distractor1.bmp,cyan,Distractor2.bmp,,,,TrialProc,,TrainingTrialList,1,1,-999999,1,531901,0,1,1226,533127,Target1.bmp,lime,1,,,,3,1,2
KW_Experiment5A,7,1,"<?xml version=""1.0""?>\n<Clock xmlns:dt=""urn:schemas-microsoft-com:datatypes""><Description dt:dt=""string"">E-Prime Primary Realtime Clock</Description><StartTime><Timestamp dt:dt=""int"">0</Timestamp><DateUtc dt:dt=""string"">2018-10-10T16:23:02Z</DateUtc></StartTime><FrequencyChanges><FrequencyChange><Frequency dt:dt=""r8"">3215292</Frequency><Timestamp dt:dt=""r8"">3896298863602</Timestamp><Current dt:dt=""r8"">0</Current><DateUtc dt:dt=""string"">2018-10-10T16:23:02Z</DateUtc></FrequencyChange></FrequencyChanges></Clock>\n",KW_Experiment5A-7-1,59.945,1.0.0.105,1,764170319,Professional,2.0.10.353,2.0.10.353,10/10/2018,10/10/2018 16:23,12:23:03,2.0.10.248,2,2,1,2,,,,,,,,TrainingProc,BlockList,3,2,Distractor2.bmp,2,0,,0,1,534153,500,,0,0,cyan,500,2,500,4,horizontal,lime,Target2.bmp,cyan,Distractor2.bmp,purple,Distractor1.bmp,yellow,Distractor1.bmp,blue,Distractor2.bmp,red,Distractor1.bmp,,,,TrialProc,,TrainingTrialList,1,2,-999999,0,534653,0,2,826,535479,Target2.bmp,lime,2,,,,1,1,3
KW_Experiment5A,7,1,"<?xml version=""1.0""?>\n<Clock xmlns:dt=""urn:schemas-microsoft-com:datatypes""><Description dt:dt=""string"">E-Prime Primary Realtime Clock</Description><StartTime><Timestamp dt:dt=""int"">0</Timestamp><DateUtc dt:dt=""string"">2018-10-10T16:23:02Z</DateUtc></StartTime><FrequencyChanges><FrequencyChange><Frequency dt:dt=""r8"">3215292</Frequency><Timestamp dt:dt=""r8"">3896298863602</Timestamp><Current dt:dt=""r8"">0</Current><DateUtc dt:dt=""string"">2018-10-10T16:23:02Z</DateUtc></FrequencyChange></FrequencyChanges></Clock>\n",KW_Experiment5A-7-1,59.945,1.0.0.105,1,764170319,Professional,2.0.10.353,2.0.10.353,10/10/2018,10/10/2018 16:23,12:23:03,2.0.10.248,2,2,1,2,,,,,,,,TrainingProc,BlockList,4,2,Distractor2.bmp,2,0,,0,1,536488,601,,0,0,yellow,600,3,600,2,horizontal,yellow,Distractor2.bmp,blue,Distractor2.bmp,red,Distractor1.bmp,purple,Distractor2.bmp,cyan,Distractor2.bmp,lime,Target2.bmp,,,,TrialProc,,TrainingTrialList,1,2,-999999,1,537089,0,2,806,537895,Target2.bmp,lime,2,,,,6,1,4
KW_Experiment5A,7,1,"<?xml version=""1.0""?>\n<Clock xmlns:dt=""urn:schemas-microsoft-com:datatypes""><Description dt:dt=""string"">E-Prime Primary Realtime Clock</Description><StartTime><Timestamp dt:dt=""int"">0</Timestamp><DateUtc dt:dt=""string"">2018-10-10T16:23:02Z</DateUtc></StartTime><FrequencyChanges><FrequencyChange><Frequency dt:dt=""r8"">3215292</Frequency><Timestamp dt:dt=""r8"">3896298863602</Timestamp><Current dt:dt=""r8"">0</Current><DateUtc dt:dt=""string"">2018-10-10T16:23:02Z</DateUtc></FrequencyChange></FrequencyChanges></Clock>\n",KW_Experiment5A-7-1,59.945,1.0.0.105,1,764170319,Professional,2.0.10.353,2.0.10.353,10/10/2018,10/10/2018 16:23,12:23:03,2.0.10.248,2,2,1,2,,,,,,,,TrainingProc,BlockList,5,1,Distractor2.bmp,2,0,,0,1,538907,401,,0,0,red,400,1,400,1,vertical,red,Distractor1.bmp,cyan,Distractor2.bmp,yellow,Distractor1.bmp,purple,Distractor1.bmp,lime,Target1.bmp,blue,Distractor2.bmp,,,,TrialProc,,TrainingTrialList,1,1,-999999,1,539308,0,1,747,540055,Target1.bmp,lime,1,,,,5,1,5
KW_Experiment5A,7,1,"<?xml version=""1.0""?>\n<Clock xmlns:dt=""urn:schemas-microsoft-com:datatypes""><Description dt:dt=""string"">E-Prime Primary Realtime Clock</Description><StartTime><Timestamp dt:dt=""int"">0</Timestamp><DateUtc dt:dt=""string"">2018-10-10T16:23:02Z</DateUtc></StartTime><FrequencyChanges><FrequencyChange><Frequency dt:dt=""r8"">3215292</Frequency><Timestamp dt:dt=""r8"">3896298863602</Timestamp><Current dt:dt=""r8"">0</Current><DateUtc dt:dt=""string"">2018-10-10T16:23:02Z</DateUtc></FrequencyChange></FrequencyChanges></Clock>\n",KW_Experiment5A-7-1,59.945,1.0.0.105,1,764170319,Professional,2.0.10.353,2.0.10.353,10/10/2018,10/10/2018 16:23,12:23:03,2.0.10.248,2,2,1,2,,,,,,,,TrainingProc,BlockList,6,1,Distractor1.bmp,1,0,,0,1,541076,400,,0,0,cyan,400,1,400,4,vertical,cyan,Distractor2.bmp,yellow,Distractor2.bmp,blue,Distractor2.bmp,lime,Target1.bmp,red,Distractor1.bmp,purple,Distractor1.bmp,,,,TrialProc,,TrainingTrialList,1,1,-999999,0,541476,0,1,803,542279,Target1.bmp,lime,1,,,,4,1,6
KW_Experiment5A,7,1,"<?xml version=""1.0""?>\n<Clock xmlns:dt=""urn:schemas-microsoft-com:datatypes""><Description dt:dt=""string"">E-Prime Primary Realtime Clock</Description><StartTime><Timestamp dt:dt=""int"">0</Timestamp><DateUtc dt:dt=""string"">2018-10-10T16:23:02Z</DateUtc></StartTime><FrequencyChanges><FrequencyChange><Frequency dt:dt=""r8"">3215292</Frequency><Timestamp dt:dt=""r8"">3896298863602</Timestamp><Current dt:dt=""r8"">0</Current><DateUtc dt:dt=""string"">2018-10-10T16:23:02Z</DateUtc></FrequencyChange></FrequencyChanges></Clock>\n",KW_Experiment5A-7-1,59.945,1.0.0.105,1,764170319,Professional,2.0.10.353,2.0.10.353,10/10/2018,10/10/2018 16:23,12:23:03,2.0.10.248,2,2,1,2,,,,,,,,TrainingProc,BlockList,7,1,Distractor2.bmp,2,0,,0,1,543295,600,,0,0,yellow,600,3,600,,vertical,yellow,Distractor2.bmp,blue,Distractor2.bmp,cyan,Distractor1.bmp,red,Target1.bmp,lime,Distractor2.bmp,purple,Distractor2.bmp,,,,TrialProc,2,TrainingTrialList,1,1,-999999,0,543895,0,1,895,544790,Target1.bmp,red,1,,,,10,1,7
KW_Experiment5A,7,1,"<?xml version=""1.0""?>\n<Clock xmlns:dt=""urn:schemas-microsoft-com:datatypes""><Description dt:dt=""string"">E-Prime Primary Realtime Clock</Description><StartTime><Timestamp dt:dt=""int"">0</Timestamp><DateUtc dt:dt=""string"">2018-10-10T16:23:02Z</DateUtc></StartTime><FrequencyChanges><FrequencyChange><Frequency dt:dt=""r8"">3215292</Frequency><Timestamp dt:dt=""r8"">3896298863602</Timestamp><Current dt:dt=""r8"">0</Current><DateUtc dt:dt=""string"">2018-10-10T16:23:02Z</DateUtc></FrequencyChange></FrequencyChanges></Clock>\n",KW_Experiment5A-7-1,59.945,1.0.0.105,1,764170319,Professional,2.0.10.353,2.0.10.353,10/10/2018,10/10/2018 16:23,12:23:03,2.0.10.248,2,2,1,2,,,,,,,,TrainingProc,BlockList,8,2,Distractor2.bmp,2,0,,0,1,545814,500,,0,0,yellow,500,2,500,2,horizontal,yellow,Distractor2.bmp,cyan,Distractor1.bmp,lime,Target2.bmp,red,Distractor2.bmp,purple,Distractor1.bmp,blue,Distractor2.bmp,,,,TrialProc,,TrainingTrialList,1,2,-999999,0,546314,0,2,860,547174,Target2.bmp,lime,2,,,,3,1,8
KW_Experiment5A,7,1,"<?xml version=""1.0""?>\n<Clock xmlns:dt=""urn:schemas-microsoft-com:datatypes""><Description dt:dt=""string"">E-Prime Primary Realtime Clock</Description><StartTime><Timestamp dt:dt=""int"">0</Timestamp><DateUtc dt:dt=""string"">2018-10-10T16:23:02Z</DateUtc></StartTime><FrequencyChanges><FrequencyChange><Frequency dt:dt=""r8"">3215292</Frequency><Timestamp dt:dt=""r8"">3896298863602</Timestamp><Current dt:dt=""r8"">0</Current><DateUtc dt:dt=""string"">2018-10-10T16:23:02Z</DateUtc></FrequencyChange></FrequencyChanges></Clock>\n",KW_Experiment5A-7-1,59.945,1.0.0.105,1,764170319,Professional,2.0.10.353,2.0.10.353,10/10/2018,10/10/2018 16:23,12:23:03,2.0.10.248,2,2,1,2,,,,,,,,TrainingProc,BlockList,9,2,Distractor1.bmp,1,0,,0,1,548199,500,,0,0,red,500,2,500,1,horizontal,red,Distractor1.bmp,blue,Distractor2.bmp,cyan,Distractor1.bmp,yellow,Distractor1.bmp,purple,Distractor2.bmp,lime,Target2.bmp,,,,TrialProc,,TrainingTrialList,1,2,-999999,0,548699,0,2,803,549502,Target2.bmp,lime,2,,,,6,1,9
KW_Experiment5A,7,1,"<?xml version=""1.0""?>\n<Clock xmlns:dt=""urn:schemas-microsoft-com:datatypes""><Description dt:dt=""string"">E-Prime Primary Realtime Clock</Description><StartTime><Timestamp dt:dt=""int"">0</Timestamp><DateUtc dt:dt=""string"">2018-10-10T16:23:02Z</DateUtc></StartTime><FrequencyChanges><FrequencyChange><Frequency dt:dt=""r8"">3215292</Frequency><Timestamp dt:dt=""r8"">3896298863602</Timestamp><Current dt:dt=""r8"">0</Current><DateUtc dt:dt=""string"">2018-10-10T16:23:02Z</DateUtc></FrequencyChange></FrequencyChanges></Clock>\n",KW_Experiment5A-7-1,59.945,1.0.0.105,1,764170319,Professional,2.0.10.353,2.0.10.353,10/10/2018,10/10/2018 16:23,12:23:03,2.0.10.248,2,2,1,2,,,,,,,,TrainingProc,BlockList,10,2,Distractor2.bmp,2,0,,0,1,550518,500,,0,0,lime,500,2,500,,horizontal,lime,Distractor2.bmp,red,Target2.bmp,purple,Distractor2.bmp,yellow,Distractor1.bmp,cyan,Distractor2.bmp,blue,Distractor1.bmp,,,,TrialProc,6,TrainingTrialList,1,2,-999999,0,551018,0,2,876,551894,Target2.bmp,red,2,,,,8,1,10
KW_Experiment5A,7,1,"<?xml version=""1.0""?>\n<Clock xmlns:dt=""urn:schemas-microsoft-com:datatypes""><Description dt:dt=""string"">E-Prime Primary Realtime Clock</Description><StartTime><Timestamp dt:dt=""int"">0</Timestamp><DateUtc dt:dt=""string"">2018-10-10T16:23:02Z</DateUtc></StartTime><FrequencyChanges><FrequencyChange><Frequency dt:dt=""r8"">3215292</Frequency><Timestamp dt:dt=""r8"">3896298863602</Timestamp><Current dt:dt=""r8"">0</Current><DateUtc dt:dt=""string"">2018-10-10T16:23:02Z</DateUtc></FrequencyChange></FrequencyChanges></Clock>\n",KW_Experiment5A-7-1,59.945,1.0.0.105,1,764170319,Professional,2.0.10.353,2.0.10.353,10/10/2018,10/10/2018 16:23,12:23:03,2.0.10.248,2,2,1,2,,,,,,,,TrainingProc,BlockList,11,2,Distractor1.bmp,1,0,,0,1,552920,601,,0,0,cyan,600,3,600,,horizontal,cyan,Distractor1.bmp,yellow,Distractor1.bmp,blue,Distractor2.bmp,lime,Distractor2.bmp,purple,Distractor2.bmp,red,Target2.bmp,,,,TrialProc,4,TrainingTrialList,1,2,-999999,1,553521,0,2,1141,554662,Target2.bmp,red,2,,,,12,1,11
KW_Experiment5A,7,1,"<?xml version=""1.0""?>\n<Clock xmlns:dt=""urn:schemas-microsoft-com:datatypes""><Description dt:dt=""string"">E-Prime Primary Realtime Clock</Description><StartTime><Timestamp dt:dt=""int"">0</Timestamp><DateUtc dt:dt=""string"">2018-10-10T16:23:02Z</DateUtc></StartTime><FrequencyChanges><FrequencyChange><Frequency dt:dt=""r8"">3215292</Frequency><Timestamp dt:dt=""r8"">3896298863602</Timestamp><Current dt:dt=""r8"">0</Current><DateUtc dt:dt=""string"">2018-10-10T16:23:02Z</DateUtc></FrequencyChange></FrequencyChanges></Clock>\n",KW_Experiment5A-7-1,59.945,1.0.0.105,1,764170319,Professional,2.0.10.353,2.0.10.353,10/10/2018,10/10/2018 16:23,12:23:03,2.0.10.248,2,2,1,2,,,,,,,,TrainingProc,BlockList,12,2,Distractor2.bmp,2,0,,1,0,555672,501,,0,0,purple,500,2,500,5,horizontal,purple,Distractor1.bmp,blue,Distractor2.bmp,red,Distractor1.bmp,yellow,Distractor2.bmp,lime,Target2.bmp,cyan,Distractor2.bmp,,,,TrialProc,,TrainingTrialList,1,2,-999999,1,556173,0,2,633,556806,Target2.bmp,lime,2,,,,5,1,12
KW_Experiment5A,7,1,"<?xml version=""1.0""?>\n<Clock xmlns:dt=""urn:schemas-microsoft-com:datatypes""><Description dt:dt=""string"">E-Prime Primary Realtime Clock</Description><StartTime><Timestamp dt:dt=""int"">0</Timestamp><DateUtc dt:dt=""string"">2018-10-10T16:23:02Z</DateUtc></StartTime><FrequencyChanges><FrequencyChange><Frequency dt:dt=""r8"">3215292</Frequency><Timestamp dt:dt=""r8"">3896298863602</Timestamp><Current dt:dt=""r8"">0</Current><DateUtc dt:dt=""string"">2018-10-10T16:23:02Z</DateUtc></FrequencyChange></FrequencyChanges></Clock>\n",KW_Experiment5A-7-1,59.945,1.0.0.105,1,764170319,Professional,2.0.10.353,2.0.10.353,10/10/2018,10/10/2018 16:23,12:23:03,2.0.10.248,2,2,1,2,,,,,,,,TrainingProc,BlockList,13,1,Distractor1.bmp,1,0,,1,0,557824,401,,0,0,blue,400,1,400,,vertical,blue,Distractor1.bmp,cyan,Distractor1.bmp,yellow,Distractor2.bmp,lime,Distractor2.bmp,red,Target1.bmp,purple,Distractor1.bmp,,,,TrialProc,3,TrainingTrialList,1,1,-999999,1,558225,0,1,741,558966,Target1.bmp,red,1,,,,11,1,13
KW_Experiment5A,7,1,"<?xml version=""1.0""?>\n<Clock xmlns:dt=""urn:schemas-microsoft-com:datatypes""><Description dt:dt=""string"">E-Prime Primary Realtime Clock</Description><StartTime><Timestamp dt:dt=""int"">0</Timestamp><DateUtc dt:dt=""string"">2018-10-10T16:23:02Z</DateUtc></StartTime><FrequencyChanges><FrequencyChange><Frequency dt:dt=""r8"">3215292</Frequency><Timestamp dt:dt=""r8"">3896298863602</Timestamp><Current dt:dt=""r8"">0</Current><DateUtc dt:dt=""string"">2018-10-10T16:23:02Z</DateUtc></FrequencyChange></FrequencyChanges></Clock>\n",KW_Experiment5A-7-1,59.945,1.0.0.105,1,764170319,Professional,2.0.10.353,2.0.10.353,10/10/2018,10/10/2018 16:23,12:23:03,2.0.10.248,2,2,1,2,,,,,,,,TrainingProc,BlockList,14,1,Distractor1.bmp,1,0,,0,0,559976,501,,0,0,red,500,2,500,1,vertical,red,Distractor1.bmp,blue,Distractor1.bmp,yellow,Distractor1.bmp,purple,Distractor1.bmp,cyan,Distractor2.bmp,lime,Target1.bmp,,,,TrialProc,,TrainingTrialList,1,1,-999999,1,560477,0,1,625,561102,Target1.bmp,lime,1,,,,6,1,14
KW_Experiment5A,7,1,"<?xml version=""1.0""?>\n<Clock xmlns:dt=""urn:schemas-microsoft-com:datatypes""><Description dt:dt=""string"">E-Prime Primary Realtime Clock</Description><StartTime><Timestamp dt:dt=""int"">0</Timestamp><DateUtc dt:dt=""string"">2018-10-10T16:23:02Z</DateUtc></StartTime><FrequencyChanges><FrequencyChange><Frequency dt:dt=""r8"">3215292</Frequency><Timestamp dt:dt=""r8"">3896298863602</Timestamp><Current dt:dt=""r8"">0</Current><DateUtc dt:dt=""string"">2018-10-10T16:23:02Z</DateUtc></FrequencyChange></FrequencyChanges></Clock>\n",KW_Experiment5A-7-1,59.945,1.0.0.105,1,764170319,Professional,2.0.10.353,2.0.10.353,10/10/2018,10/10/2018 16:23,12:23:03,2.0.10.248,2,2,1,2,,,,,,,,TrainingProc,BlockList,15,2,Distractor1.bmp,1,0,,0,1,562112,500,,0,0,yellow,500,2,500,2,horizontal,yellow,Distractor1.bmp,red,Distractor1.bmp,blue,Distractor2.bmp,lime,Target2.bmp,purple,Distractor1.bmp,cyan,Distractor1.bmp,,,,TrialProc,,TrainingTrialList,1,2,-999999,0,562612,0,2,826,563438,Target2.bmp,lime,2,,,,4,1,15
KW_Experiment5A,7,1,"<?xml version=""1.0""?>\n<Clock xmlns:dt=""urn:schemas-microsoft-com:datatypes""><Description dt:dt=""string"">E-Prime Primary Realtime Clock</Description><StartTime><Timestamp dt:dt=""int"">0</Timestamp><DateUtc dt:dt=""string"">2018-10-10T16:23:02Z</DateUtc></StartTime><FrequencyChanges><FrequencyChange><Frequency dt:dt=""r8"">3215292</Frequency><Timestamp dt:dt=""r8"">3896298863602</Timestamp><Current dt:dt=""r8"">0</Current><DateUtc dt:dt=""string"">2018-10-10T16:23:02Z</DateUtc></FrequencyChange></FrequencyChanges></Clock>\n",KW_Experiment5A-7-1,59.945,1.0.0.105,1,764170319,Professional,2.0.10.353,2.0.10.353,10/10/2018,10/10/2018 16:23,12:23:03,2.0.10.248,2,2,1,2,,,,,,,,TrainingProc,BlockList,16,1,Distractor1.bmp,1,0,,0,1,564464,600,,0,0,yellow,600,3,600,,vertical,yellow,Distractor1.bmp,blue,Distractor2.bmp,red,Target1.bmp,lime,Distractor1.bmp,purple,Distractor2.bmp,cyan,Distractor2.bmp,,,,TrialProc,2,TrainingTrialList,0,1,-999999,0,565064,0,2,1126,566190,Target1.bmp,red,1,,,,9,1,16
KW_Experiment5A,7,1,"<?xml version=""1.0""?>\n<Clock xmlns:dt=""urn:schemas-microsoft-com:datatypes""><Description dt:dt=""string"">E-Prime Primary Realtime Clock</Description><StartTime><Timestamp dt:dt=""int"">0</Timestamp><DateUtc dt:dt=""string"">2018-10-10T16:23:02Z</DateUtc></StartTime><FrequencyChanges><FrequencyChange><Frequency dt:dt=""r8"">3215292</Frequency><Timestamp dt:dt=""r8"">3896298863602</Timestamp><Current dt:dt=""r8"">0</Current><DateUtc dt:dt=""string"">2018-10-10T16:23:02Z</DateUtc></FrequencyChange></FrequencyChanges></Clock>\n",KW_Experiment5A-7-1,59.945,1.0.0.105,1,764170319,Professional,2.0.10.353,2.0.10.353,10/10/2018,10/10/2018 16:23,12:23:03,2.0.10.248,2,2,1,2,,,,,,,,TrainingProc,BlockList,17,1,Distractor1.bmp,1,0,,0,1,567216,501,,0,0,blue,500,2,500,3,vertical,blue,Distractor1.bmp,lime,Target1.bmp,cyan,Distractor1.bmp,purple,Distractor1.bmp,red,Distractor2.bmp,yellow,Distractor1.bmp,,,,TrialProc,,TrainingTrialList,1,1,-999999,1,567717,0,1,1289,569006,Target1.bmp,lime,1,,,,2,1,17
KW_Experiment5A,7,1,"<?xml version=""1.0""?>\n<Clock xmlns:dt=""urn:schemas-microsoft-com:datatypes""><Description dt:dt=""string"">E-Prime Primary Realtime Clock</Description><StartTime><Timestamp dt:dt=""int"">0</Timestamp><DateUtc dt:dt=""string"">2018-10-10T16:23:02Z</DateUtc></StartTime><FrequencyChanges><FrequencyChange><Frequency dt:dt=""r8"">3215292</Frequency><Timestamp dt:dt=""r8"">3896298863602</Timestamp><Current dt:dt=""r8"">0</Current><DateUtc dt:dt=""string"">2018-10-10T16:23:02Z</DateUtc></FrequencyChange></FrequencyChanges></Clock>\n",KW_Experiment5A-7-1,59.945,1.0.0.105,1,764170319,Professional,2.0.10.353,2.0.10.353,10/10/2018,10/10/2018 16:23,12:23:03,2.0.10.248,2,2,1,2,,,,,,,,TrainingProc,BlockList,18,2,Distractor1.bmp,1,0,,0,1,570019,600,,0,0,purple,600,3,600,5,horizontal,purple,Distractor1.bmp,cyan,Distractor2.bmp,yellow,Distractor2.bmp,blue,Distractor1.bmp,lime,Target2.bmp,red,Distractor1.bmp,,,,TrialProc,,TrainingTrialList,1,2,-999999,0,570619,0,2,803,571422,Target2.bmp,lime,2,,,,5,1,18
KW_Experiment5A,7,1,"<?xml version=""1.0""?>\n<Clock xmlns:dt=""urn:schemas-microsoft-com:datatypes""><Description dt:dt=""string"">E-Prime Primary Realtime Clock</Description><StartTime><Timestamp dt:dt=""int"">0</Timestamp><DateUtc dt:dt=""string"">2018-10-10T16:23:02Z</DateUtc></StartTime><FrequencyChanges><FrequencyChange><Frequency dt:dt=""r8"">3215292</Frequency><Timestamp dt:dt=""r8"">3896298863602</Timestamp><Current dt:dt=""r8"">0</Current><DateUtc dt:dt=""string"">2018-10-10T16:23:02Z</DateUtc></FrequencyChange></FrequencyChanges></Clock>\n",KW_Experiment5A-7-1,59.945,1.0.0.105,1,764170319,Professional,2.0.10.353,2.0.10.353,10/10/2018,10/10/2018 16:23,12:23:03,2.0.10.248,2,2,1,2,,,,,,,,TrainingProc,BlockList,19,2,Distractor1.bmp,1,0,,0,1,572438,600,,0,0,yellow,600,3,600,,horizontal,red,Target2.bmp,lime,Distractor1.bmp,blue,Distractor2.bmp,cyan,Distractor2.bmp,purple,Distractor1.bmp,yellow,Distractor1.bmp,,,,TrialProc,2,TrainingTrialList,1,2,-999999,0,573038,0,2,616,573654,Target2.bmp,red,2,,,,7,1,19
KW_Experiment5A,7,1,"<?xml version=""1.0""?>\n<Clock xmlns:dt=""urn:schemas-microsoft-com:datatypes""><Description dt:dt=""string"">E-Prime Primary Realtime Clock</Description><StartTime><Timestamp dt:dt=""int"">0</Timestamp><DateUtc dt:dt=""string"">2018-10-10T16:23:02Z</DateUtc></StartTime><FrequencyChanges><FrequencyChange><Frequency dt:dt=""r8"">3215292</Frequency><Timestamp dt:dt=""r8"">3896298863602</Timestamp><Current dt:dt=""r8"">0</Current><DateUtc dt:dt=""string"">2018-10-10T16:23:02Z</DateUtc></FrequencyChange></FrequencyChanges></Clock>\n",KW_Experiment5A-7-1,59.945,1.0.0.105,1,764170319,Professional,2.0.10.353,2.0.10.353,10/10/2018,10/10/2018 16:23,12:23:03,2.0.10.248,2,2,1,2,,,,,,,,TrainingProc,BlockList,20,2,Distractor2.bmp,2,0,,0,1,574673,400,,0,0,blue,400,1,400,3,horizontal,lime,Target2.bmp,blue,Distractor2.bmp,yellow,Distractor2.bmp,red,Distractor1.bmp,purple,Distractor1.bmp,cyan,Distractor2.bmp,,,,TrialProc,,TrainingTrialList,1,2,-999999,0,575073,0,2,1125,576198,Target2.bmp,lime,2,,,,1,1,20
KW_Experiment5A,7,1,"<?xml version=""1.0""?>\n<Clock xmlns:dt=""urn:schemas-microsoft-com:datatypes""><Description dt:dt=""string"">E-Prime Primary Realtime Clock</Description><StartTime><Timestamp dt:dt=""int"">0</Timestamp><DateUtc dt:dt=""string"">2018-10-10T16:23:02Z</DateUtc></StartTime><FrequencyChanges><FrequencyChange><Frequency dt:dt=""r8"">3215292</Frequency><Timestamp dt:dt=""r8"">3896298863602</Timestamp><Current dt:dt=""r8"">0</Current><DateUtc dt:dt=""string"">2018-10-10T16:23:02Z</DateUtc></FrequencyChange></FrequencyChanges></Clock>\n",KW_Experiment5A-7-1,59.945,1.0.0.105,1,764170319,Professional,2.0.10.353,2.0.10.353,10/10/2018,10/10/2018 16:23,12:23:03,2.0.10.248,2,2,1,2,,,,,,,,TrainingProc,BlockList,21,2,Distractor2.bmp,2,0,,0,1,577209,500,,0,0,purple,500,2,500,5,horizontal,purple,Distractor2.bmp,red,Distractor1.bmp,lime,Target2.bmp,blue,Distractor2.bmp,cyan,Distractor2.bmp,yellow,Distractor1.bmp,,,,TrialProc,,TrainingTrialList,1,2,-999999,0,577709,0,2,697,578406,Target2.bmp,lime,2,,,,3,1,21
KW_Experiment5A,7,1,"<?xml version=""1.0""?>\n<Clock xmlns:dt=""urn:schemas-microsoft-com:datatypes""><Description dt:dt=""string"">E-Prime Primary Realtime Clock</Description><StartTime><Timestamp dt:dt=""int"">0</Timestamp><DateUtc dt:dt=""string"">2018-10-10T16:23:02Z</DateUtc></StartTime><FrequencyChanges><FrequencyChange><Frequency dt:dt=""r8"">3215292</Frequency><Timestamp dt:dt=""r8"">3896298863602</Timestamp><Current dt:dt=""r8"">0</Current><DateUtc dt:dt=""string"">2018-10-10T16:23:02Z</DateUtc></FrequencyChange></FrequencyChanges></Clock>\n",KW_Experiment5A-7-1,59.945,1.0.0.105,1,764170319,Professional,2.0.10.353,2.0.10.353,10/10/2018,10/10/2018 16:23,12:23:03,2.0.10.248,2,2,1,2,,,,,,,,TrainingProc,BlockList,22,1,Distractor1.bmp,1,0,,1,0,579427,401,,0,0,cyan,400,1,400,4,vertical,cyan,Distractor2.bmp,red,Distractor2.bmp,blue,Distractor1.bmp,lime,Target1.bmp,purple,Distractor1.bmp,yellow,Distractor2.bmp,,,,TrialProc,,TrainingTrialList,1,1,-999999,1,579828,0,1,994,580822,Target1.bmp,lime,1,,,,4,1,22
KW_Experiment5A,7,1,"<?xml version=""1.0""?>\n<Clock xmlns:dt=""urn:schemas-microsoft-com:datatypes""><Description dt:dt=""string"">E-Prime Primary Realtime Clock</Description><StartTime><Timestamp dt:dt=""int"">0</Timestamp><DateUtc dt:dt=""string"">2018-10-10T16:23:02Z</DateUtc></StartTime><FrequencyChanges><FrequencyChange><Frequency dt:dt=""r8"">3215292</Frequency><Timestamp dt:dt=""r8"">3896298863602</Timestamp><Current dt:dt=""r8"">0</Current><DateUtc dt:dt=""string"">2018-10-10T16:23:02Z</DateUtc></FrequencyChange></FrequencyChanges></Clock>\n",KW_Experiment5A-7-1,59.945,1.0.0.105,1,764170319,Professional,2.0.10.353,2.0.10.353,10/10/2018,10/10/2018 16:23,12:23:03,2.0.10.248,2,2,1,2,,,,,,,,TrainingProc,BlockList,23,1,Distractor1.bmp,1,0,,0,1,581846,401,,0,0,yellow,400,1,400,2,vertical,yellow,Distractor1.bmp,lime,Target1.bmp,red,Distractor1.bmp,cyan,Distractor2.bmp,purple,Distractor1.bmp,blue,Distractor2.bmp,,,,TrialProc,,TrainingTrialList,1,1,-999999,1,582247,0,1,1127,583374,Target1.bmp,lime,1,,,,2,1,23
KW_Experiment5A,7,1,"<?xml version=""1.0""?>\n<Clock xmlns:dt=""urn:schemas-microsoft-com:datatypes""><Description dt:dt=""string"">E-Prime Primary Realtime Clock</Description><StartTime><Timestamp dt:dt=""int"">0</Timestamp><DateUtc dt:dt=""string"">2018-10-10T16:23:02Z</DateUtc></StartTime><FrequencyChanges><FrequencyChange><Frequency dt:dt=""r8"">3215292</Frequency><Timestamp dt:dt=""r8"">3896298863602</Timestamp><Current dt:dt=""r8"">0</Current><DateUtc dt:dt=""string"">2018-10-10T16:23:02Z</DateUtc></FrequencyChange></FrequencyChanges></Clock>\n",KW_Experiment5A-7-1,59.945,1.0.0.105,1,764170319,Professional,2.0.10.353,2.0.10.353,10/10/2018,10/10/2018 16:23,12:23:03,2.0.10.248,2,2,1,2,,,,,,,,TrainingProc,BlockList,24,2,Distractor1.bmp,1,0,,0,1,584399,500,,0,0,red,500,2,500,1,horizontal,red,Distractor2.bmp,lime,Target2.bmp,cyan,Distractor1.bmp,blue,Distractor1.bmp,purple,Distractor1.bmp,yellow,Distractor2.bmp,,,,TrialProc,,TrainingTrialList,1,2,-999999,0,584899,0,2,1083,585982,Target2.bmp,lime,2,,,,2,1,24
KW_Experiment5A,7,1,"<?xml version=""1.0""?>\n<Clock xmlns:dt=""urn:schemas-microsoft-com:datatypes""><Description dt:dt=""string"">E-Prime Primary Realtime Clock</Description><StartTime><Timestamp dt:dt=""int"">0</Timestamp><DateUtc dt:dt=""string"">2018-10-10T16:23:02Z</DateUtc></StartTime><FrequencyChanges><FrequencyChange><Frequency dt:dt=""r8"">3215292</Frequency><Timestamp dt:dt=""r8"">3896298863602</Timestamp><Current dt:dt=""r8"">0</Current><DateUtc dt:dt=""string"">2018-10-10T16:23:02Z</DateUtc></FrequencyChange></FrequencyChanges></Clock>\n",KW_Experiment5A-7-1,59.945,1.0.0.105,1,764170319,Professional,2.0.10.353,2.0.10.353,10/10/2018,10/10/2018 16:23,12:23:03,2.0.10.248,2,2,1,2,,,,,,,,TrainingProc,BlockList,25,2,Distractor1.bmp,1,0,,0,1,587001,400,,0,0,purple,400,1,400,5,horizontal,purple,Distractor2.bmp,cyan,Distractor2.bmp,blue,Distractor1.bmp,lime,Target2.bmp,yellow,Distractor1.bmp,red,Distractor2.bmp,,,,TrialProc,,TrainingTrialList,1,2,-999999,0,587401,0,2,548,587949,Target2.bmp,lime,2,,,,4,2,25
KW_Experiment5A,7,1,"<?xml version=""1.0""?>\n<Clock xmlns:dt=""urn:schemas-microsoft-com:datatypes""><Description dt:dt=""string"">E-Prime Primary Realtime Clock</Description><StartTime><Timestamp dt:dt=""int"">0</Timestamp><DateUtc dt:dt=""string"">2018-10-10T16:23:02Z</DateUtc></StartTime><FrequencyChanges><FrequencyChange><Frequency dt:dt=""r8"">3215292</Frequency><Timestamp dt:dt=""r8"">3896298863602</Timestamp><Current dt:dt=""r8"">0</Current><DateUtc dt:dt=""string"">2018-10-10T16:23:02Z</DateUtc></FrequencyChange></FrequencyChanges></Clock>\n",KW_Experiment5A-7-1,59.945,1.0.0.105,1,764170319,Professional,2.0.10.353,2.0.10.353,10/10/2018,10/10/2018 16:23,12:23:03,2.0.10.248,2,2,1,2,,,,,,,,TrainingProc,BlockList,26,2,Distractor2.bmp,2,0,,1,1,588969,601,,0,0,red,600,3,600,1,horizontal,red,Distractor1.bmp,lime,Target2.bmp,purple,Distractor2.bmp,yellow,Distractor2.bmp,cyan,Distractor1.bmp,blue,Distractor2.bmp,,,,TrialProc,,TrainingTrialList,1,2,-999999,1,589570,0,2,507,590077,Target2.bmp,lime,2,,,,2,2,26
KW_Experiment5A,7,1,"<?xml version=""1.0""?>\n<Clock xmlns:dt=""urn:schemas-microsoft-com:datatypes""><Description dt:dt=""string"">E-Prime Primary Realtime Clock</Description><StartTime><Timestamp dt:dt=""int"">0</Timestamp><DateUtc dt:dt=""string"">2018-10-10T16:23:02Z</DateUtc></StartTime><FrequencyChanges><FrequencyChange><Frequency dt:dt=""r8"">3215292</Frequency><Timestamp dt:dt=""r8"">3896298863602</Timestamp><Current dt:dt=""r8"">0</Current><DateUtc dt:dt=""string"">2018-10-10T16:23:02Z</DateUtc></FrequencyChange></FrequencyChanges></Clock>\n",KW_Experiment5A-7-1,59.945,1.0.0.105,1,764170319,Professional,2.0.10.353,2.0.10.353,10/10/2018,10/10/2018 16:23,12:23:03,2.0.10.248,2,2,1,2,,,,,,,,TrainingProc,BlockList,27,2,Distractor2.bmp,2,0,,0,1,591088,500,,0,0,red,500,2,500,1,horizontal,red,Distractor1.bmp,purple,Distractor2.bmp,blue,Distractor2.bmp,cyan,Distractor2.bmp,lime,Target2.bmp,yellow,Distractor2.bmp,,,,TrialProc,,TrainingTrialList,1,2,-999999,0,591588,0,2,681,592269,Target2.bmp,lime,2,,,,5,2,27
KW_Experiment5A,7,1,"<?xml version=""1.0""?>\n<Clock xmlns:dt=""urn:schemas-microsoft-com:datatypes""><Description dt:dt=""string"">E-Prime Primary Realtime Clock</Description><StartTime><Timestamp dt:dt=""int"">0</Timestamp><DateUtc dt:dt=""string"">2018-10-10T16:23:02Z</DateUtc></StartTime><FrequencyChanges><FrequencyChange><Frequency dt:dt=""r8"">3215292</Frequency><Timestamp dt:dt=""r8"">3896298863602</Timestamp><Current dt:dt=""r8"">0</Current><DateUtc dt:dt=""string"">2018-10-10T16:23:02Z</DateUtc></FrequencyChange></FrequencyChanges></Clock>\n",KW_Experiment5A-7-1,59.945,1.0.0.105,1,764170319,Professional,2.0.10.353,2.0.10.353,10/10/2018,10/10/2018 16:23,12:23:03,2.0.10.248,2,2,1,2,,,,,,,,TrainingProc,BlockList,28,1,Distractor2.bmp,2,0,,0,1,593290,601,,0,0,purple,600,3,600,5,vertical,purple,Distractor1.bmp,cyan,Distractor1.bmp,yellow,Distractor2.bmp,red,Distractor2.bmp,lime,Target1.bmp,blue,Distractor2.bmp,,,,TrialProc,,TrainingTrialList,1,1,-999999,1,593891,0,1,626,594517,Target1.bmp,lime,1,,,,5,2,28
KW_Experiment5A,7,1,"<?xml version=""1.0""?>\n<Clock xmlns:dt=""urn:schemas-microsoft-com:datatypes""><Description dt:dt=""string"">E-Prime Primary Realtime Clock</Description><StartTime><Timestamp dt:dt=""int"">0</Timestamp><DateUtc dt:dt=""string"">2018-10-10T16:23:02Z</DateUtc></StartTime><FrequencyChanges><FrequencyChange><Frequency dt:dt=""r8"">3215292</Frequency><Timestamp dt:dt=""r8"">3896298863602</Timestamp><Current dt:dt=""r8"">0</Current><DateUtc dt:dt=""string"">2018-10-10T16:23:02Z</DateUtc></FrequencyChange></FrequencyChanges></Clock>\n",KW_Experiment5A-7-1,59.945,1.0.0.105,1,764170319,Professional,2.0.10.353,2.0.10.353,10/10/2018,10/10/2018 16:23,12:23:03,2.0.10.248,2,2,1,2,,,,,,,,TrainingProc,BlockList,29,2,Distractor2.bmp,2,0,,0,1,595542,501,,0,0,purple,500,2,500,5,horizontal,purple,Distractor1.bmp,blue,Distractor1.bmp,lime,Target2.bmp,cyan,Distractor2.bmp,yellow,Distractor2.bmp,red,Distractor2.bmp,,,,TrialProc,,TrainingTrialList,1,2,-999999,1,596043,0,2,674,596717,Target2.bmp,lime,2,,,,3,2,29
KW_Experiment5A,7,1,"<?xml version=""1.0""?>\n<Clock xmlns:dt=""urn:schemas-microsoft-com:datatypes""><Description dt:dt=""string"">E-Prime Primary Realtime Clock</Description><StartTime><Timestamp dt:dt=""int"">0</Timestamp><DateUtc dt:dt=""string"">2018-10-10T16:23:02Z</DateUtc></StartTime><FrequencyChanges><FrequencyChange><Frequency dt:dt=""r8"">3215292</Frequency><Timestamp dt:dt=""r8"">3896298863602</Timestamp><Current dt:dt=""r8"">0</Current><DateUtc dt:dt=""string"">2018-10-10T16:23:02Z</DateUtc></FrequencyChange></FrequencyChanges></Clock>\n",KW_Experiment5A-7-1,59.945,1.0.0.105,1,764170319,Professional,2.0.10.353,2.0.10.353,10/10/2018,10/10/2018 16:23,12:23:03,2.0.10.248,2,2,1,2,,,,,,,,TrainingProc,BlockList,30,1,Distractor1.bmp,1,0,,0,1,597744,400,,0,0,lime,400,1,400,,vertical,lime,Distractor1.bmp,yellow,Distractor2.bmp,purple,Distractor1.bmp,cyan,Distractor2.bmp,blue,Distractor2.bmp,red,Target1.bmp,,,,TrialProc,6,TrainingTrialList,1,1,-999999,0,598144,0,1,813,598957,Target1.bmp,red,1,,,,12,2,30
KW_Experiment5A,7,1,"<?xml version=""1.0""?>\n<Clock xmlns:dt=""urn:schemas-microsoft-com:datatypes""><Description dt:dt=""string"">E-Prime Primary Realtime Clock</Description><StartTime><Timestamp dt:dt=""int"">0</Timestamp><DateUtc dt:dt=""string"">2018-10-10T16:23:02Z</DateUtc></StartTime><FrequencyChanges><FrequencyChange><Frequency dt:dt=""r8"">3215292</Frequency><Timestamp dt:dt=""r8"">3896298863602</Timestamp><Current dt:dt=""r8"">0</Current><DateUtc dt:dt=""string"">2018-10-10T16:23:02Z</DateUtc></FrequencyChange></FrequencyChanges></Clock>\n",KW_Experiment5A-7-1,59.945,1.0.0.105,1,764170319,Professional,2.0.10.353,2.0.10.353,10/10/2018,10/10/2018 16:23,12:23:03,2.0.10.248,2,2,1,2,,,,,,,,TrainingProc,BlockList,31,2,Distractor2.bmp,2,0,,0,0,599979,501,,0,0,cyan,500,2,500,4,horizontal,lime,Target2.bmp,cyan,Distractor2.bmp,purple,Distractor2.bmp,blue,Distractor1.bmp,yellow,Distractor1.bmp,red,Distractor1.bmp,,,,TrialProc,,TrainingTrialList,1,2,-999999,1,600480,0,2,733,601213,Target2.bmp,lime,2,,,,1,2,31
KW_Experiment5A,7,1,"<?xml version=""1.0""?>\n<Clock xmlns:dt=""urn:schemas-microsoft-com:datatypes""><Description dt:dt=""string"">E-Prime Primary Realtime Clock</Description><StartTime><Timestamp dt:dt=""int"">0</Timestamp><DateUtc dt:dt=""string"">2018-10-10T16:23:02Z</DateUtc></StartTime><FrequencyChanges><FrequencyChange><Frequency dt:dt=""r8"">3215292</Frequency><Timestamp dt:dt=""r8"">3896298863602</Timestamp><Current dt:dt=""r8"">0</Current><DateUtc dt:dt=""string"">2018-10-10T16:23:02Z</DateUtc></FrequencyChange></FrequencyChanges></Clock>\n",KW_Experiment5A-7-1,59.945,1.0.0.105,1,764170319,Professional,2.0.10.353,2.0.10.353,10/10/2018,10/10/2018 16:23,12:23:03,2.0.10.248,2,2,1,2,,,,,,,,TrainingProc,BlockList,32,1,Distractor2.bmp,2,0,,1,0,602231,501,,0,0,purple,500,2,500,5,vertical,purple,Distractor2.bmp,lime,Target1.bmp,blue,Distractor2.bmp,red,Distractor1.bmp,yellow,Distractor2.bmp,cyan,Distractor2.bmp,,,,TrialProc,,TrainingTrialList,1,1,-999999,1,602732,0,1,801,603533,Target1.bmp,lime,1,,,,2,2,32
KW_Experiment5A,7,1,"<?xml version=""1.0""?>\n<Clock xmlns:dt=""urn:schemas-microsoft-com:datatypes""><Description dt:dt=""string"">E-Prime Primary Realtime Clock</Description><StartTime><Timestamp dt:dt=""int"">0</Timestamp><DateUtc dt:dt=""string"">2018-10-10T16:23:02Z</DateUtc></StartTime><FrequencyChanges><FrequencyChange><Frequency dt:dt=""r8"">3215292</Frequency><Timestamp dt:dt=""r8"">3896298863602</Timestamp><Current dt:dt=""r8"">0</Current><DateUtc dt:dt=""string"">2018-10-10T16:23:02Z</DateUtc></FrequencyChange></FrequencyChanges></Clock>\n",KW_Experiment5A-7-1,59.945,1.0.0.105,1,764170319,Professional,2.0.10.353,2.0.10.353,10/10/2018,10/10/2018 16:23,12:23:03,2.0.10.248,2,2,1,2,,,,,,,,TrainingProc,BlockList,33,1,Distractor2.bmp,2,0,,0,1,604550,401,,0,0,lime,400,1,400,,vertical,lime,Distractor1.bmp,blue,Distractor2.bmp,red,Target1.bmp,yellow,Distractor2.bmp,purple,Distractor1.bmp,cyan,Distractor2.bmp,,,,TrialProc,6,TrainingTrialList,1,1,-999999,1,604951,0,1,1014,605965,Target1.bmp,red,1,,,,9,2,33
KW_Experiment5A,7,1,"<?xml version=""1.0""?>\n<Clock xmlns:dt=""urn:schemas-microsoft-com:datatypes""><Description dt:dt=""string"">E-Prime Primary Realtime Clock</Description><StartTime><Timestamp dt:dt=""int"">0</Timestamp><DateUtc dt:dt=""string"">2018-10-10T16:23:02Z</DateUtc></StartTime><FrequencyChanges><FrequencyChange><Frequency dt:dt=""r8"">3215292</Frequency><Timestamp dt:dt=""r8"">3896298863602</Timestamp><Current dt:dt=""r8"">0</Current><DateUtc dt:dt=""string"">2018-10-10T16:23:02Z</DateUtc></FrequencyChange></FrequencyChanges></Clock>\n",KW_Experiment5A-7-1,59.945,1.0.0.105,1,764170319,Professional,2.0.10.353,2.0.10.353,10/10/2018,10/10/2018 16:23,12:23:03,2.0.10.248,2,2,1,2,,,,,,,,TrainingProc,BlockList,34,2,Distractor1.bmp,1,0,,0,1,606986,600,,0,0,cyan,600,3,600,4,horizontal,lime,Target2.bmp,cyan,Distractor1.bmp,yellow,Distractor2.bmp,red,Distractor1.bmp,blue,Distractor1.bmp,purple,Distractor1.bmp,,,,TrialProc,,TrainingTrialList,1,2,-999999,0,607586,0,2,547,608133,Target2.bmp,lime,2,,,,1,2,34
KW_Experiment5A,7,1,"<?xml version=""1.0""?>\n<Clock xmlns:dt=""urn:schemas-microsoft-com:datatypes""><Description dt:dt=""string"">E-Prime Primary Realtime Clock</Description><StartTime><Timestamp dt:dt=""int"">0</Timestamp><DateUtc dt:dt=""string"">2018-10-10T16:23:02Z</DateUtc></StartTime><FrequencyChanges><FrequencyChange><Frequency dt:dt=""r8"">3215292</Frequency><Timestamp dt:dt=""r8"">3896298863602</Timestamp><Current dt:dt=""r8"">0</Current><DateUtc dt:dt=""string"">2018-10-10T16:23:02Z</DateUtc></FrequencyChange></FrequencyChanges></Clock>\n",KW_Experiment5A-7-1,59.945,1.0.0.105,1,764170319,Professional,2.0.10.353,2.0.10.353,10/10/2018,10/10/2018 16:23,12:23:03,2.0.10.248,2,2,1,2,,,,,,,,TrainingProc,BlockList,35,2,Distractor1.bmp,1,0,,1,0,609154,401,,0,0,yellow,400,1,400,2,horizontal,yellow,Distractor2.bmp,blue,Distractor1.bmp,lime,Target2.bmp,red,Distractor1.bmp,purple,Distractor1.bmp,cyan,Distractor2.bmp,,,,TrialProc,,TrainingTrialList,1,2,-999999,1,609555,0,2,954,610509,Target2.bmp,lime,2,,,,3,2,35
KW_Experiment5A,7,1,"<?xml version=""1.0""?>\n<Clock xmlns:dt=""urn:schemas-microsoft-com:datatypes""><Description dt:dt=""string"">E-Prime Primary Realtime Clock</Description><StartTime><Timestamp dt:dt=""int"">0</Timestamp><DateUtc dt:dt=""string"">2018-10-10T16:23:02Z</DateUtc></StartTime><FrequencyChanges><FrequencyChange><Frequency dt:dt=""r8"">3215292</Frequency><Timestamp dt:dt=""r8"">3896298863602</Timestamp><Current dt:dt=""r8"">0</Current><DateUtc dt:dt=""string"">2018-10-10T16:23:02Z</DateUtc></FrequencyChange></FrequencyChanges></Clock>\n",KW_Experiment5A-7-1,59.945,1.0.0.105,1,764170319,Professional,2.0.10.353,2.0.10.353,10/10/2018,10/10/2018 16:23,12:23:03,2.0.10.248,2,2,1,2,,,,,,,,TrainingProc,BlockList,36,2,Distractor1.bmp,1,0,,0,1,611523,501,,0,0,purple,500,2,500,5,horizontal,purple,Distractor1.bmp,yellow,Distractor2.bmp,cyan,Distractor2.bmp,red,Distractor1.bmp,blue,Distractor2.bmp,lime,Target2.bmp,,,,TrialProc,,TrainingTrialList,1,2,-999999,1,612024,0,2,589,612613,Target2.bmp,lime,2,,,,6,2,36
KW_Experiment5A,7,1,"<?xml version=""1.0""?>\n<Clock xmlns:dt=""urn:schemas-microsoft-com:datatypes""><Description dt:dt=""string"">E-Prime Primary Realtime Clock</Description><StartTime><Timestamp dt:dt=""int"">0</Timestamp><DateUtc dt:dt=""string"">2018-10-10T16:23:02Z</DateUtc></StartTime><FrequencyChanges><FrequencyChange><Frequency dt:dt=""r8"">3215292</Frequency><Timestamp dt:dt=""r8"">3896298863602</Timestamp><Current dt:dt=""r8"">0</Current><DateUtc dt:dt=""string"">2018-10-10T16:23:02Z</DateUtc></FrequencyChange></FrequencyChanges></Clock>\n",KW_Experiment5A-7-1,59.945,1.0.0.105,1,764170319,Professional,2.0.10.353,2.0.10.353,10/10/2018,10/10/2018 16:23,12:23:03,2.0.10.248,2,2,1,2,,,,,,,,TrainingProc,BlockList,37,2,Distractor1.bmp,1,0,,0,1,613625,401,,0,0,red,400,1,400,1,horizontal,lime,Target2.bmp,red,Distractor1.bmp,yellow,Distractor2.bmp,blue,Distractor1.bmp,purple,Distractor1.bmp,cyan,Distractor1.bmp,,,,TrialProc,,TrainingTrialList,1,2,-999999,1,614026,0,2,483,614509,Target2.bmp,lime,2,,,,1,2,37
KW_Experiment5A,7,1,"<?xml version=""1.0""?>\n<Clock xmlns:dt=""urn:schemas-microsoft-com:datatypes""><Description dt:dt=""string"">E-Prime Primary Realtime Clock</Description><StartTime><Timestamp dt:dt=""int"">0</Timestamp><DateUtc dt:dt=""string"">2018-10-10T16:23:02Z</DateUtc></StartTime><FrequencyChanges><FrequencyChange><Frequency dt:dt=""r8"">3215292</Frequency><Timestamp dt:dt=""r8"">3896298863602</Timestamp><Current dt:dt=""r8"">0</Current><DateUtc dt:dt=""string"">2018-10-10T16:23:02Z</DateUtc></FrequencyChange></FrequencyChanges></Clock>\n",KW_Experiment5A-7-1,59.945,1.0.0.105,1,764170319,Professional,2.0.10.353,2.0.10.353,10/10/2018,10/10/2018 16:23,12:23:03,2.0.10.248,2,2,1,2,,,,,,,,TrainingProc,BlockList,38,1,Distractor2.bmp,2,0,,0,1,615527,500,,0,0,blue,500,2,500,3,vertical,blue,Distractor2.bmp,lime,Target1.bmp,yellow,Distractor2.bmp,cyan,Distractor2.bmp,red,Distractor1.bmp,purple,Distractor2.bmp,,,,TrialProc,,TrainingTrialList,1,1,-999999,0,616027,0,1,570,616597,Target1.bmp,lime,1,,,,2,2,38
KW_Experiment5A,7,1,"<?xml version=""1.0""?>\n<Clock xmlns:dt=""urn:schemas-microsoft-com:datatypes""><Description dt:dt=""string"">E-Prime Primary Realtime Clock</Description><StartTime><Timestamp dt:dt=""int"">0</Timestamp><DateUtc dt:dt=""string"">2018-10-10T16:23:02Z</DateUtc></StartTime><FrequencyChanges><FrequencyChange><Frequency dt:dt=""r8"">3215292</Frequency><Timestamp dt:dt=""r8"">3896298863602</Timestamp><Current dt:dt=""r8"">0</Current><DateUtc dt:dt=""string"">2018-10-10T16:23:02Z</DateUtc></FrequencyChange></FrequencyChanges></Clock>\n",KW_Experiment5A-7-1,59.945,1.0.0.105,1,764170319,Professional,2.0.10.353,2.0.10.353,10/10/2018,10/10/2018 16:23,12:23:03,2.0.10.248,2,2,1,2,,,,,,,,TrainingProc,BlockList,39,2,Distractor1.bmp,1,0,,0,1,617612,501,,0,0,blue,500,2,500,3,horizontal,blue,Distractor2.bmp,red,Distractor1.bmp,purple,Distractor2.bmp,lime,Target2.bmp,cyan,Distractor1.bmp,yellow,Distractor2.bmp,,,,TrialProc,,TrainingTrialList,1,2,-999999,1,618113,0,2,940,619053,Target2.bmp,lime,2,,,,4,2,39
KW_Experiment5A,7,1,"<?xml version=""1.0""?>\n<Clock xmlns:dt=""urn:schemas-microsoft-com:datatypes""><Description dt:dt=""string"">E-Prime Primary Realtime Clock</Description><StartTime><Timestamp dt:dt=""int"">0</Timestamp><DateUtc dt:dt=""string"">2018-10-10T16:23:02Z</DateUtc></StartTime><FrequencyChanges><FrequencyChange><Frequency dt:dt=""r8"">3215292</Frequency><Timestamp dt:dt=""r8"">3896298863602</Timestamp><Current dt:dt=""r8"">0</Current><DateUtc dt:dt=""string"">2018-10-10T16:23:02Z</DateUtc></FrequencyChange></FrequencyChanges></Clock>\n",KW_Experiment5A-7-1,59.945,1.0.0.105,1,764170319,Professional,2.0.10.353,2.0.10.353,10/10/2018,10/10/2018 16:23,12:23:03,2.0.10.248,2,2,1,2,,,,,,,,TrainingProc,BlockList,40,1,Distractor2.bmp,2,0,,0,1,620064,401,,0,0,purple,400,1,400,5,vertical,purple,Distractor2.bmp,red,Distractor1.bmp,yellow,Distractor1.bmp,blue,Distractor2.bmp,lime,Target1.bmp,cyan,Distractor2.bmp,,,,TrialProc,,TrainingTrialList,1,1,-999999,1,620465,0,1,564,621029,Target1.bmp,lime,1,,,,5,2,40
KW_Experiment5A,7,1,"<?xml version=""1.0""?>\n<Clock xmlns:dt=""urn:schemas-microsoft-com:datatypes""><Description dt:dt=""string"">E-Prime Primary Realtime Clock</Description><StartTime><Timestamp dt:dt=""int"">0</Timestamp><DateUtc dt:dt=""string"">2018-10-10T16:23:02Z</DateUtc></StartTime><FrequencyChanges><FrequencyChange><Frequency dt:dt=""r8"">3215292</Frequency><Timestamp dt:dt=""r8"">3896298863602</Timestamp><Current dt:dt=""r8"">0</Current><DateUtc dt:dt=""string"">2018-10-10T16:23:02Z</DateUtc></FrequencyChange></FrequencyChanges></Clock>\n",KW_Experiment5A-7-1,59.945,1.0.0.105,1,764170319,Professional,2.0.10.353,2.0.10.353,10/10/2018,10/10/2018 16:23,12:23:03,2.0.10.248,2,2,1,2,,,,,,,,TrainingProc,BlockList,41,1,Distractor2.bmp,2,0,,0,1,622050,600,,0,0,blue,600,3,600,3,vertical,blue,Distractor2.bmp,yellow,Distractor2.bmp,red,Distractor2.bmp,lime,Target1.bmp,purple,Distractor2.bmp,cyan,Distractor2.bmp,,,,TrialProc,,TrainingTrialList,1,1,-999999,0,622650,0,1,963,623613,Target1.bmp,lime,1,,,,4,2,41
KW_Experiment5A,7,1,"<?xml version=""1.0""?>\n<Clock xmlns:dt=""urn:schemas-microsoft-com:datatypes""><Description dt:dt=""string"">E-Prime Primary Realtime Clock</Description><StartTime><Timestamp dt:dt=""int"">0</Timestamp><DateUtc dt:dt=""string"">2018-10-10T16:23:02Z</DateUtc></StartTime><FrequencyChanges><FrequencyChange><Frequency dt:dt=""r8"">3215292</Frequency><Timestamp dt:dt=""r8"">3896298863602</Timestamp><Current dt:dt=""r8"">0</Current><DateUtc dt:dt=""string"">2018-10-10T16:23:02Z</DateUtc></FrequencyChange></FrequencyChanges></Clock>\n",KW_Experiment5A-7-1,59.945,1.0.0.105,1,764170319,Professional,2.0.10.353,2.0.10.353,10/10/2018,10/10/2018 16:23,12:23:03,2.0.10.248,2,2,1,2,,,,,,,,TrainingProc,BlockList,42,2,Distractor2.bmp,2,0,,0,1,624635,601,,0,0,purple,600,3,600,,horizontal,purple,Distractor1.bmp,lime,Distractor1.bmp,yellow,Distractor1.bmp,red,Target2.bmp,cyan,Distractor2.bmp,blue,Distractor1.bmp,,,,TrialProc,5,TrainingTrialList,1,2,-999999,1,625236,0,2,857,626093,Target2.bmp,red,2,,,,10,2,42
KW_Experiment5A,7,1,"<?xml version=""1.0""?>\n<Clock xmlns:dt=""urn:schemas-microsoft-com:datatypes""><Description dt:dt=""string"">E-Prime Primary Realtime Clock</Description><StartTime><Timestamp dt:dt=""int"">0</Timestamp><DateUtc dt:dt=""string"">2018-10-10T16:23:02Z</DateUtc></StartTime><FrequencyChanges><FrequencyChange><Frequency dt:dt=""r8"">3215292</Frequency><Timestamp dt:dt=""r8"">3896298863602</Timestamp><Current dt:dt=""r8"">0</Current><DateUtc dt:dt=""string"">2018-10-10T16:23:02Z</DateUtc></FrequencyChange></FrequencyChanges></Clock>\n",KW_Experiment5A-7-1,59.945,1.0.0.105,1,764170319,Professional,2.0.10.353,2.0.10.353,10/10/2018,10/10/2018 16:23,12:23:03,2.0.10.248,2,2,1,2,,,,,,,,TrainingProc,BlockList,43,1,Distractor2.bmp,2,0,,0,1,627104,400,,0,0,lime,400,1,400,,vertical,lime,Distractor1.bmp,cyan,Distractor1.bmp,purple,Distractor2.bmp,blue,Distractor1.bmp,red,Target1.bmp,yellow,Distractor2.bmp,,,,TrialProc,6,TrainingTrialList,1,1,-999999,0,627504,0,1,644,628148,Target1.bmp,red,1,,,,11,2,43
KW_Experiment5A,7,1,"<?xml version=""1.0""?>\n<Clock xmlns:dt=""urn:schemas-microsoft-com:datatypes""><Description dt:dt=""string"">E-Prime Primary Realtime Clock</Description><StartTime><Timestamp dt:dt=""int"">0</Timestamp><DateUtc dt:dt=""string"">2018-10-10T16:23:02Z</DateUtc></StartTime><FrequencyChanges><FrequencyChange><Frequency dt:dt=""r8"">3215292</Frequency><Timestamp dt:dt=""r8"">3896298863602</Timestamp><Current dt:dt=""r8"">0</Current><DateUtc dt:dt=""string"">2018-10-10T16:23:02Z</DateUtc></FrequencyChange></FrequencyChanges></Clock>\n",KW_Experiment5A-7-1,59.945,1.0.0.105,1,764170319,Professional,2.0.10.353,2.0.10.353,10/10/2018,10/10/2018 16:23,12:23:03,2.0.10.248,2,2,1,2,,,,,,,,TrainingProc,BlockList,44,2,Distractor1.bmp,1,0,,0,1,629173,500,,0,0,purple,500,2,500,5,horizontal,purple,Distractor1.bmp,yellow,Distractor2.bmp,red,Distractor1.bmp,blue,Distractor1.bmp,cyan,Distractor2.bmp,lime,Target2.bmp,,,,TrialProc,,TrainingTrialList,1,2,-999999,0,629673,0,2,667,630340,Target2.bmp,lime,2,,,,6,2,44
KW_Experiment5A,7,1,"<?xml version=""1.0""?>\n<Clock xmlns:dt=""urn:schemas-microsoft-com:datatypes""><Description dt:dt=""string"">E-Prime Primary Realtime Clock</Description><StartTime><Timestamp dt:dt=""int"">0</Timestamp><DateUtc dt:dt=""string"">2018-10-10T16:23:02Z</DateUtc></StartTime><FrequencyChanges><FrequencyChange><Frequency dt:dt=""r8"">3215292</Frequency><Timestamp dt:dt=""r8"">3896298863602</Timestamp><Current dt:dt=""r8"">0</Current><DateUtc dt:dt=""string"">2018-10-10T16:23:02Z</DateUtc></FrequencyChange></FrequencyChanges></Clock>\n",KW_Experiment5A-7-1,59.945,1.0.0.105,1,764170319,Professional,2.0.10.353,2.0.10.353,10/10/2018,10/10/2018 16:23,12:23:03,2.0.10.248,2,2,1,2,,,,,,,,TrainingProc,BlockList,45,1,Distractor1.bmp,1,0,,0,1,631358,601,,0,0,purple,600,3,600,,vertical,red,Target1.bmp,cyan,Distractor1.bmp,blue,Distractor2.bmp,lime,Distractor2.bmp,yellow,Distractor1.bmp,purple,Distractor1.bmp,,,,TrialProc,5,TrainingTrialList,1,1,-999999,1,631959,0,1,629,632588,Target1.bmp,red,1,,,,7,2,45
KW_Experiment5A,7,1,"<?xml version=""1.0""?>\n<Clock xmlns:dt=""urn:schemas-microsoft-com:datatypes""><Description dt:dt=""string"">E-Prime Primary Realtime Clock</Description><StartTime><Timestamp dt:dt=""int"">0</Timestamp><DateUtc dt:dt=""string"">2018-10-10T16:23:02Z</DateUtc></StartTime><FrequencyChanges><FrequencyChange><Frequency dt:dt=""r8"">3215292</Frequency><Timestamp dt:dt=""r8"">3896298863602</Timestamp><Current dt:dt=""r8"">0</Current><DateUtc dt:dt=""string"">2018-10-10T16:23:02Z</DateUtc></FrequencyChange></FrequencyChanges></Clock>\n",KW_Experiment5A-7-1,59.945,1.0.0.105,1,764170319,Professional,2.0.10.353,2.0.10.353,10/10/2018,10/10/2018 16:23,12:23:03,2.0.10.248,2,2,1,2,,,,,,,,TrainingProc,BlockList,46,1,Distractor2.bmp,2,0,,0,1,633610,400,,0,0,yellow,400,1,400,2,vertical,yellow,Distractor1.bmp,red,Distractor2.bmp,lime,Target1.bmp,purple,Distractor2.bmp,cyan,Distractor2.bmp,blue,Distractor1.bmp,,,,TrialProc,,TrainingTrialList,1,1,-999999,0,634010,0,1,618,634628,Target1.bmp,lime,1,,,,3,2,46
KW_Experiment5A,7,1,"<?xml version=""1.0""?>\n<Clock xmlns:dt=""urn:schemas-microsoft-com:datatypes""><Description dt:dt=""string"">E-Prime Primary Realtime Clock</Description><StartTime><Timestamp dt:dt=""int"">0</Timestamp><DateUtc dt:dt=""string"">2018-10-10T16:23:02Z</DateUtc></StartTime><FrequencyChanges><FrequencyChange><Frequency dt:dt=""r8"">3215292</Frequency><Timestamp dt:dt=""r8"">3896298863602</Timestamp><Current dt:dt=""r8"">0</Current><DateUtc dt:dt=""string"">2018-10-10T16:23:02Z</DateUtc></FrequencyChange></FrequencyChanges></Clock>\n",KW_Experiment5A-7-1,59.945,1.0.0.105,1,764170319,Professional,2.0.10.353,2.0.10.353,10/10/2018,10/10/2018 16:23,12:23:03,2.0.10.248,2,2,1,2,,,,,,,,TrainingProc,BlockList,47,1,Distractor1.bmp,1,0,,0,1,635645,501,,0,0,yellow,500,2,500,,vertical,yellow,Distractor2.bmp,red,Target1.bmp,purple,Distractor1.bmp,cyan,Distractor2.bmp,blue,Distractor2.bmp,lime,Distractor1.bmp,,,,TrialProc,2,TrainingTrialList,1,1,-999999,1,636146,0,1,914,637060,Target1.bmp,red,1,,,,8,2,47
KW_Experiment5A,7,1,"<?xml version=""1.0""?>\n<Clock xmlns:dt=""urn:schemas-microsoft-com:datatypes""><Description dt:dt=""string"">E-Prime Primary Realtime Clock</Description><StartTime><Timestamp dt:dt=""int"">0</Timestamp><DateUtc dt:dt=""string"">2018-10-10T16:23:02Z</DateUtc></StartTime><FrequencyChanges><FrequencyChange><Frequency dt:dt=""r8"">3215292</Frequency><Timestamp dt:dt=""r8"">3896298863602</Timestamp><Current dt:dt=""r8"">0</Current><DateUtc dt:dt=""string"">2018-10-10T16:23:02Z</DateUtc></FrequencyChange></FrequencyChanges></Clock>\n",KW_Experiment5A-7-1,59.945,1.0.0.105,1,764170319,Professional,2.0.10.353,2.0.10.353,10/10/2018,10/10/2018 16:23,12:23:03,2.0.10.248,2,2,1,2,,,,,,,,TrainingProc,BlockList,48,2,Distractor1.bmp,1,0,,0,1,638081,400,,0,0,blue,400,1,400,3,horizontal,blue,Distractor1.bmp,cyan,Distractor1.bmp,yellow,Distractor1.bmp,purple,Distractor1.bmp,red,Distractor2.bmp,lime,Target2.bmp,,,,TrialProc,,TrainingTrialList,1,2,-999999,0,638481,0,2,499,638980,Target2.bmp,lime,2,,,,6,2,48
KW_Experiment5A,7,1,"<?xml version=""1.0""?>\n<Clock xmlns:dt=""urn:schemas-microsoft-com:datatypes""><Description dt:dt=""string"">E-Prime Primary Realtime Clock</Description><StartTime><Timestamp dt:dt=""int"">0</Timestamp><DateUtc dt:dt=""string"">2018-10-10T16:23:02Z</DateUtc></StartTime><FrequencyChanges><FrequencyChange><Frequency dt:dt=""r8"">3215292</Frequency><Timestamp dt:dt=""r8"">3896298863602</Timestamp><Current dt:dt=""r8"">0</Current><DateUtc dt:dt=""string"">2018-10-10T16:23:02Z</DateUtc></FrequencyChange></FrequencyChanges></Clock>\n",KW_Experiment5A-7-1,59.945,1.0.0.105,1,764170319,Professional,2.0.10.353,2.0.10.353,10/10/2018,10/10/2018 16:23,12:23:03,2.0.10.248,3,2,1,3,,,,,,,,TrainingProc,BlockList,1,1,Distractor1.bmp,1,0,,0,20,642752,600,,0,0,purple,600,3,600,,vertical,purple,Distractor2.bmp,lime,Distractor2.bmp,blue,Distractor1.bmp,yellow,Distractor1.bmp,red,Target1.bmp,cyan,Distractor1.bmp,,,,TrialProc,5,TrainingTrialList,1,1,-999999,0,643352,0,1,836,644188,Target1.bmp,red,1,,,,11,3,49
KW_Experiment5A,7,1,"<?xml version=""1.0""?>\n<Clock xmlns:dt=""urn:schemas-microsoft-com:datatypes""><Description dt:dt=""string"">E-Prime Primary Realtime Clock</Description><StartTime><Timestamp dt:dt=""int"">0</Timestamp><DateUtc dt:dt=""string"">2018-10-10T16:23:02Z</DateUtc></StartTime><FrequencyChanges><FrequencyChange><Frequency dt:dt=""r8"">3215292</Frequency><Timestamp dt:dt=""r8"">3896298863602</Timestamp><Current dt:dt=""r8"">0</Current><DateUtc dt:dt=""string"">2018-10-10T16:23:02Z</DateUtc></FrequencyChange></FrequencyChanges></Clock>\n",KW_Experiment5A-7-1,59.945,1.0.0.105,1,764170319,Professional,2.0.10.353,2.0.10.353,10/10/2018,10/10/2018 16:23,12:23:03,2.0.10.248,3,2,1,3,,,,,,,,TrainingProc,BlockList,2,2,Distractor2.bmp,2,0,,0,1,645204,600,,0,0,cyan,600,3,600,4,horizontal,cyan,Distractor2.bmp,yellow,Distractor2.bmp,blue,Distractor2.bmp,red,Distractor2.bmp,purple,Distractor1.bmp,lime,Target2.bmp,,,,TrialProc,,TrainingTrialList,1,2,-999999,0,645804,0,2,968,646772,Target2.bmp,lime,2,,,,6,3,50
KW_Experiment5A,7,1,"<?xml version=""1.0""?>\n<Clock xmlns:dt=""urn:schemas-microsoft-com:datatypes""><Description dt:dt=""string"">E-Prime Primary Realtime Clock</Description><StartTime><Timestamp dt:dt=""int"">0</Timestamp><DateUtc dt:dt=""string"">2018-10-10T16:23:02Z</DateUtc></StartTime><FrequencyChanges><FrequencyChange><Frequency dt:dt=""r8"">3215292</Frequency><Timestamp dt:dt=""r8"">3896298863602</Timestamp><Current dt:dt=""r8"">0</Current><DateUtc dt:dt=""string"">2018-10-10T16:23:02Z</DateUtc></FrequencyChange></FrequencyChanges></Clock>\n",KW_Experiment5A-7-1,59.945,1.0.0.105,1,764170319,Professional,2.0.10.353,2.0.10.353,10/10/2018,10/10/2018 16:23,12:23:03,2.0.10.248,3,2,1,3,,,,,,,,TrainingProc,BlockList,3,1,Distractor2.bmp,2,0,,0,1,647790,500,,0,0,cyan,500,2,500,4,vertical,cyan,Distractor1.bmp,purple,Distractor1.bmp,blue,Distractor2.bmp,lime,Target1.bmp,yellow,Distractor2.bmp,red,Distractor2.bmp,,,,TrialProc,,TrainingTrialList,1,1,-999999,0,648290,0,1,1042,649332,Target1.bmp,lime,1,,,,4,3,51
KW_Experiment5A,7,1,"<?xml version=""1.0""?>\n<Clock xmlns:dt=""urn:schemas-microsoft-com:datatypes""><Description dt:dt=""string"">E-Prime Primary Realtime Clock</Description><StartTime><Timestamp dt:dt=""int"">0</Timestamp><DateUtc dt:dt=""string"">2018-10-10T16:23:02Z</DateUtc></StartTime><FrequencyChanges><FrequencyChange><Frequency dt:dt=""r8"">3215292</Frequency><Timestamp dt:dt=""r8"">3896298863602</Timestamp><Current dt:dt=""r8"">0</Current><DateUtc dt:dt=""string"">2018-10-10T16:23:02Z</DateUtc></FrequencyChange></FrequencyChanges></Clock>\n",KW_Experiment5A-7-1,59.945,1.0.0.105,1,764170319,Professional,2.0.10.353,2.0.10.353,10/10/2018,10/10/2018 16:23,12:23:03,2.0.10.248,3,2,1,3,,,,,,,,TrainingProc,BlockList,4,1,Distractor2.bmp,2,0,,0,1,650359,400,,0,0,purple,400,1,400,5,vertical,purple,Distractor2.bmp,cyan,Distractor2.bmp,blue,Distractor1.bmp,red,Distractor2.bmp,yellow,Distractor1.bmp,lime,Target1.bmp,,,,TrialProc,,TrainingTrialList,1,1,-999999,0,650759,0,1,477,651236,Target1.bmp,lime,1,,,,6,3,52
KW_Experiment5A,7,1,"<?xml version=""1.0""?>\n<Clock xmlns:dt=""urn:schemas-microsoft-com:datatypes""><Description dt:dt=""string"">E-Prime Primary Realtime Clock</Description><StartTime><Timestamp dt:dt=""int"">0</Timestamp><DateUtc dt:dt=""string"">2018-10-10T16:23:02Z</DateUtc></StartTime><FrequencyChanges><FrequencyChange><Frequency dt:dt=""r8"">3215292</Frequency><Timestamp dt:dt=""r8"">3896298863602</Timestamp><Current dt:dt=""r8"">0</Current><DateUtc dt:dt=""string"">2018-10-10T16:23:02Z</DateUtc></FrequencyChange></FrequencyChanges></Clock>\n",KW_Experiment5A-7-1,59.945,1.0.0.105,1,764170319,Professional,2.0.10.353,2.0.10.353,10/10/2018,10/10/2018 16:23,12:23:03,2.0.10.248,3,2,1,3,,,,,,,,TrainingProc,BlockList,5,2,Distractor2.bmp,2,0,,0,1,652260,601,,0,0,cyan,600,3,600,4,horizontal,cyan,Distractor1.bmp,lime,Target2.bmp,blue,Distractor2.bmp,red,Distractor2.bmp,yellow,Distractor2.bmp,purple,Distractor1.bmp,,,,TrialProc,,TrainingTrialList,1,2,-999999,1,652861,0,2,639,653500,Target2.bmp,lime,2,,,,2,3,53
KW_Experiment5A,7,1,"<?xml version=""1.0""?>\n<Clock xmlns:dt=""urn:schemas-microsoft-com:datatypes""><Description dt:dt=""string"">E-Prime Primary Realtime Clock</Description><StartTime><Timestamp dt:dt=""int"">0</Timestamp><DateUtc dt:dt=""string"">2018-10-10T16:23:02Z</DateUtc></StartTime><FrequencyChanges><FrequencyChange><Frequency dt:dt=""r8"">3215292</Frequency><Timestamp dt:dt=""r8"">3896298863602</Timestamp><Current dt:dt=""r8"">0</Current><DateUtc dt:dt=""string"">2018-10-10T16:23:02Z</DateUtc></FrequencyChange></FrequencyChanges></Clock>\n",KW_Experiment5A-7-1,59.945,1.0.0.105,1,764170319,Professional,2.0.10.353,2.0.10.353,10/10/2018,10/10/2018 16:23,12:23:03,2.0.10.248,3,2,1,3,,,,,,,,TrainingProc,BlockList,6,2,Distractor1.bmp,1,0,,0,1,654512,501,,0,0,yellow,500,2,500,2,horizontal,yellow,Distractor1.bmp,lime,Target2.bmp,cyan,Distractor1.bmp,red,Distractor2.bmp,blue,Distractor2.bmp,purple,Distractor1.bmp,,,,TrialProc,,TrainingTrialList,1,2,-999999,1,655013,0,2,631,655644,Target2.bmp,lime,2,,,,2,3,54
KW_Experiment5A,7,1,"<?xml version=""1.0""?>\n<Clock xmlns:dt=""urn:schemas-microsoft-com:datatypes""><Description dt:dt=""string"">E-Prime Primary Realtime Clock</Description><StartTime><Timestamp dt:dt=""int"">0</Timestamp><DateUtc dt:dt=""string"">2018-10-10T16:23:02Z</DateUtc></StartTime><FrequencyChanges><FrequencyChange><Frequency dt:dt=""r8"">3215292</Frequency><Timestamp dt:dt=""r8"">3896298863602</Timestamp><Current dt:dt=""r8"">0</Current><DateUtc dt:dt=""string"">2018-10-10T16:23:02Z</DateUtc></FrequencyChange></FrequencyChanges></Clock>\n",KW_Experiment5A-7-1,59.945,1.0.0.105,1,764170319,Professional,2.0.10.353,2.0.10.353,10/10/2018,10/10/2018 16:23,12:23:03,2.0.10.248,3,2,1,3,,,,,,,,TrainingProc,BlockList,7,2,Distractor2.bmp,2,0,,0,1,656664,401,,0,0,yellow,400,1,400,2,horizontal,yellow,Distractor2.bmp,blue,Distractor2.bmp,purple,Distractor1.bmp,lime,Target2.bmp,cyan,Distractor2.bmp,red,Distractor2.bmp,,,,TrialProc,,TrainingTrialList,1,2,-999999,1,657065,0,2,907,657972,Target2.bmp,lime,2,,,,4,3,55
KW_Experiment5A,7,1,"<?xml version=""1.0""?>\n<Clock xmlns:dt=""urn:schemas-microsoft-com:datatypes""><Description dt:dt=""string"">E-Prime Primary Realtime Clock</Description><StartTime><Timestamp dt:dt=""int"">0</Timestamp><DateUtc dt:dt=""string"">2018-10-10T16:23:02Z</DateUtc></StartTime><FrequencyChanges><FrequencyChange><Frequency dt:dt=""r8"">3215292</Frequency><Timestamp dt:dt=""r8"">3896298863602</Timestamp><Current dt:dt=""r8"">0</Current><DateUtc dt:dt=""string"">2018-10-10T16:23:02Z</DateUtc></FrequencyChange></FrequencyChanges></Clock>\n",KW_Experiment5A-7-1,59.945,1.0.0.105,1,764170319,Professional,2.0.10.353,2.0.10.353,10/10/2018,10/10/2018 16:23,12:23:03,2.0.10.248,3,2,1,3,,,,,,,,TrainingProc,BlockList,8,1,Distractor2.bmp,2,0,,0,1,658983,400,,0,0,blue,400,1,400,3,vertical,lime,Target1.bmp,blue,Distractor2.bmp,purple,Distractor2.bmp,red,Distractor1.bmp,yellow,Distractor2.bmp,cyan,Distractor1.bmp,,,,TrialProc,,TrainingTrialList,1,1,-999999,0,659383,0,1,573,659956,Target1.bmp,lime,1,,,,1,3,56
KW_Experiment5A,7,1,"<?xml version=""1.0""?>\n<Clock xmlns:dt=""urn:schemas-microsoft-com:datatypes""><Description dt:dt=""string"">E-Prime Primary Realtime Clock</Description><StartTime><Timestamp dt:dt=""int"">0</Timestamp><DateUtc dt:dt=""string"">2018-10-10T16:23:02Z</DateUtc></StartTime><FrequencyChanges><FrequencyChange><Frequency dt:dt=""r8"">3215292</Frequency><Timestamp dt:dt=""r8"">3896298863602</Timestamp><Current dt:dt=""r8"">0</Current><DateUtc dt:dt=""string"">2018-10-10T16:23:02Z</DateUtc></FrequencyChange></FrequencyChanges></Clock>\n",KW_Experiment5A-7-1,59.945,1.0.0.105,1,764170319,Professional,2.0.10.353,2.0.10.353,10/10/2018,10/10/2018 16:23,12:23:03,2.0.10.248,3,2,1,3,,,,,,,,TrainingProc,BlockList,9,1,Distractor2.bmp,2,0,,0,1,660968,401,,0,0,blue,400,1,400,3,vertical,blue,Distractor2.bmp,yellow,Distractor2.bmp,lime,Target1.bmp,red,Distractor2.bmp,purple,Distractor2.bmp,cyan,Distractor1.bmp,,,,TrialProc,,TrainingTrialList,1,1,-999999,1,661369,0,1,635,662004,Target1.bmp,lime,1,,,,3,3,57
KW_Experiment5A,7,1,"<?xml version=""1.0""?>\n<Clock xmlns:dt=""urn:schemas-microsoft-com:datatypes""><Description dt:dt=""string"">E-Prime Primary Realtime Clock</Description><StartTime><Timestamp dt:dt=""int"">0</Timestamp><DateUtc dt:dt=""string"">2018-10-10T16:23:02Z</DateUtc></StartTime><FrequencyChanges><FrequencyChange><Frequency dt:dt=""r8"">3215292</Frequency><Timestamp dt:dt=""r8"">3896298863602</Timestamp><Current dt:dt=""r8"">0</Current><DateUtc dt:dt=""string"">2018-10-10T16:23:02Z</DateUtc></FrequencyChange></FrequencyChanges></Clock>\n",KW_Experiment5A-7-1,59.945,1.0.0.105,1,764170319,Professional,2.0.10.353,2.0.10.353,10/10/2018,10/10/2018 16:23,12:23:03,2.0.10.248,3,2,1,3,,,,,,,,TrainingProc,BlockList,10,1,Distractor1.bmp,1,0,,0,1,663020,501,,0,0,cyan,500,2,500,,vertical,cyan,Distractor1.bmp,purple,Distractor2.bmp,blue,Distractor1.bmp,red,Target1.bmp,yellow,Distractor1.bmp,lime,Distractor2.bmp,,,,TrialProc,4,TrainingTrialList,1,1,-999999,1,663521,0,1,787,664308,Target1.bmp,red,1,,,,10,3,58
KW_Experiment5A,7,1,"<?xml version=""1.0""?>\n<Clock xmlns:dt=""urn:schemas-microsoft-com:datatypes""><Description dt:dt=""string"">E-Prime Primary Realtime Clock</Description><StartTime><Timestamp dt:dt=""int"">0</Timestamp><DateUtc dt:dt=""string"">2018-10-10T16:23:02Z</DateUtc></StartTime><FrequencyChanges><FrequencyChange><Frequency dt:dt=""r8"">3215292</Frequency><Timestamp dt:dt=""r8"">3896298863602</Timestamp><Current dt:dt=""r8"">0</Current><DateUtc dt:dt=""string"">2018-10-10T16:23:02Z</DateUtc></FrequencyChange></FrequencyChanges></Clock>\n",KW_Experiment5A-7-1,59.945,1.0.0.105,1,764170319,Professional,2.0.10.353,2.0.10.353,10/10/2018,10/10/2018 16:23,12:23:03,2.0.10.248,3,2,1,3,,,,,,,,TrainingProc,BlockList,11,1,Distractor1.bmp,1,0,,0,1,665322,601,,0,0,red,600,3,600,1,vertical,red,Distractor1.bmp,lime,Target1.bmp,cyan,Distractor1.bmp,purple,Distractor1.bmp,yellow,Distractor2.bmp,blue,Distractor2.bmp,,,,TrialProc,,TrainingTrialList,1,1,-999999,1,665923,0,1,745,666668,Target1.bmp,lime,1,,,,2,3,59
KW_Experiment5A,7,1,"<?xml version=""1.0""?>\n<Clock xmlns:dt=""urn:schemas-microsoft-com:datatypes""><Description dt:dt=""string"">E-Prime Primary Realtime Clock</Description><StartTime><Timestamp dt:dt=""int"">0</Timestamp><DateUtc dt:dt=""string"">2018-10-10T16:23:02Z</DateUtc></StartTime><FrequencyChanges><FrequencyChange><Frequency dt:dt=""r8"">3215292</Frequency><Timestamp dt:dt=""r8"">3896298863602</Timestamp><Current dt:dt=""r8"">0</Current><DateUtc dt:dt=""string"">2018-10-10T16:23:02Z</DateUtc></FrequencyChange></FrequencyChanges></Clock>\n",KW_Experiment5A-7-1,59.945,1.0.0.105,1,764170319,Professional,2.0.10.353,2.0.10.353,10/10/2018,10/10/2018 16:23,12:23:03,2.0.10.248,3,2,1,3,,,,,,,,TrainingProc,BlockList,12,2,Distractor2.bmp,2,0,,0,1,667691,400,,0,0,blue,400,1,400,,horizontal,blue,Distractor2.bmp,purple,Distractor2.bmp,red,Target2.bmp,yellow,Distractor2.bmp,lime,Distractor2.bmp,cyan,Distractor2.bmp,,,,TrialProc,3,TrainingTrialList,1,2,-999999,0,668091,0,2,752,668843,Target2.bmp,red,2,,,,9,3,60
KW_Experiment5A,7,1,"<?xml version=""1.0""?>\n<Clock xmlns:dt=""urn:schemas-microsoft-com:datatypes""><Description dt:dt=""string"">E-Prime Primary Realtime Clock</Description><StartTime><Timestamp dt:dt=""int"">0</Timestamp><DateUtc dt:dt=""string"">2018-10-10T16:23:02Z</DateUtc></StartTime><FrequencyChanges><FrequencyChange><Frequency dt:dt=""r8"">3215292</Frequency><Timestamp dt:dt=""r8"">3896298863602</Timestamp><Current dt:dt=""r8"">0</Current><DateUtc dt:dt=""string"">2018-10-10T16:23:02Z</DateUtc></FrequencyChange></FrequencyChanges></Clock>\n",KW_Experiment5A-7-1,59.945,1.0.0.105,1,764170319,Professional,2.0.10.353,2.0.10.353,10/10/2018,10/10/2018 16:23,12:23:03,2.0.10.248,3,2,1,3,,,,,,,,TrainingProc,BlockList,13,2,Distractor2.bmp,2,0,,0,1,669860,400,,0,0,purple,400,1,400,5,horizontal,purple,Distractor1.bmp,yellow,Distractor1.bmp,red,Distractor2.bmp,cyan,Distractor1.bmp,lime,Target2.bmp,blue,Distractor2.bmp,,,,TrialProc,,TrainingTrialList,1,2,-999999,0,670260,0,2,599,670859,Target2.bmp,lime,2,,,,5,3,61
KW_Experiment5A,7,1,"<?xml version=""1.0""?>\n<Clock xmlns:dt=""urn:schemas-microsoft-com:datatypes""><Description dt:dt=""string"">E-Prime Primary Realtime Clock</Description><StartTime><Timestamp dt:dt=""int"">0</Timestamp><DateUtc dt:dt=""string"">2018-10-10T16:23:02Z</DateUtc></StartTime><FrequencyChanges><FrequencyChange><Frequency dt:dt=""r8"">3215292</Frequency><Timestamp dt:dt=""r8"">3896298863602</Timestamp><Current dt:dt=""r8"">0</Current><DateUtc dt:dt=""string"">2018-10-10T16:23:02Z</DateUtc></FrequencyChange></FrequencyChanges></Clock>\n",KW_Experiment5A-7-1,59.945,1.0.0.105,1,764170319,Professional,2.0.10.353,2.0.10.353,10/10/2018,10/10/2018 16:23,12:23:03,2.0.10.248,3,2,1,3,,,,,,,,TrainingProc,BlockList,14,1,Distractor2.bmp,2,0,,0,1,671878,601,,0,0,purple,600,3,600,5,vertical,purple,Distractor2.bmp,cyan,Distractor2.bmp,red,Distractor1.bmp,yellow,Distractor2.bmp,lime,Target1.bmp,blue,Distractor2.bmp,,,,TrialProc,,TrainingTrialList,1,1,-999999,1,672479,0,1,708,673187,Target1.bmp,lime,1,,,,5,3,62
KW_Experiment5A,7,1,"<?xml version=""1.0""?>\n<Clock xmlns:dt=""urn:schemas-microsoft-com:datatypes""><Description dt:dt=""string"">E-Prime Primary Realtime Clock</Description><StartTime><Timestamp dt:dt=""int"">0</Timestamp><DateUtc dt:dt=""string"">2018-10-10T16:23:02Z</DateUtc></StartTime><FrequencyChanges><FrequencyChange><Frequency dt:dt=""r8"">3215292</Frequency><Timestamp dt:dt=""r8"">3896298863602</Timestamp><Current dt:dt=""r8"">0</Current><DateUtc dt:dt=""string"">2018-10-10T16:23:02Z</DateUtc></FrequencyChange></FrequencyChanges></Clock>\n",KW_Experiment5A-7-1,59.945,1.0.0.105,1,764170319,Professional,2.0.10.353,2.0.10.353,10/10/2018,10/10/2018 16:23,12:23:03,2.0.10.248,3,2,1,3,,,,,,,,TrainingProc,BlockList,15,2,Distractor2.bmp,2,0,,0,1,674197,400,,0,0,red,400,1,400,1,horizontal,red,Distractor2.bmp,blue,Distractor2.bmp,lime,Target2.bmp,purple,Distractor2.bmp,cyan,Distractor1.bmp,yellow,Distractor2.bmp,,,,TrialProc,,TrainingTrialList,1,2,-999999,0,674597,0,2,662,675259,Target2.bmp,lime,2,,,,3,3,63
KW_Experiment5A,7,1,"<?xml version=""1.0""?>\n<Clock xmlns:dt=""urn:schemas-microsoft-com:datatypes""><Description dt:dt=""string"">E-Prime Primary Realtime Clock</Description><StartTime><Timestamp dt:dt=""int"">0</Timestamp><DateUtc dt:dt=""string"">2018-10-10T16:23:02Z</DateUtc></StartTime><FrequencyChanges><FrequencyChange><Frequency dt:dt=""r8"">3215292</Frequency><Timestamp dt:dt=""r8"">3896298863602</Timestamp><Current dt:dt=""r8"">0</Current><DateUtc dt:dt=""string"">2018-10-10T16:23:02Z</DateUtc></FrequencyChange></FrequencyChanges></Clock>\n",KW_Experiment5A-7-1,59.945,1.0.0.105,1,764170319,Professional,2.0.10.353,2.0.10.353,10/10/2018,10/10/2018 16:23,12:23:03,2.0.10.248,3,2,1,3,,,,,,,,TrainingProc,BlockList,16,1,Distractor1.bmp,1,0,,0,1,676282,601,,0,0,cyan,600,3,600,4,vertical,cyan,Distractor1.bmp,blue,Distractor1.bmp,purple,Distractor1.bmp,lime,Target1.bmp,yellow,Distractor1.bmp,red,Distractor1.bmp,,,,TrialProc,,TrainingTrialList,1,1,-999999,1,676883,0,1,720,677603,Target1.bmp,lime,1,,,,4,3,64
KW_Experiment5A,7,1,"<?xml version=""1.0""?>\n<Clock xmlns:dt=""urn:schemas-microsoft-com:datatypes""><Description dt:dt=""string"">E-Prime Primary Realtime Clock</Description><StartTime><Timestamp dt:dt=""int"">0</Timestamp><DateUtc dt:dt=""string"">2018-10-10T16:23:02Z</DateUtc></StartTime><FrequencyChanges><FrequencyChange><Frequency dt:dt=""r8"">3215292</Frequency><Timestamp dt:dt=""r8"">3896298863602</Timestamp><Current dt:dt=""r8"">0</Current><DateUtc dt:dt=""string"">2018-10-10T16:23:02Z</DateUtc></FrequencyChange></FrequencyChanges></Clock>\n",KW_Experiment5A-7-1,59.945,1.0.0.105,1,764170319,Professional,2.0.10.353,2.0.10.353,10/10/2018,10/10/2018 16:23,12:23:03,2.0.10.248,3,2,1,3,,,,,,,,TrainingProc,BlockList,17,1,Distractor1.bmp,1,0,,0,1,678618,400,,0,0,purple,400,1,400,5,vertical,lime,Target1.bmp,purple,Distractor1.bmp,red,Distractor1.bmp,blue,Distractor1.bmp,yellow,Distractor2.bmp,cyan,Distractor1.bmp,,,,TrialProc,,TrainingTrialList,1,1,-999999,0,679018,0,1,513,679531,Target1.bmp,lime,1,,,,1,3,65
KW_Experiment5A,7,1,"<?xml version=""1.0""?>\n<Clock xmlns:dt=""urn:schemas-microsoft-com:datatypes""><Description dt:dt=""string"">E-Prime Primary Realtime Clock</Description><StartTime><Timestamp dt:dt=""int"">0</Timestamp><DateUtc dt:dt=""string"">2018-10-10T16:23:02Z</DateUtc></StartTime><FrequencyChanges><FrequencyChange><Frequency dt:dt=""r8"">3215292</Frequency><Timestamp dt:dt=""r8"">3896298863602</Timestamp><Current dt:dt=""r8"">0</Current><DateUtc dt:dt=""string"">2018-10-10T16:23:02Z</DateUtc></FrequencyChange></FrequencyChanges></Clock>\n",KW_Experiment5A-7-1,59.945,1.0.0.105,1,764170319,Professional,2.0.10.353,2.0.10.353,10/10/2018,10/10/2018 16:23,12:23:03,2.0.10.248,3,2,1,3,,,,,,,,TrainingProc,BlockList,18,2,Distractor2.bmp,2,0,,0,1,680553,500,,0,0,cyan,500,2,500,,horizontal,cyan,Distractor2.bmp,lime,Distractor2.bmp,purple,Distractor2.bmp,yellow,Distractor2.bmp,blue,Distractor2.bmp,red,Target2.bmp,,,,TrialProc,4,TrainingTrialList,1,2,-999999,0,681053,0,2,614,681667,Target2.bmp,red,2,,,,12,3,66
KW_Experiment5A,7,1,"<?xml version=""1.0""?>\n<Clock xmlns:dt=""urn:schemas-microsoft-com:datatypes""><Description dt:dt=""string"">E-Prime Primary Realtime Clock</Description><StartTime><Timestamp dt:dt=""int"">0</Timestamp><DateUtc dt:dt=""string"">2018-10-10T16:23:02Z</DateUtc></StartTime><FrequencyChanges><FrequencyChange><Frequency dt:dt=""r8"">3215292</Frequency><Timestamp dt:dt=""r8"">3896298863602</Timestamp><Current dt:dt=""r8"">0</Current><DateUtc dt:dt=""string"">2018-10-10T16:23:02Z</DateUtc></FrequencyChange></FrequencyChanges></Clock>\n",KW_Experiment5A-7-1,59.945,1.0.0.105,1,764170319,Professional,2.0.10.353,2.0.10.353,10/10/2018,10/10/2018 16:23,12:23:03,2.0.10.248,3,2,1,3,,,,,,,,TrainingProc,BlockList,19,2,Distractor1.bmp,1,0,,0,1,682688,500,,0,0,yellow,500,2,500,2,horizontal,lime,Target2.bmp,yellow,Distractor1.bmp,purple,Distractor2.bmp,cyan,Distractor2.bmp,red,Distractor1.bmp,blue,Distractor2.bmp,,,,TrialProc,,TrainingTrialList,1,2,-999999,0,683188,0,2,527,683715,Target2.bmp,lime,2,,,,1,3,67
KW_Experiment5A,7,1,"<?xml version=""1.0""?>\n<Clock xmlns:dt=""urn:schemas-microsoft-com:datatypes""><Description dt:dt=""string"">E-Prime Primary Realtime Clock</Description><StartTime><Timestamp dt:dt=""int"">0</Timestamp><DateUtc dt:dt=""string"">2018-10-10T16:23:02Z</DateUtc></StartTime><FrequencyChanges><FrequencyChange><Frequency dt:dt=""r8"">3215292</Frequency><Timestamp dt:dt=""r8"">3896298863602</Timestamp><Current dt:dt=""r8"">0</Current><DateUtc dt:dt=""string"">2018-10-10T16:23:02Z</DateUtc></FrequencyChange></FrequencyChanges></Clock>\n",KW_Experiment5A-7-1,59.945,1.0.0.105,1,764170319,Professional,2.0.10.353,2.0.10.353,10/10/2018,10/10/2018 16:23,12:23:03,2.0.10.248,3,2,1,3,,,,,,,,TrainingProc,BlockList,20,1,Distractor2.bmp,2,0,,0,1,684740,400,,0,0,blue,400,1,400,3,vertical,blue,Distractor2.bmp,purple,Distractor1.bmp,yellow,Distractor2.bmp,red,Distractor2.bmp,cyan,Distractor2.bmp,lime,Target1.bmp,,,,TrialProc,,TrainingTrialList,1,1,-999999,0,685140,0,1,639,685779,Target1.bmp,lime,1,,,,6,3,68
KW_Experiment5A,7,1,"<?xml version=""1.0""?>\n<Clock xmlns:dt=""urn:schemas-microsoft-com:datatypes""><Description dt:dt=""string"">E-Prime Primary Realtime Clock</Description><StartTime><Timestamp dt:dt=""int"">0</Timestamp><DateUtc dt:dt=""string"">2018-10-10T16:23:02Z</DateUtc></StartTime><FrequencyChanges><FrequencyChange><Frequency dt:dt=""r8"">3215292</Frequency><Timestamp dt:dt=""r8"">3896298863602</Timestamp><Current dt:dt=""r8"">0</Current><DateUtc dt:dt=""string"">2018-10-10T16:23:02Z</DateUtc></FrequencyChange></FrequencyChanges></Clock>\n",KW_Experiment5A-7-1,59.945,1.0.0.105,1,764170319,Professional,2.0.10.353,2.0.10.353,10/10/2018,10/10/2018 16:23,12:23:03,2.0.10.248,3,2,1,3,,,,,,,,TrainingProc,BlockList,21,2,Distractor2.bmp,2,0,,0,1,686792,600,,0,0,red,600,3,600,1,horizontal,red,Distractor1.bmp,purple,Distractor2.bmp,lime,Target2.bmp,yellow,Distractor2.bmp,blue,Distractor2.bmp,cyan,Distractor1.bmp,,,,TrialProc,,TrainingTrialList,1,2,-999999,0,687392,0,2,635,688027,Target2.bmp,lime,2,,,,3,3,69
KW_Experiment5A,7,1,"<?xml version=""1.0""?>\n<Clock xmlns:dt=""urn:schemas-microsoft-com:datatypes""><Description dt:dt=""string"">E-Prime Primary Realtime Clock</Description><StartTime><Timestamp dt:dt=""int"">0</Timestamp><DateUtc dt:dt=""string"">2018-10-10T16:23:02Z</DateUtc></StartTime><FrequencyChanges><FrequencyChange><Frequency dt:dt=""r8"">3215292</Frequency><Timestamp dt:dt=""r8"">3896298863602</Timestamp><Current dt:dt=""r8"">0</Current><DateUtc dt:dt=""string"">2018-10-10T16:23:02Z</DateUtc></FrequencyChange></FrequencyChanges></Clock>\n",KW_Experiment5A-7-1,59.945,1.0.0.105,1,764170319,Professional,2.0.10.353,2.0.10.353,10/10/2018,10/10/2018 16:23,12:23:03,2.0.10.248,3,2,1,3,,,,,,,,TrainingProc,BlockList,22,2,Distractor1.bmp,1,0,,0,1,689044,500,,0,0,blue,500,2,500,,horizontal,red,Target2.bmp,purple,Distractor1.bmp,cyan,Distractor2.bmp,lime,Distractor1.bmp,yellow,Distractor1.bmp,blue,Distractor2.bmp,,,,TrialProc,3,TrainingTrialList,1,2,-999999,0,689544,0,2,643,690187,Target2.bmp,red,2,,,,7,3,70
KW_Experiment5A,7,1,"<?xml version=""1.0""?>\n<Clock xmlns:dt=""urn:schemas-microsoft-com:datatypes""><Description dt:dt=""string"">E-Prime Primary Realtime Clock</Description><StartTime><Timestamp dt:dt=""int"">0</Timestamp><DateUtc dt:dt=""string"">2018-10-10T16:23:02Z</DateUtc></StartTime><FrequencyChanges><FrequencyChange><Frequency dt:dt=""r8"">3215292</Frequency><Timestamp dt:dt=""r8"">3896298863602</Timestamp><Current dt:dt=""r8"">0</Current><DateUtc dt:dt=""string"">2018-10-10T16:23:02Z</DateUtc></FrequencyChange></FrequencyChanges></Clock>\n",KW_Experiment5A-7-1,59.945,1.0.0.105,1,764170319,Professional,2.0.10.353,2.0.10.353,10/10/2018,10/10/2018 16:23,12:23:03,2.0.10.248,3,2,1,3,,,,,,,,TrainingProc,BlockList,23,1,Distractor2.bmp,2,0,,0,1,691212,501,,0,0,cyan,500,2,500,4,vertical,cyan,Distractor1.bmp,red,Distractor2.bmp,purple,Distractor1.bmp,yellow,Distractor2.bmp,lime,Target1.bmp,blue,Distractor2.bmp,,,,TrialProc,,TrainingTrialList,1,1,-999999,1,691713,0,1,626,692339,Target1.bmp,lime,1,,,,5,3,71
KW_Experiment5A,7,1,"<?xml version=""1.0""?>\n<Clock xmlns:dt=""urn:schemas-microsoft-com:datatypes""><Description dt:dt=""string"">E-Prime Primary Realtime Clock</Description><StartTime><Timestamp dt:dt=""int"">0</Timestamp><DateUtc dt:dt=""string"">2018-10-10T16:23:02Z</DateUtc></StartTime><FrequencyChanges><FrequencyChange><Frequency dt:dt=""r8"">3215292</Frequency><Timestamp dt:dt=""r8"">3896298863602</Timestamp><Current dt:dt=""r8"">0</Current><DateUtc dt:dt=""string"">2018-10-10T16:23:02Z</DateUtc></FrequencyChange></FrequencyChanges></Clock>\n",KW_Experiment5A-7-1,59.945,1.0.0.105,1,764170319,Professional,2.0.10.353,2.0.10.353,10/10/2018,10/10/2018 16:23,12:23:03,2.0.10.248,3,2,1,3,,,,,,,,TrainingProc,BlockList,24,1,Distractor2.bmp,2,0,,0,1,693364,401,,0,0,cyan,400,1,400,,vertical,cyan,Distractor2.bmp,red,Target1.bmp,yellow,Distractor2.bmp,lime,Distractor2.bmp,blue,Distractor1.bmp,purple,Distractor2.bmp,,,,TrialProc,4,TrainingTrialList,1,1,-999999,1,693765,0,1,2726,696491,Target1.bmp,red,1,,,,8,3,72
KW_Experiment5A,7,1,"<?xml version=""1.0""?>\n<Clock xmlns:dt=""urn:schemas-microsoft-com:datatypes""><Description dt:dt=""string"">E-Prime Primary Realtime Clock</Description><StartTime><Timestamp dt:dt=""int"">0</Timestamp><DateUtc dt:dt=""string"">2018-10-10T16:23:02Z</DateUtc></StartTime><FrequencyChanges><FrequencyChange><Frequency dt:dt=""r8"">3215292</Frequency><Timestamp dt:dt=""r8"">3896298863602</Timestamp><Current dt:dt=""r8"">0</Current><DateUtc dt:dt=""string"">2018-10-10T16:23:02Z</DateUtc></FrequencyChange></FrequencyChanges></Clock>\n",KW_Experiment5A-7-1,59.945,1.0.0.105,1,764170319,Professional,2.0.10.353,2.0.10.353,10/10/2018,10/10/2018 16:23,12:23:03,2.0.10.248,3,2,1,3,,,,,,,,TrainingProc,BlockList,25,2,Distractor2.bmp,2,0,,0,1,697518,601,,0,0,cyan,600,3,600,,horizontal,red,Target2.bmp,blue,Distractor2.bmp,yellow,Distractor2.bmp,lime,Distractor1.bmp,purple,Distractor1.bmp,cyan,Distractor1.bmp,,,,TrialProc,4,TrainingTrialList,1,2,-999999,1,698119,0,2,596,698715,Target2.bmp,red,2,,,,7,4,73
KW_Experiment5A,7,1,"<?xml version=""1.0""?>\n<Clock xmlns:dt=""urn:schemas-microsoft-com:datatypes""><Description dt:dt=""string"">E-Prime Primary Realtime Clock</Description><StartTime><Timestamp dt:dt=""int"">0</Timestamp><DateUtc dt:dt=""string"">2018-10-10T16:23:02Z</DateUtc></StartTime><FrequencyChanges><FrequencyChange><Frequency dt:dt=""r8"">3215292</Frequency><Timestamp dt:dt=""r8"">3896298863602</Timestamp><Current dt:dt=""r8"">0</Current><DateUtc dt:dt=""string"">2018-10-10T16:23:02Z</DateUtc></FrequencyChange></FrequencyChanges></Clock>\n",KW_Experiment5A-7-1,59.945,1.0.0.105,1,764170319,Professional,2.0.10.353,2.0.10.353,10/10/2018,10/10/2018 16:23,12:23:03,2.0.10.248,3,2,1,3,,,,,,,,TrainingProc,BlockList,26,2,Distractor1.bmp,1,0,,0,1,699737,600,,0,0,blue,600,3,600,3,horizontal,lime,Target2.bmp,blue,Distractor1.bmp,cyan,Distractor2.bmp,purple,Distractor2.bmp,yellow,Distractor1.bmp,red,Distractor2.bmp,,,,TrialProc,,TrainingTrialList,1,2,-999999,0,700337,0,2,618,700955,Target2.bmp,lime,2,,,,1,4,74
KW_Experiment5A,7,1,"<?xml version=""1.0""?>\n<Clock xmlns:dt=""urn:schemas-microsoft-com:datatypes""><Description dt:dt=""string"">E-Prime Primary Realtime Clock</Description><StartTime><Timestamp dt:dt=""int"">0</Timestamp><DateUtc dt:dt=""string"">2018-10-10T16:23:02Z</DateUtc></StartTime><FrequencyChanges><FrequencyChange><Frequency dt:dt=""r8"">3215292</Frequency><Timestamp dt:dt=""r8"">3896298863602</Timestamp><Current dt:dt=""r8"">0</Current><DateUtc dt:dt=""string"">2018-10-10T16:23:02Z</DateUtc></FrequencyChange></FrequencyChanges></Clock>\n",KW_Experiment5A-7-1,59.945,1.0.0.105,1,764170319,Professional,2.0.10.353,2.0.10.353,10/10/2018,10/10/2018 16:23,12:23:03,2.0.10.248,3,2,1,3,,,,,,,,TrainingProc,BlockList,27,1,Distractor1.bmp,1,0,,0,1,701972,501,,0,0,yellow,500,2,500,2,vertical,yellow,Distractor1.bmp,red,Distractor1.bmp,cyan,Distractor2.bmp,purple,Distractor2.bmp,blue,Distractor1.bmp,lime,Target1.bmp,,,,TrialProc,,TrainingTrialList,1,1,-999999,1,702473,0,1,642,703115,Target1.bmp,lime,1,,,,6,4,75
KW_Experiment5A,7,1,"<?xml version=""1.0""?>\n<Clock xmlns:dt=""urn:schemas-microsoft-com:datatypes""><Description dt:dt=""string"">E-Prime Primary Realtime Clock</Description><StartTime><Timestamp dt:dt=""int"">0</Timestamp><DateUtc dt:dt=""string"">2018-10-10T16:23:02Z</DateUtc></StartTime><FrequencyChanges><FrequencyChange><Frequency dt:dt=""r8"">3215292</Frequency><Timestamp dt:dt=""r8"">3896298863602</Timestamp><Current dt:dt=""r8"">0</Current><DateUtc dt:dt=""string"">2018-10-10T16:23:02Z</DateUtc></FrequencyChange></FrequencyChanges></Clock>\n",KW_Experiment5A-7-1,59.945,1.0.0.105,1,764170319,Professional,2.0.10.353,2.0.10.353,10/10/2018,10/10/2018 16:23,12:23:03,2.0.10.248,3,2,1,3,,,,,,,,TrainingProc,BlockList,28,2,Distractor2.bmp,2,0,,0,1,704124,501,,0,0,lime,500,2,500,,horizontal,lime,Distractor1.bmp,cyan,Distractor1.bmp,red,Target2.bmp,purple,Distractor2.bmp,blue,Distractor1.bmp,yellow,Distractor1.bmp,,,,TrialProc,6,TrainingTrialList,1,2,-999999,1,704625,0,2,754,705379,Target2.bmp,red,2,,,,9,4,76
KW_Experiment5A,7,1,"<?xml version=""1.0""?>\n<Clock xmlns:dt=""urn:schemas-microsoft-com:datatypes""><Description dt:dt=""string"">E-Prime Primary Realtime Clock</Description><StartTime><Timestamp dt:dt=""int"">0</Timestamp><DateUtc dt:dt=""string"">2018-10-10T16:23:02Z</DateUtc></StartTime><FrequencyChanges><FrequencyChange><Frequency dt:dt=""r8"">3215292</Frequency><Timestamp dt:dt=""r8"">3896298863602</Timestamp><Current dt:dt=""r8"">0</Current><DateUtc dt:dt=""string"">2018-10-10T16:23:02Z</DateUtc></FrequencyChange></FrequencyChanges></Clock>\n",KW_Experiment5A-7-1,59.945,1.0.0.105,1,764170319,Professional,2.0.10.353,2.0.10.353,10/10/2018,10/10/2018 16:23,12:23:03,2.0.10.248,3,2,1,3,,,,,,,,TrainingProc,BlockList,29,1,Distractor2.bmp,2,0,,0,1,706393,600,,0,0,blue,600,3,600,3,vertical,blue,Distractor2.bmp,yellow,Distractor1.bmp,purple,Distractor2.bmp,lime,Target1.bmp,cyan,Distractor2.bmp,red,Distractor2.bmp,,,,TrialProc,,TrainingTrialList,1,1,-999999,0,706993,0,1,746,707739,Target1.bmp,lime,1,,,,4,4,77
KW_Experiment5A,7,1,"<?xml version=""1.0""?>\n<Clock xmlns:dt=""urn:schemas-microsoft-com:datatypes""><Description dt:dt=""string"">E-Prime Primary Realtime Clock</Description><StartTime><Timestamp dt:dt=""int"">0</Timestamp><DateUtc dt:dt=""string"">2018-10-10T16:23:02Z</DateUtc></StartTime><FrequencyChanges><FrequencyChange><Frequency dt:dt=""r8"">3215292</Frequency><Timestamp dt:dt=""r8"">3896298863602</Timestamp><Current dt:dt=""r8"">0</Current><DateUtc dt:dt=""string"">2018-10-10T16:23:02Z</DateUtc></FrequencyChange></FrequencyChanges></Clock>\n",KW_Experiment5A-7-1,59.945,1.0.0.105,1,764170319,Professional,2.0.10.353,2.0.10.353,10/10/2018,10/10/2018 16:23,12:23:03,2.0.10.248,3,2,1,3,,,,,,,,TrainingProc,BlockList,30,2,Distractor2.bmp,2,0,,0,1,708762,600,,0,0,blue,600,3,600,3,horizontal,blue,Distractor2.bmp,red,Distractor1.bmp,yellow,Distractor1.bmp,cyan,Distractor1.bmp,lime,Target2.bmp,purple,Distractor2.bmp,,,,TrialProc,,TrainingTrialList,1,2,-999999,0,709362,0,2,656,710018,Target2.bmp,lime,2,,,,5,4,78
KW_Experiment5A,7,1,"<?xml version=""1.0""?>\n<Clock xmlns:dt=""urn:schemas-microsoft-com:datatypes""><Description dt:dt=""string"">E-Prime Primary Realtime Clock</Description><StartTime><Timestamp dt:dt=""int"">0</Timestamp><DateUtc dt:dt=""string"">2018-10-10T16:23:02Z</DateUtc></StartTime><FrequencyChanges><FrequencyChange><Frequency dt:dt=""r8"">3215292</Frequency><Timestamp dt:dt=""r8"">3896298863602</Timestamp><Current dt:dt=""r8"">0</Current><DateUtc dt:dt=""string"">2018-10-10T16:23:02Z</DateUtc></FrequencyChange></FrequencyChanges></Clock>\n",KW_Experiment5A-7-1,59.945,1.0.0.105,1,764170319,Professional,2.0.10.353,2.0.10.353,10/10/2018,10/10/2018 16:23,12:23:03,2.0.10.248,3,2,1,3,,,,,,,,TrainingProc,BlockList,31,2,Distractor2.bmp,2,0,,0,1,711030,401,,0,0,cyan,400,1,400,,horizontal,cyan,Distractor1.bmp,blue,Distractor1.bmp,yellow,Distractor2.bmp,red,Target2.bmp,purple,Distractor2.bmp,lime,Distractor1.bmp,,,,TrialProc,4,TrainingTrialList,1,2,-999999,1,711431,0,2,1083,712514,Target2.bmp,red,2,,,,10,4,79
KW_Experiment5A,7,1,"<?xml version=""1.0""?>\n<Clock xmlns:dt=""urn:schemas-microsoft-com:datatypes""><Description dt:dt=""string"">E-Prime Primary Realtime Clock</Description><StartTime><Timestamp dt:dt=""int"">0</Timestamp><DateUtc dt:dt=""string"">2018-10-10T16:23:02Z</DateUtc></StartTime><FrequencyChanges><FrequencyChange><Frequency dt:dt=""r8"">3215292</Frequency><Timestamp dt:dt=""r8"">3896298863602</Timestamp><Current dt:dt=""r8"">0</Current><DateUtc dt:dt=""string"">2018-10-10T16:23:02Z</DateUtc></FrequencyChange></FrequencyChanges></Clock>\n",KW_Experiment5A-7-1,59.945,1.0.0.105,1,764170319,Professional,2.0.10.353,2.0.10.353,10/10/2018,10/10/2018 16:23,12:23:03,2.0.10.248,3,2,1,3,,,,,,,,TrainingProc,BlockList,32,1,Distractor1.bmp,1,0,,0,1,713533,600,,0,0,purple,600,3,600,5,vertical,purple,Distractor2.bmp,lime,Target1.bmp,blue,Distractor1.bmp,cyan,Distractor2.bmp,red,Distractor2.bmp,yellow,Distractor1.bmp,,,,TrialProc,,TrainingTrialList,1,1,-999999,0,714133,0,1,637,714770,Target1.bmp,lime,1,,,,2,4,80
KW_Experiment5A,7,1,"<?xml version=""1.0""?>\n<Clock xmlns:dt=""urn:schemas-microsoft-com:datatypes""><Description dt:dt=""string"">E-Prime Primary Realtime Clock</Description><StartTime><Timestamp dt:dt=""int"">0</Timestamp><DateUtc dt:dt=""string"">2018-10-10T16:23:02Z</DateUtc></StartTime><FrequencyChanges><FrequencyChange><Frequency dt:dt=""r8"">3215292</Frequency><Timestamp dt:dt=""r8"">3896298863602</Timestamp><Current dt:dt=""r8"">0</Current><DateUtc dt:dt=""string"">2018-10-10T16:23:02Z</DateUtc></FrequencyChange></FrequencyChanges></Clock>\n",KW_Experiment5A-7-1,59.945,1.0.0.105,1,764170319,Professional,2.0.10.353,2.0.10.353,10/10/2018,10/10/2018 16:23,12:23:03,2.0.10.248,3,2,1,3,,,,,,,,TrainingProc,BlockList,33,1,Distractor2.bmp,2,0,,0,1,715785,500,,0,0,purple,500,2,500,,vertical,purple,Distractor1.bmp,lime,Distractor2.bmp,blue,Distractor2.bmp,cyan,Distractor1.bmp,red,Target1.bmp,yellow,Distractor2.bmp,,,,TrialProc,5,TrainingTrialList,0,1,-999999,0,716285,0,2,645,716930,Target1.bmp,red,1,,,,11,4,81
KW_Experiment5A,7,1,"<?xml version=""1.0""?>\n<Clock xmlns:dt=""urn:schemas-microsoft-com:datatypes""><Description dt:dt=""string"">E-Prime Primary Realtime Clock</Description><StartTime><Timestamp dt:dt=""int"">0</Timestamp><DateUtc dt:dt=""string"">2018-10-10T16:23:02Z</DateUtc></StartTime><FrequencyChanges><FrequencyChange><Frequency dt:dt=""r8"">3215292</Frequency><Timestamp dt:dt=""r8"">3896298863602</Timestamp><Current dt:dt=""r8"">0</Current><DateUtc dt:dt=""string"">2018-10-10T16:23:02Z</DateUtc></FrequencyChange></FrequencyChanges></Clock>\n",KW_Experiment5A-7-1,59.945,1.0.0.105,1,764170319,Professional,2.0.10.353,2.0.10.353,10/10/2018,10/10/2018 16:23,12:23:03,2.0.10.248,3,2,1,3,,,,,,,,TrainingProc,BlockList,34,1,Distractor2.bmp,2,0,,0,1,717953,501,,0,0,yellow,500,2,500,2,vertical,yellow,Distractor2.bmp,blue,Distractor1.bmp,red,Distractor2.bmp,purple,Distractor2.bmp,lime,Target1.bmp,cyan,Distractor2.bmp,,,,TrialProc,,TrainingTrialList,1,1,-999999,1,718454,0,1,660,719114,Target1.bmp,lime,1,,,,5,4,82
KW_Experiment5A,7,1,"<?xml version=""1.0""?>\n<Clock xmlns:dt=""urn:schemas-microsoft-com:datatypes""><Description dt:dt=""string"">E-Prime Primary Realtime Clock</Description><StartTime><Timestamp dt:dt=""int"">0</Timestamp><DateUtc dt:dt=""string"">2018-10-10T16:23:02Z</DateUtc></StartTime><FrequencyChanges><FrequencyChange><Frequency dt:dt=""r8"">3215292</Frequency><Timestamp dt:dt=""r8"">3896298863602</Timestamp><Current dt:dt=""r8"">0</Current><DateUtc dt:dt=""string"">2018-10-10T16:23:02Z</DateUtc></FrequencyChange></FrequencyChanges></Clock>\n",KW_Experiment5A-7-1,59.945,1.0.0.105,1,764170319,Professional,2.0.10.353,2.0.10.353,10/10/2018,10/10/2018 16:23,12:23:03,2.0.10.248,3,2,1,3,,,,,,,,TrainingProc,BlockList,35,2,Distractor1.bmp,1,0,,0,1,720139,500,,0,0,cyan,500,2,500,4,horizontal,cyan,Distractor2.bmp,purple,Distractor2.bmp,red,Distractor1.bmp,lime,Target2.bmp,yellow,Distractor1.bmp,blue,Distractor1.bmp,,,,TrialProc,,TrainingTrialList,1,2,-999999,0,720639,0,2,675,721314,Target2.bmp,lime,2,,,,4,4,83
KW_Experiment5A,7,1,"<?xml version=""1.0""?>\n<Clock xmlns:dt=""urn:schemas-microsoft-com:datatypes""><Description dt:dt=""string"">E-Prime Primary Realtime Clock</Description><StartTime><Timestamp dt:dt=""int"">0</Timestamp><DateUtc dt:dt=""string"">2018-10-10T16:23:02Z</DateUtc></StartTime><FrequencyChanges><FrequencyChange><Frequency dt:dt=""r8"">3215292</Frequency><Timestamp dt:dt=""r8"">3896298863602</Timestamp><Current dt:dt=""r8"">0</Current><DateUtc dt:dt=""string"">2018-10-10T16:23:02Z</DateUtc></FrequencyChange></FrequencyChanges></Clock>\n",KW_Experiment5A-7-1,59.945,1.0.0.105,1,764170319,Professional,2.0.10.353,2.0.10.353,10/10/2018,10/10/2018 16:23,12:23:03,2.0.10.248,3,2,1,3,,,,,,,,TrainingProc,BlockList,36,1,Distractor2.bmp,2,0,,0,1,722324,601,,0,0,yellow,600,3,600,2,vertical,yellow,Distractor2.bmp,cyan,Distractor1.bmp,lime,Target1.bmp,blue,Distractor2.bmp,purple,Distractor2.bmp,red,Distractor1.bmp,,,,TrialProc,,TrainingTrialList,1,1,-999999,1,722925,0,1,717,723642,Target1.bmp,lime,1,,,,3,4,84
KW_Experiment5A,7,1,"<?xml version=""1.0""?>\n<Clock xmlns:dt=""urn:schemas-microsoft-com:datatypes""><Description dt:dt=""string"">E-Prime Primary Realtime Clock</Description><StartTime><Timestamp dt:dt=""int"">0</Timestamp><DateUtc dt:dt=""string"">2018-10-10T16:23:02Z</DateUtc></StartTime><FrequencyChanges><FrequencyChange><Frequency dt:dt=""r8"">3215292</Frequency><Timestamp dt:dt=""r8"">3896298863602</Timestamp><Current dt:dt=""r8"">0</Current><DateUtc dt:dt=""string"">2018-10-10T16:23:02Z</DateUtc></FrequencyChange></FrequencyChanges></Clock>\n",KW_Experiment5A-7-1,59.945,1.0.0.105,1,764170319,Professional,2.0.10.353,2.0.10.353,10/10/2018,10/10/2018 16:23,12:23:03,2.0.10.248,3,2,1,3,,,,,,,,TrainingProc,BlockList,37,2,Distractor1.bmp,1,0,,0,0,724659,401,,0,0,cyan,400,1,400,,horizontal,cyan,Distractor1.bmp,purple,Distractor2.bmp,lime,Distractor1.bmp,blue,Distractor2.bmp,yellow,Distractor1.bmp,red,Target2.bmp,,,,TrialProc,4,TrainingTrialList,1,2,-999999,1,725060,0,2,766,725826,Target2.bmp,red,2,,,,12,4,85
KW_Experiment5A,7,1,"<?xml version=""1.0""?>\n<Clock xmlns:dt=""urn:schemas-microsoft-com:datatypes""><Description dt:dt=""string"">E-Prime Primary Realtime Clock</Description><StartTime><Timestamp dt:dt=""int"">0</Timestamp><DateUtc dt:dt=""string"">2018-10-10T16:23:02Z</DateUtc></StartTime><FrequencyChanges><FrequencyChange><Frequency dt:dt=""r8"">3215292</Frequency><Timestamp dt:dt=""r8"">3896298863602</Timestamp><Current dt:dt=""r8"">0</Current><DateUtc dt:dt=""string"">2018-10-10T16:23:02Z</DateUtc></FrequencyChange></FrequencyChanges></Clock>\n",KW_Experiment5A-7-1,59.945,1.0.0.105,1,764170319,Professional,2.0.10.353,2.0.10.353,10/10/2018,10/10/2018 16:23,12:23:03,2.0.10.248,3,2,1,3,,,,,,,,TrainingProc,BlockList,38,2,Distractor2.bmp,2,0,,0,1,726845,500,,0,0,red,500,2,500,1,horizontal,red,Distractor2.bmp,purple,Distractor1.bmp,cyan,Distractor2.bmp,blue,Distractor2.bmp,yellow,Distractor1.bmp,lime,Target2.bmp,,,,TrialProc,,TrainingTrialList,1,2,-999999,0,727345,0,2,1001,728346,Target2.bmp,lime,2,,,,6,4,86
KW_Experiment5A,7,1,"<?xml version=""1.0""?>\n<Clock xmlns:dt=""urn:schemas-microsoft-com:datatypes""><Description dt:dt=""string"">E-Prime Primary Realtime Clock</Description><StartTime><Timestamp dt:dt=""int"">0</Timestamp><DateUtc dt:dt=""string"">2018-10-10T16:23:02Z</DateUtc></StartTime><FrequencyChanges><FrequencyChange><Frequency dt:dt=""r8"">3215292</Frequency><Timestamp dt:dt=""r8"">3896298863602</Timestamp><Current dt:dt=""r8"">0</Current><DateUtc dt:dt=""string"">2018-10-10T16:23:02Z</DateUtc></FrequencyChange></FrequencyChanges></Clock>\n",KW_Experiment5A-7-1,59.945,1.0.0.105,1,764170319,Professional,2.0.10.353,2.0.10.353,10/10/2018,10/10/2018 16:23,12:23:03,2.0.10.248,3,2,1,3,,,,,,,,TrainingProc,BlockList,39,2,Distractor2.bmp,2,0,,0,1,729364,600,,0,0,cyan,600,3,600,4,horizontal,cyan,Distractor2.bmp,blue,Distractor1.bmp,yellow,Distractor1.bmp,purple,Distractor1.bmp,lime,Target2.bmp,red,Distractor2.bmp,,,,TrialProc,,TrainingTrialList,1,2,-999999,0,729964,0,2,542,730506,Target2.bmp,lime,2,,,,5,4,87
KW_Experiment5A,7,1,"<?xml version=""1.0""?>\n<Clock xmlns:dt=""urn:schemas-microsoft-com:datatypes""><Description dt:dt=""string"">E-Prime Primary Realtime Clock</Description><StartTime><Timestamp dt:dt=""int"">0</Timestamp><DateUtc dt:dt=""string"">2018-10-10T16:23:02Z</DateUtc></StartTime><FrequencyChanges><FrequencyChange><Frequency dt:dt=""r8"">3215292</Frequency><Timestamp dt:dt=""r8"">3896298863602</Timestamp><Current dt:dt=""r8"">0</Current><DateUtc dt:dt=""string"">2018-10-10T16:23:02Z</DateUtc></FrequencyChange></FrequencyChanges></Clock>\n",KW_Experiment5A-7-1,59.945,1.0.0.105,1,764170319,Professional,2.0.10.353,2.0.10.353,10/10/2018,10/10/2018 16:23,12:23:03,2.0.10.248,3,2,1,3,,,,,,,,TrainingProc,BlockList,40,1,Distractor2.bmp,2,0,,0,1,731516,400,,0,0,purple,400,1,400,,vertical,purple,Distractor1.bmp,red,Target1.bmp,blue,Distractor2.bmp,yellow,Distractor2.bmp,lime,Distractor1.bmp,cyan,Distractor1.bmp,,,,TrialProc,5,TrainingTrialList,1,1,-999999,0,731916,0,1,782,732698,Target1.bmp,red,1,,,,8,4,88
KW_Experiment5A,7,1,"<?xml version=""1.0""?>\n<Clock xmlns:dt=""urn:schemas-microsoft-com:datatypes""><Description dt:dt=""string"">E-Prime Primary Realtime Clock</Description><StartTime><Timestamp dt:dt=""int"">0</Timestamp><DateUtc dt:dt=""string"">2018-10-10T16:23:02Z</DateUtc></StartTime><FrequencyChanges><FrequencyChange><Frequency dt:dt=""r8"">3215292</Frequency><Timestamp dt:dt=""r8"">3896298863602</Timestamp><Current dt:dt=""r8"">0</Current><DateUtc dt:dt=""string"">2018-10-10T16:23:02Z</DateUtc></FrequencyChange></FrequencyChanges></Clock>\n",KW_Experiment5A-7-1,59.945,1.0.0.105,1,764170319,Professional,2.0.10.353,2.0.10.353,10/10/2018,10/10/2018 16:23,12:23:03,2.0.10.248,3,2,1,3,,,,,,,,TrainingProc,BlockList,41,1,Distractor2.bmp,2,0,,0,1,733718,600,,0,0,yellow,600,3,600,2,vertical,lime,Target1.bmp,yellow,Distractor2.bmp,red,Distractor2.bmp,cyan,Distractor2.bmp,blue,Distractor1.bmp,purple,Distractor2.bmp,,,,TrialProc,,TrainingTrialList,1,1,-999999,0,734318,0,1,612,734930,Target1.bmp,lime,1,,,,1,4,89
KW_Experiment5A,7,1,"<?xml version=""1.0""?>\n<Clock xmlns:dt=""urn:schemas-microsoft-com:datatypes""><Description dt:dt=""string"">E-Prime Primary Realtime Clock</Description><StartTime><Timestamp dt:dt=""int"">0</Timestamp><DateUtc dt:dt=""string"">2018-10-10T16:23:02Z</DateUtc></StartTime><FrequencyChanges><FrequencyChange><Frequency dt:dt=""r8"">3215292</Frequency><Timestamp dt:dt=""r8"">3896298863602</Timestamp><Current dt:dt=""r8"">0</Current><DateUtc dt:dt=""string"">2018-10-10T16:23:02Z</DateUtc></FrequencyChange></FrequencyChanges></Clock>\n",KW_Experiment5A-7-1,59.945,1.0.0.105,1,764170319,Professional,2.0.10.353,2.0.10.353,10/10/2018,10/10/2018 16:23,12:23:03,2.0.10.248,3,2,1,3,,,,,,,,TrainingProc,BlockList,42,2,Distractor2.bmp,2,0,,0,1,735953,500,,0,0,blue,500,2,500,3,horizontal,blue,Distractor1.bmp,purple,Distractor1.bmp,cyan,Distractor2.bmp,lime,Target2.bmp,yellow,Distractor2.bmp,red,Distractor1.bmp,,,,TrialProc,,TrainingTrialList,1,2,-999999,0,736453,0,2,709,737162,Target2.bmp,lime,2,,,,4,4,90
