ExperimentName,Subject,Session,Clock.Information,DataFile.Basename,Display.RefreshRate,ExperimentVersion,Group,RandomSeed,RuntimeCapabilities,RuntimeVersion,RuntimeVersionExpected,SessionDate,SessionStartDateTimeUtc,SessionTime,StudioVersion,Block,BlockList,BlockList.Cycle,BlockList.Sample,PostTestQ1.RESP,PostTestQ1CJ.RESP,PostTestQ2.RESP,PostTestQ2CJ.RESP,PostTestQ3.RESP,PostTestQ3CJ.RESP,PostTestSlide.RESP,Procedure[Block],Running[Block],Trial,CorrectResponse,Distractor,DistractorList,Fixation.ACC,Fixation.CRESP,Fixation.DurationError,Fixation.OnsetDelay,Fixation.OnsetTime,Fixation.OnsetToOnsetTime,Fixation.RESP,Fixation.RT,Fixation.RTTime,ItemColor,Jitter,JitterList,JitterTime,Lime0List,Orientation,Pos1Color,Pos1Item,Pos2Color,Pos2Item,Pos3Color,Pos3Item,Pos4Color,Pos4Item,Pos5Color,Pos5Item,Pos6Color,Pos6Item,PracticeTrialList,PracticeTrialList.Cycle,PracticeTrialList.Sample,Procedure[Trial],Red0List,Running[Trial],Stimulus.ACC,Stimulus.CRESP,Stimulus.DurationError,Stimulus.OnsetDelay,Stimulus.OnsetTime,Stimulus.OnsetToOnsetTime,Stimulus.RESP,Stimulus.RT,Stimulus.RTTime,Target,TargetColor,TargetList,TestTrialList,TestTrialList.Cycle,TestTrialList.Sample,TrainingTrialList,TrainingTrialList.Cycle,TrainingTrialList.Sample
KW_Experiment5A,26,1,"<?xml version=""1.0""?>\n<Clock xmlns:dt=""urn:schemas-microsoft-com:datatypes""><Description dt:dt=""string"">E-Prime Primary Realtime Clock</Description><StartTime><Timestamp dt:dt=""int"">0</Timestamp><DateUtc dt:dt=""string"">2018-10-17T17:15:20Z</DateUtc></StartTime><FrequencyChanges><FrequencyChange><Frequency dt:dt=""r8"">3215244</Frequency><Timestamp dt:dt=""r8"">7134363735693</Timestamp><Current dt:dt=""r8"">0</Current><DateUtc dt:dt=""string"">2018-10-17T17:15:20Z</DateUtc></FrequencyChange></FrequencyChanges></Clock>\n",KW_Experiment5A-26-1,59.945,1.0.0.105,1,423675659,Professional,2.0.10.353,2.0.10.353,10/17/2018,10/17/2018 17:15,13:15:20,2.0.10.248,1,1,1,1,,,,,,,,PracticeProc,BlockList,1,1,Distractor1.bmp,1,0,,0,51,47240,400,,0,0,red,400,1,400,1,vertical,cyan,Distractor1.bmp,red,Distractor1.bmp,lime,Target1.bmp,yellow,Distractor1.bmp,blue,Distractor2.bmp,purple,Distractor2.bmp,3,1,1,TrialProc,,PracticeTrialList,1,1,-999999,0,47640,0,1,1757,49397,Target1.bmp,lime,1,,,,,,
KW_Experiment5A,26,1,"<?xml version=""1.0""?>\n<Clock xmlns:dt=""urn:schemas-microsoft-com:datatypes""><Description dt:dt=""string"">E-Prime Primary Realtime Clock</Description><StartTime><Timestamp dt:dt=""int"">0</Timestamp><DateUtc dt:dt=""string"">2018-10-17T17:15:20Z</DateUtc></StartTime><FrequencyChanges><FrequencyChange><Frequency dt:dt=""r8"">3215244</Frequency><Timestamp dt:dt=""r8"">7134363735693</Timestamp><Current dt:dt=""r8"">0</Current><DateUtc dt:dt=""string"">2018-10-17T17:15:20Z</DateUtc></FrequencyChange></FrequencyChanges></Clock>\n",KW_Experiment5A-26-1,59.945,1.0.0.105,1,423675659,Professional,2.0.10.353,2.0.10.353,10/17/2018,10/17/2018 17:15,13:15:20,2.0.10.248,1,1,1,1,,,,,,,,PracticeProc,BlockList,2,1,Distractor2.bmp,2,0,,0,1,50426,400,,0,0,purple,400,1,400,,vertical,purple,Distractor2.bmp,red,Target1.bmp,yellow,Distractor2.bmp,cyan,Distractor1.bmp,blue,Distractor1.bmp,lime,Distractor2.bmp,2,1,2,TrialProc,5,PracticeTrialList,1,1,-999999,0,50826,0,1,891,51717,Target1.bmp,red,1,,,,,,
KW_Experiment5A,26,1,"<?xml version=""1.0""?>\n<Clock xmlns:dt=""urn:schemas-microsoft-com:datatypes""><Description dt:dt=""string"">E-Prime Primary Realtime Clock</Description><StartTime><Timestamp dt:dt=""int"">0</Timestamp><DateUtc dt:dt=""string"">2018-10-17T17:15:20Z</DateUtc></StartTime><FrequencyChanges><FrequencyChange><Frequency dt:dt=""r8"">3215244</Frequency><Timestamp dt:dt=""r8"">7134363735693</Timestamp><Current dt:dt=""r8"">0</Current><DateUtc dt:dt=""string"">2018-10-17T17:15:20Z</DateUtc></FrequencyChange></FrequencyChanges></Clock>\n",KW_Experiment5A-26-1,59.945,1.0.0.105,1,423675659,Professional,2.0.10.353,2.0.10.353,10/17/2018,10/17/2018 17:15,13:15:20,2.0.10.248,1,1,1,1,,,,,,,,PracticeProc,BlockList,3,2,Distractor2.bmp,2,0,,0,1,52728,601,,0,0,cyan,600,3,600,,horizontal,blue,Distractor2.bmp,lime,Distractor2.bmp,yellow,Distractor2.bmp,purple,Distractor1.bmp,cyan,Distractor1.bmp,red,Target2.bmp,6,1,3,TrialProc,4,PracticeTrialList,1,2,-999999,1,53329,0,2,684,54013,Target2.bmp,red,2,,,,,,
KW_Experiment5A,26,1,"<?xml version=""1.0""?>\n<Clock xmlns:dt=""urn:schemas-microsoft-com:datatypes""><Description dt:dt=""string"">E-Prime Primary Realtime Clock</Description><StartTime><Timestamp dt:dt=""int"">0</Timestamp><DateUtc dt:dt=""string"">2018-10-17T17:15:20Z</DateUtc></StartTime><FrequencyChanges><FrequencyChange><Frequency dt:dt=""r8"">3215244</Frequency><Timestamp dt:dt=""r8"">7134363735693</Timestamp><Current dt:dt=""r8"">0</Current><DateUtc dt:dt=""string"">2018-10-17T17:15:20Z</DateUtc></FrequencyChange></FrequencyChanges></Clock>\n",KW_Experiment5A-26-1,59.945,1.0.0.105,1,423675659,Professional,2.0.10.353,2.0.10.353,10/17/2018,10/17/2018 17:15,13:15:20,2.0.10.248,1,1,1,1,,,,,,,,PracticeProc,BlockList,4,1,Distractor2.bmp,2,0,,0,1,55030,601,,0,0,blue,600,3,600,3,vertical,lime,Target1.bmp,yellow,Distractor2.bmp,cyan,Distractor1.bmp,purple,Distractor1.bmp,red,Distractor1.bmp,blue,Distractor2.bmp,1,1,4,TrialProc,,PracticeTrialList,1,1,-999999,1,55631,0,1,790,56421,Target1.bmp,lime,1,,,,,,
KW_Experiment5A,26,1,"<?xml version=""1.0""?>\n<Clock xmlns:dt=""urn:schemas-microsoft-com:datatypes""><Description dt:dt=""string"">E-Prime Primary Realtime Clock</Description><StartTime><Timestamp dt:dt=""int"">0</Timestamp><DateUtc dt:dt=""string"">2018-10-17T17:15:20Z</DateUtc></StartTime><FrequencyChanges><FrequencyChange><Frequency dt:dt=""r8"">3215244</Frequency><Timestamp dt:dt=""r8"">7134363735693</Timestamp><Current dt:dt=""r8"">0</Current><DateUtc dt:dt=""string"">2018-10-17T17:15:20Z</DateUtc></FrequencyChange></FrequencyChanges></Clock>\n",KW_Experiment5A-26-1,59.945,1.0.0.105,1,423675659,Professional,2.0.10.353,2.0.10.353,10/17/2018,10/17/2018 17:15,13:15:20,2.0.10.248,1,1,1,1,,,,,,,,PracticeProc,BlockList,5,2,Distractor1.bmp,1,0,,0,1,57432,401,,0,0,purple,400,1,400,5,horizontal,yellow,Distractor2.bmp,blue,Distractor1.bmp,red,Distractor1.bmp,purple,Distractor2.bmp,lime,Target2.bmp,cyan,Distractor1.bmp,5,1,5,TrialProc,,PracticeTrialList,0,2,-999999,1,57833,0,1,988,58821,Target2.bmp,lime,2,,,,,,
KW_Experiment5A,26,1,"<?xml version=""1.0""?>\n<Clock xmlns:dt=""urn:schemas-microsoft-com:datatypes""><Description dt:dt=""string"">E-Prime Primary Realtime Clock</Description><StartTime><Timestamp dt:dt=""int"">0</Timestamp><DateUtc dt:dt=""string"">2018-10-17T17:15:20Z</DateUtc></StartTime><FrequencyChanges><FrequencyChange><Frequency dt:dt=""r8"">3215244</Frequency><Timestamp dt:dt=""r8"">7134363735693</Timestamp><Current dt:dt=""r8"">0</Current><DateUtc dt:dt=""string"">2018-10-17T17:15:20Z</DateUtc></FrequencyChange></FrequencyChanges></Clock>\n",KW_Experiment5A-26-1,59.945,1.0.0.105,1,423675659,Professional,2.0.10.353,2.0.10.353,10/17/2018,10/17/2018 17:15,13:15:20,2.0.10.248,1,1,1,1,,,,,,,,PracticeProc,BlockList,6,2,Distractor1.bmp,1,0,,0,1,59835,500,,0,0,lime,500,2,500,,horizontal,blue,Distractor2.bmp,yellow,Distractor2.bmp,lime,Distractor2.bmp,red,Target2.bmp,purple,Distractor1.bmp,cyan,Distractor1.bmp,4,1,6,TrialProc,6,PracticeTrialList,1,2,-999999,0,60335,0,2,846,61181,Target2.bmp,red,2,,,,,,
KW_Experiment5A,26,1,"<?xml version=""1.0""?>\n<Clock xmlns:dt=""urn:schemas-microsoft-com:datatypes""><Description dt:dt=""string"">E-Prime Primary Realtime Clock</Description><StartTime><Timestamp dt:dt=""int"">0</Timestamp><DateUtc dt:dt=""string"">2018-10-17T17:15:20Z</DateUtc></StartTime><FrequencyChanges><FrequencyChange><Frequency dt:dt=""r8"">3215244</Frequency><Timestamp dt:dt=""r8"">7134363735693</Timestamp><Current dt:dt=""r8"">0</Current><DateUtc dt:dt=""string"">2018-10-17T17:15:20Z</DateUtc></FrequencyChange></FrequencyChanges></Clock>\n",KW_Experiment5A-26-1,59.945,1.0.0.105,1,423675659,Professional,2.0.10.353,2.0.10.353,10/17/2018,10/17/2018 17:15,13:15:20,2.0.10.248,2,2,1,2,,,,,,,,TrainingProc,BlockList,1,2,Distractor1.bmp,1,0,,0,28,65673,401,,0,0,yellow,400,1,400,2,horizontal,yellow,Distractor1.bmp,purple,Distractor1.bmp,blue,Distractor2.bmp,red,Distractor1.bmp,cyan,Distractor1.bmp,lime,Target2.bmp,,,,TrialProc,,TrainingTrialList,1,2,-999999,1,66074,0,2,907,66981,Target2.bmp,lime,2,,,,6,1,1
KW_Experiment5A,26,1,"<?xml version=""1.0""?>\n<Clock xmlns:dt=""urn:schemas-microsoft-com:datatypes""><Description dt:dt=""string"">E-Prime Primary Realtime Clock</Description><StartTime><Timestamp dt:dt=""int"">0</Timestamp><DateUtc dt:dt=""string"">2018-10-17T17:15:20Z</DateUtc></StartTime><FrequencyChanges><FrequencyChange><Frequency dt:dt=""r8"">3215244</Frequency><Timestamp dt:dt=""r8"">7134363735693</Timestamp><Current dt:dt=""r8"">0</Current><DateUtc dt:dt=""string"">2018-10-17T17:15:20Z</DateUtc></FrequencyChange></FrequencyChanges></Clock>\n",KW_Experiment5A-26-1,59.945,1.0.0.105,1,423675659,Professional,2.0.10.353,2.0.10.353,10/17/2018,10/17/2018 17:15,13:15:20,2.0.10.248,2,2,1,2,,,,,,,,TrainingProc,BlockList,2,2,Distractor1.bmp,1,0,,0,1,67992,401,,0,0,red,400,1,400,1,horizontal,red,Distractor1.bmp,cyan,Distractor1.bmp,blue,Distractor1.bmp,lime,Target2.bmp,purple,Distractor1.bmp,yellow,Distractor2.bmp,,,,TrialProc,,TrainingTrialList,1,2,-999999,1,68393,0,2,804,69197,Target2.bmp,lime,2,,,,4,1,2
KW_Experiment5A,26,1,"<?xml version=""1.0""?>\n<Clock xmlns:dt=""urn:schemas-microsoft-com:datatypes""><Description dt:dt=""string"">E-Prime Primary Realtime Clock</Description><StartTime><Timestamp dt:dt=""int"">0</Timestamp><DateUtc dt:dt=""string"">2018-10-17T17:15:20Z</DateUtc></StartTime><FrequencyChanges><FrequencyChange><Frequency dt:dt=""r8"">3215244</Frequency><Timestamp dt:dt=""r8"">7134363735693</Timestamp><Current dt:dt=""r8"">0</Current><DateUtc dt:dt=""string"">2018-10-17T17:15:20Z</DateUtc></FrequencyChange></FrequencyChanges></Clock>\n",KW_Experiment5A-26-1,59.945,1.0.0.105,1,423675659,Professional,2.0.10.353,2.0.10.353,10/17/2018,10/17/2018 17:15,13:15:20,2.0.10.248,2,2,1,2,,,,,,,,TrainingProc,BlockList,3,1,Distractor2.bmp,2,0,,0,1,70211,400,,0,0,purple,400,1,400,,vertical,purple,Distractor2.bmp,cyan,Distractor2.bmp,blue,Distractor2.bmp,red,Target1.bmp,yellow,Distractor2.bmp,lime,Distractor2.bmp,,,,TrialProc,5,TrainingTrialList,1,1,-999999,0,70611,0,1,666,71277,Target1.bmp,red,1,,,,10,1,3
KW_Experiment5A,26,1,"<?xml version=""1.0""?>\n<Clock xmlns:dt=""urn:schemas-microsoft-com:datatypes""><Description dt:dt=""string"">E-Prime Primary Realtime Clock</Description><StartTime><Timestamp dt:dt=""int"">0</Timestamp><DateUtc dt:dt=""string"">2018-10-17T17:15:20Z</DateUtc></StartTime><FrequencyChanges><FrequencyChange><Frequency dt:dt=""r8"">3215244</Frequency><Timestamp dt:dt=""r8"">7134363735693</Timestamp><Current dt:dt=""r8"">0</Current><DateUtc dt:dt=""string"">2018-10-17T17:15:20Z</DateUtc></FrequencyChange></FrequencyChanges></Clock>\n",KW_Experiment5A-26-1,59.945,1.0.0.105,1,423675659,Professional,2.0.10.353,2.0.10.353,10/17/2018,10/17/2018 17:15,13:15:20,2.0.10.248,2,2,1,2,,,,,,,,TrainingProc,BlockList,4,1,Distractor1.bmp,1,0,,0,1,72296,601,,0,0,blue,600,3,600,3,vertical,blue,Distractor2.bmp,red,Distractor2.bmp,yellow,Distractor2.bmp,cyan,Distractor2.bmp,lime,Target1.bmp,purple,Distractor1.bmp,,,,TrialProc,,TrainingTrialList,1,1,-999999,1,72897,0,1,780,73677,Target1.bmp,lime,1,,,,5,1,4
KW_Experiment5A,26,1,"<?xml version=""1.0""?>\n<Clock xmlns:dt=""urn:schemas-microsoft-com:datatypes""><Description dt:dt=""string"">E-Prime Primary Realtime Clock</Description><StartTime><Timestamp dt:dt=""int"">0</Timestamp><DateUtc dt:dt=""string"">2018-10-17T17:15:20Z</DateUtc></StartTime><FrequencyChanges><FrequencyChange><Frequency dt:dt=""r8"">3215244</Frequency><Timestamp dt:dt=""r8"">7134363735693</Timestamp><Current dt:dt=""r8"">0</Current><DateUtc dt:dt=""string"">2018-10-17T17:15:20Z</DateUtc></FrequencyChange></FrequencyChanges></Clock>\n",KW_Experiment5A-26-1,59.945,1.0.0.105,1,423675659,Professional,2.0.10.353,2.0.10.353,10/17/2018,10/17/2018 17:15,13:15:20,2.0.10.248,2,2,1,2,,,,,,,,TrainingProc,BlockList,5,1,Distractor2.bmp,2,0,,0,1,74698,501,,0,0,cyan,500,2,500,,vertical,cyan,Distractor2.bmp,blue,Distractor2.bmp,red,Target1.bmp,lime,Distractor2.bmp,yellow,Distractor1.bmp,purple,Distractor1.bmp,,,,TrialProc,4,TrainingTrialList,1,1,-999999,1,75199,0,1,1070,76269,Target1.bmp,red,1,,,,9,1,5
KW_Experiment5A,26,1,"<?xml version=""1.0""?>\n<Clock xmlns:dt=""urn:schemas-microsoft-com:datatypes""><Description dt:dt=""string"">E-Prime Primary Realtime Clock</Description><StartTime><Timestamp dt:dt=""int"">0</Timestamp><DateUtc dt:dt=""string"">2018-10-17T17:15:20Z</DateUtc></StartTime><FrequencyChanges><FrequencyChange><Frequency dt:dt=""r8"">3215244</Frequency><Timestamp dt:dt=""r8"">7134363735693</Timestamp><Current dt:dt=""r8"">0</Current><DateUtc dt:dt=""string"">2018-10-17T17:15:20Z</DateUtc></FrequencyChange></FrequencyChanges></Clock>\n",KW_Experiment5A-26-1,59.945,1.0.0.105,1,423675659,Professional,2.0.10.353,2.0.10.353,10/17/2018,10/17/2018 17:15,13:15:20,2.0.10.248,2,2,1,2,,,,,,,,TrainingProc,BlockList,6,2,Distractor2.bmp,2,0,,0,1,77284,601,,0,0,red,600,3,600,1,horizontal,red,Distractor1.bmp,cyan,Distractor2.bmp,lime,Target2.bmp,blue,Distractor2.bmp,yellow,Distractor2.bmp,purple,Distractor1.bmp,,,,TrialProc,,TrainingTrialList,1,2,-999999,1,77885,0,2,680,78565,Target2.bmp,lime,2,,,,3,1,6
KW_Experiment5A,26,1,"<?xml version=""1.0""?>\n<Clock xmlns:dt=""urn:schemas-microsoft-com:datatypes""><Description dt:dt=""string"">E-Prime Primary Realtime Clock</Description><StartTime><Timestamp dt:dt=""int"">0</Timestamp><DateUtc dt:dt=""string"">2018-10-17T17:15:20Z</DateUtc></StartTime><FrequencyChanges><FrequencyChange><Frequency dt:dt=""r8"">3215244</Frequency><Timestamp dt:dt=""r8"">7134363735693</Timestamp><Current dt:dt=""r8"">0</Current><DateUtc dt:dt=""string"">2018-10-17T17:15:20Z</DateUtc></FrequencyChange></FrequencyChanges></Clock>\n",KW_Experiment5A-26-1,59.945,1.0.0.105,1,423675659,Professional,2.0.10.353,2.0.10.353,10/17/2018,10/17/2018 17:15,13:15:20,2.0.10.248,2,2,1,2,,,,,,,,TrainingProc,BlockList,7,2,Distractor1.bmp,1,0,,0,1,79586,400,,0,0,red,400,1,400,1,horizontal,red,Distractor1.bmp,lime,Target2.bmp,purple,Distractor1.bmp,cyan,Distractor2.bmp,blue,Distractor2.bmp,yellow,Distractor1.bmp,,,,TrialProc,,TrainingTrialList,1,2,-999999,0,79986,0,2,587,80573,Target2.bmp,lime,2,,,,2,1,7
KW_Experiment5A,26,1,"<?xml version=""1.0""?>\n<Clock xmlns:dt=""urn:schemas-microsoft-com:datatypes""><Description dt:dt=""string"">E-Prime Primary Realtime Clock</Description><StartTime><Timestamp dt:dt=""int"">0</Timestamp><DateUtc dt:dt=""string"">2018-10-17T17:15:20Z</DateUtc></StartTime><FrequencyChanges><FrequencyChange><Frequency dt:dt=""r8"">3215244</Frequency><Timestamp dt:dt=""r8"">7134363735693</Timestamp><Current dt:dt=""r8"">0</Current><DateUtc dt:dt=""string"">2018-10-17T17:15:20Z</DateUtc></FrequencyChange></FrequencyChanges></Clock>\n",KW_Experiment5A-26-1,59.945,1.0.0.105,1,423675659,Professional,2.0.10.353,2.0.10.353,10/17/2018,10/17/2018 17:15,13:15:20,2.0.10.248,2,2,1,2,,,,,,,,TrainingProc,BlockList,8,2,Distractor2.bmp,2,0,,0,1,81588,400,,0,0,yellow,400,1,400,2,horizontal,lime,Target2.bmp,yellow,Distractor2.bmp,cyan,Distractor2.bmp,purple,Distractor2.bmp,red,Distractor1.bmp,blue,Distractor1.bmp,,,,TrialProc,,TrainingTrialList,1,2,-999999,0,81988,0,2,521,82509,Target2.bmp,lime,2,,,,1,1,8
KW_Experiment5A,26,1,"<?xml version=""1.0""?>\n<Clock xmlns:dt=""urn:schemas-microsoft-com:datatypes""><Description dt:dt=""string"">E-Prime Primary Realtime Clock</Description><StartTime><Timestamp dt:dt=""int"">0</Timestamp><DateUtc dt:dt=""string"">2018-10-17T17:15:20Z</DateUtc></StartTime><FrequencyChanges><FrequencyChange><Frequency dt:dt=""r8"">3215244</Frequency><Timestamp dt:dt=""r8"">7134363735693</Timestamp><Current dt:dt=""r8"">0</Current><DateUtc dt:dt=""string"">2018-10-17T17:15:20Z</DateUtc></FrequencyChange></FrequencyChanges></Clock>\n",KW_Experiment5A-26-1,59.945,1.0.0.105,1,423675659,Professional,2.0.10.353,2.0.10.353,10/17/2018,10/17/2018 17:15,13:15:20,2.0.10.248,2,2,1,2,,,,,,,,TrainingProc,BlockList,9,2,Distractor2.bmp,2,0,,0,1,83523,601,,0,0,red,600,3,600,1,horizontal,red,Distractor2.bmp,blue,Distractor1.bmp,purple,Distractor1.bmp,yellow,Distractor2.bmp,lime,Target2.bmp,cyan,Distractor2.bmp,,,,TrialProc,,TrainingTrialList,1,2,-999999,1,84124,0,2,977,85101,Target2.bmp,lime,2,,,,5,1,9
KW_Experiment5A,26,1,"<?xml version=""1.0""?>\n<Clock xmlns:dt=""urn:schemas-microsoft-com:datatypes""><Description dt:dt=""string"">E-Prime Primary Realtime Clock</Description><StartTime><Timestamp dt:dt=""int"">0</Timestamp><DateUtc dt:dt=""string"">2018-10-17T17:15:20Z</DateUtc></StartTime><FrequencyChanges><FrequencyChange><Frequency dt:dt=""r8"">3215244</Frequency><Timestamp dt:dt=""r8"">7134363735693</Timestamp><Current dt:dt=""r8"">0</Current><DateUtc dt:dt=""string"">2018-10-17T17:15:20Z</DateUtc></FrequencyChange></FrequencyChanges></Clock>\n",KW_Experiment5A-26-1,59.945,1.0.0.105,1,423675659,Professional,2.0.10.353,2.0.10.353,10/17/2018,10/17/2018 17:15,13:15:20,2.0.10.248,2,2,1,2,,,,,,,,TrainingProc,BlockList,10,2,Distractor2.bmp,2,0,,1,0,86125,601,,0,0,purple,600,3,600,,horizontal,purple,Distractor2.bmp,lime,Distractor2.bmp,cyan,Distractor2.bmp,blue,Distractor2.bmp,yellow,Distractor1.bmp,red,Target2.bmp,,,,TrialProc,5,TrainingTrialList,1,2,-999999,1,86726,0,2,743,87469,Target2.bmp,red,2,,,,12,1,10
KW_Experiment5A,26,1,"<?xml version=""1.0""?>\n<Clock xmlns:dt=""urn:schemas-microsoft-com:datatypes""><Description dt:dt=""string"">E-Prime Primary Realtime Clock</Description><StartTime><Timestamp dt:dt=""int"">0</Timestamp><DateUtc dt:dt=""string"">2018-10-17T17:15:20Z</DateUtc></StartTime><FrequencyChanges><FrequencyChange><Frequency dt:dt=""r8"">3215244</Frequency><Timestamp dt:dt=""r8"">7134363735693</Timestamp><Current dt:dt=""r8"">0</Current><DateUtc dt:dt=""string"">2018-10-17T17:15:20Z</DateUtc></FrequencyChange></FrequencyChanges></Clock>\n",KW_Experiment5A-26-1,59.945,1.0.0.105,1,423675659,Professional,2.0.10.353,2.0.10.353,10/17/2018,10/17/2018 17:15,13:15:20,2.0.10.248,2,2,1,2,,,,,,,,TrainingProc,BlockList,11,2,Distractor1.bmp,1,0,,0,1,88494,501,,0,0,cyan,500,2,500,4,horizontal,cyan,Distractor2.bmp,red,Distractor1.bmp,lime,Target2.bmp,blue,Distractor1.bmp,yellow,Distractor2.bmp,purple,Distractor1.bmp,,,,TrialProc,,TrainingTrialList,0,2,-999999,1,88995,0,1,810,89805,Target2.bmp,lime,2,,,,3,1,11
KW_Experiment5A,26,1,"<?xml version=""1.0""?>\n<Clock xmlns:dt=""urn:schemas-microsoft-com:datatypes""><Description dt:dt=""string"">E-Prime Primary Realtime Clock</Description><StartTime><Timestamp dt:dt=""int"">0</Timestamp><DateUtc dt:dt=""string"">2018-10-17T17:15:20Z</DateUtc></StartTime><FrequencyChanges><FrequencyChange><Frequency dt:dt=""r8"">3215244</Frequency><Timestamp dt:dt=""r8"">7134363735693</Timestamp><Current dt:dt=""r8"">0</Current><DateUtc dt:dt=""string"">2018-10-17T17:15:20Z</DateUtc></FrequencyChange></FrequencyChanges></Clock>\n",KW_Experiment5A-26-1,59.945,1.0.0.105,1,423675659,Professional,2.0.10.353,2.0.10.353,10/17/2018,10/17/2018 17:15,13:15:20,2.0.10.248,2,2,1,2,,,,,,,,TrainingProc,BlockList,12,1,Distractor1.bmp,1,0,,0,1,90830,400,,0,0,yellow,400,1,400,2,vertical,yellow,Distractor2.bmp,cyan,Distractor1.bmp,purple,Distractor1.bmp,blue,Distractor1.bmp,lime,Target1.bmp,red,Distractor1.bmp,,,,TrialProc,,TrainingTrialList,1,1,-999999,0,91230,0,1,783,92013,Target1.bmp,lime,1,,,,5,1,12
KW_Experiment5A,26,1,"<?xml version=""1.0""?>\n<Clock xmlns:dt=""urn:schemas-microsoft-com:datatypes""><Description dt:dt=""string"">E-Prime Primary Realtime Clock</Description><StartTime><Timestamp dt:dt=""int"">0</Timestamp><DateUtc dt:dt=""string"">2018-10-17T17:15:20Z</DateUtc></StartTime><FrequencyChanges><FrequencyChange><Frequency dt:dt=""r8"">3215244</Frequency><Timestamp dt:dt=""r8"">7134363735693</Timestamp><Current dt:dt=""r8"">0</Current><DateUtc dt:dt=""string"">2018-10-17T17:15:20Z</DateUtc></FrequencyChange></FrequencyChanges></Clock>\n",KW_Experiment5A-26-1,59.945,1.0.0.105,1,423675659,Professional,2.0.10.353,2.0.10.353,10/17/2018,10/17/2018 17:15,13:15:20,2.0.10.248,2,2,1,2,,,,,,,,TrainingProc,BlockList,13,2,Distractor1.bmp,1,0,,0,1,93032,600,,0,0,yellow,600,3,600,2,horizontal,yellow,Distractor2.bmp,cyan,Distractor1.bmp,lime,Target2.bmp,red,Distractor1.bmp,blue,Distractor1.bmp,purple,Distractor1.bmp,,,,TrialProc,,TrainingTrialList,1,2,-999999,0,93632,0,2,765,94397,Target2.bmp,lime,2,,,,3,1,13
KW_Experiment5A,26,1,"<?xml version=""1.0""?>\n<Clock xmlns:dt=""urn:schemas-microsoft-com:datatypes""><Description dt:dt=""string"">E-Prime Primary Realtime Clock</Description><StartTime><Timestamp dt:dt=""int"">0</Timestamp><DateUtc dt:dt=""string"">2018-10-17T17:15:20Z</DateUtc></StartTime><FrequencyChanges><FrequencyChange><Frequency dt:dt=""r8"">3215244</Frequency><Timestamp dt:dt=""r8"">7134363735693</Timestamp><Current dt:dt=""r8"">0</Current><DateUtc dt:dt=""string"">2018-10-17T17:15:20Z</DateUtc></FrequencyChange></FrequencyChanges></Clock>\n",KW_Experiment5A-26-1,59.945,1.0.0.105,1,423675659,Professional,2.0.10.353,2.0.10.353,10/17/2018,10/17/2018 17:15,13:15:20,2.0.10.248,2,2,1,2,,,,,,,,TrainingProc,BlockList,14,2,Distractor1.bmp,1,0,,0,1,95417,601,,0,0,yellow,600,3,600,,horizontal,red,Target2.bmp,cyan,Distractor1.bmp,blue,Distractor1.bmp,purple,Distractor2.bmp,lime,Distractor2.bmp,yellow,Distractor2.bmp,,,,TrialProc,2,TrainingTrialList,1,2,-999999,1,96018,0,2,667,96685,Target2.bmp,red,2,,,,7,1,14
KW_Experiment5A,26,1,"<?xml version=""1.0""?>\n<Clock xmlns:dt=""urn:schemas-microsoft-com:datatypes""><Description dt:dt=""string"">E-Prime Primary Realtime Clock</Description><StartTime><Timestamp dt:dt=""int"">0</Timestamp><DateUtc dt:dt=""string"">2018-10-17T17:15:20Z</DateUtc></StartTime><FrequencyChanges><FrequencyChange><Frequency dt:dt=""r8"">3215244</Frequency><Timestamp dt:dt=""r8"">7134363735693</Timestamp><Current dt:dt=""r8"">0</Current><DateUtc dt:dt=""string"">2018-10-17T17:15:20Z</DateUtc></FrequencyChange></FrequencyChanges></Clock>\n",KW_Experiment5A-26-1,59.945,1.0.0.105,1,423675659,Professional,2.0.10.353,2.0.10.353,10/17/2018,10/17/2018 17:15,13:15:20,2.0.10.248,2,2,1,2,,,,,,,,TrainingProc,BlockList,15,1,Distractor1.bmp,1,0,,0,1,97703,600,,0,0,cyan,600,3,600,,vertical,cyan,Distractor1.bmp,red,Target1.bmp,purple,Distractor1.bmp,lime,Distractor1.bmp,yellow,Distractor2.bmp,blue,Distractor1.bmp,,,,TrialProc,4,TrainingTrialList,1,1,-999999,0,98303,0,1,622,98925,Target1.bmp,red,1,,,,8,1,15
KW_Experiment5A,26,1,"<?xml version=""1.0""?>\n<Clock xmlns:dt=""urn:schemas-microsoft-com:datatypes""><Description dt:dt=""string"">E-Prime Primary Realtime Clock</Description><StartTime><Timestamp dt:dt=""int"">0</Timestamp><DateUtc dt:dt=""string"">2018-10-17T17:15:20Z</DateUtc></StartTime><FrequencyChanges><FrequencyChange><Frequency dt:dt=""r8"">3215244</Frequency><Timestamp dt:dt=""r8"">7134363735693</Timestamp><Current dt:dt=""r8"">0</Current><DateUtc dt:dt=""string"">2018-10-17T17:15:20Z</DateUtc></FrequencyChange></FrequencyChanges></Clock>\n",KW_Experiment5A-26-1,59.945,1.0.0.105,1,423675659,Professional,2.0.10.353,2.0.10.353,10/17/2018,10/17/2018 17:15,13:15:20,2.0.10.248,2,2,1,2,,,,,,,,TrainingProc,BlockList,16,1,Distractor1.bmp,1,0,,0,1,99938,601,,0,0,yellow,600,3,600,2,vertical,lime,Target1.bmp,yellow,Distractor1.bmp,blue,Distractor2.bmp,purple,Distractor1.bmp,red,Distractor1.bmp,cyan,Distractor1.bmp,,,,TrialProc,,TrainingTrialList,1,1,-999999,1,100539,0,1,610,101149,Target1.bmp,lime,1,,,,1,1,16
KW_Experiment5A,26,1,"<?xml version=""1.0""?>\n<Clock xmlns:dt=""urn:schemas-microsoft-com:datatypes""><Description dt:dt=""string"">E-Prime Primary Realtime Clock</Description><StartTime><Timestamp dt:dt=""int"">0</Timestamp><DateUtc dt:dt=""string"">2018-10-17T17:15:20Z</DateUtc></StartTime><FrequencyChanges><FrequencyChange><Frequency dt:dt=""r8"">3215244</Frequency><Timestamp dt:dt=""r8"">7134363735693</Timestamp><Current dt:dt=""r8"">0</Current><DateUtc dt:dt=""string"">2018-10-17T17:15:20Z</DateUtc></FrequencyChange></FrequencyChanges></Clock>\n",KW_Experiment5A-26-1,59.945,1.0.0.105,1,423675659,Professional,2.0.10.353,2.0.10.353,10/17/2018,10/17/2018 17:15,13:15:20,2.0.10.248,2,2,1,2,,,,,,,,TrainingProc,BlockList,17,2,Distractor2.bmp,2,0,,0,1,102174,400,,0,0,yellow,400,1,400,2,horizontal,lime,Target2.bmp,yellow,Distractor2.bmp,blue,Distractor2.bmp,cyan,Distractor2.bmp,purple,Distractor1.bmp,red,Distractor1.bmp,,,,TrialProc,,TrainingTrialList,1,2,-999999,0,102574,0,2,671,103245,Target2.bmp,lime,2,,,,1,1,17
KW_Experiment5A,26,1,"<?xml version=""1.0""?>\n<Clock xmlns:dt=""urn:schemas-microsoft-com:datatypes""><Description dt:dt=""string"">E-Prime Primary Realtime Clock</Description><StartTime><Timestamp dt:dt=""int"">0</Timestamp><DateUtc dt:dt=""string"">2018-10-17T17:15:20Z</DateUtc></StartTime><FrequencyChanges><FrequencyChange><Frequency dt:dt=""r8"">3215244</Frequency><Timestamp dt:dt=""r8"">7134363735693</Timestamp><Current dt:dt=""r8"">0</Current><DateUtc dt:dt=""string"">2018-10-17T17:15:20Z</DateUtc></FrequencyChange></FrequencyChanges></Clock>\n",KW_Experiment5A-26-1,59.945,1.0.0.105,1,423675659,Professional,2.0.10.353,2.0.10.353,10/17/2018,10/17/2018 17:15,13:15:20,2.0.10.248,2,2,1,2,,,,,,,,TrainingProc,BlockList,18,1,Distractor2.bmp,2,0,,0,1,104259,500,,0,0,yellow,500,2,500,2,vertical,yellow,Distractor2.bmp,purple,Distractor1.bmp,blue,Distractor1.bmp,red,Distractor1.bmp,cyan,Distractor1.bmp,lime,Target1.bmp,,,,TrialProc,,TrainingTrialList,1,1,-999999,0,104759,0,1,534,105293,Target1.bmp,lime,1,,,,6,1,18
KW_Experiment5A,26,1,"<?xml version=""1.0""?>\n<Clock xmlns:dt=""urn:schemas-microsoft-com:datatypes""><Description dt:dt=""string"">E-Prime Primary Realtime Clock</Description><StartTime><Timestamp dt:dt=""int"">0</Timestamp><DateUtc dt:dt=""string"">2018-10-17T17:15:20Z</DateUtc></StartTime><FrequencyChanges><FrequencyChange><Frequency dt:dt=""r8"">3215244</Frequency><Timestamp dt:dt=""r8"">7134363735693</Timestamp><Current dt:dt=""r8"">0</Current><DateUtc dt:dt=""string"">2018-10-17T17:15:20Z</DateUtc></FrequencyChange></FrequencyChanges></Clock>\n",KW_Experiment5A-26-1,59.945,1.0.0.105,1,423675659,Professional,2.0.10.353,2.0.10.353,10/17/2018,10/17/2018 17:15,13:15:20,2.0.10.248,2,2,1,2,,,,,,,,TrainingProc,BlockList,19,2,Distractor1.bmp,1,0,,0,1,106311,600,,0,0,yellow,600,3,600,,horizontal,yellow,Distractor1.bmp,lime,Distractor1.bmp,blue,Distractor2.bmp,cyan,Distractor2.bmp,red,Target2.bmp,purple,Distractor1.bmp,,,,TrialProc,2,TrainingTrialList,0,2,-999999,0,106911,0,1,926,107837,Target2.bmp,red,2,,,,11,1,19
KW_Experiment5A,26,1,"<?xml version=""1.0""?>\n<Clock xmlns:dt=""urn:schemas-microsoft-com:datatypes""><Description dt:dt=""string"">E-Prime Primary Realtime Clock</Description><StartTime><Timestamp dt:dt=""int"">0</Timestamp><DateUtc dt:dt=""string"">2018-10-17T17:15:20Z</DateUtc></StartTime><FrequencyChanges><FrequencyChange><Frequency dt:dt=""r8"">3215244</Frequency><Timestamp dt:dt=""r8"">7134363735693</Timestamp><Current dt:dt=""r8"">0</Current><DateUtc dt:dt=""string"">2018-10-17T17:15:20Z</DateUtc></FrequencyChange></FrequencyChanges></Clock>\n",KW_Experiment5A-26-1,59.945,1.0.0.105,1,423675659,Professional,2.0.10.353,2.0.10.353,10/17/2018,10/17/2018 17:15,13:15:20,2.0.10.248,2,2,1,2,,,,,,,,TrainingProc,BlockList,20,1,Distractor1.bmp,1,0,,0,1,108863,401,,0,0,red,400,1,400,1,vertical,red,Distractor1.bmp,lime,Target1.bmp,cyan,Distractor1.bmp,blue,Distractor2.bmp,purple,Distractor1.bmp,yellow,Distractor2.bmp,,,,TrialProc,,TrainingTrialList,1,1,-999999,1,109264,0,1,733,109997,Target1.bmp,lime,1,,,,2,1,20
KW_Experiment5A,26,1,"<?xml version=""1.0""?>\n<Clock xmlns:dt=""urn:schemas-microsoft-com:datatypes""><Description dt:dt=""string"">E-Prime Primary Realtime Clock</Description><StartTime><Timestamp dt:dt=""int"">0</Timestamp><DateUtc dt:dt=""string"">2018-10-17T17:15:20Z</DateUtc></StartTime><FrequencyChanges><FrequencyChange><Frequency dt:dt=""r8"">3215244</Frequency><Timestamp dt:dt=""r8"">7134363735693</Timestamp><Current dt:dt=""r8"">0</Current><DateUtc dt:dt=""string"">2018-10-17T17:15:20Z</DateUtc></FrequencyChange></FrequencyChanges></Clock>\n",KW_Experiment5A-26-1,59.945,1.0.0.105,1,423675659,Professional,2.0.10.353,2.0.10.353,10/17/2018,10/17/2018 17:15,13:15:20,2.0.10.248,2,2,1,2,,,,,,,,TrainingProc,BlockList,21,2,Distractor1.bmp,1,0,,0,1,111015,400,,0,0,blue,400,1,400,3,horizontal,blue,Distractor2.bmp,yellow,Distractor1.bmp,purple,Distractor2.bmp,lime,Target2.bmp,cyan,Distractor1.bmp,red,Distractor2.bmp,,,,TrialProc,,TrainingTrialList,1,2,-999999,0,111415,0,2,1006,112421,Target2.bmp,lime,2,,,,4,1,21
KW_Experiment5A,26,1,"<?xml version=""1.0""?>\n<Clock xmlns:dt=""urn:schemas-microsoft-com:datatypes""><Description dt:dt=""string"">E-Prime Primary Realtime Clock</Description><StartTime><Timestamp dt:dt=""int"">0</Timestamp><DateUtc dt:dt=""string"">2018-10-17T17:15:20Z</DateUtc></StartTime><FrequencyChanges><FrequencyChange><Frequency dt:dt=""r8"">3215244</Frequency><Timestamp dt:dt=""r8"">7134363735693</Timestamp><Current dt:dt=""r8"">0</Current><DateUtc dt:dt=""string"">2018-10-17T17:15:20Z</DateUtc></FrequencyChange></FrequencyChanges></Clock>\n",KW_Experiment5A-26-1,59.945,1.0.0.105,1,423675659,Professional,2.0.10.353,2.0.10.353,10/17/2018,10/17/2018 17:15,13:15:20,2.0.10.248,2,2,1,2,,,,,,,,TrainingProc,BlockList,22,1,Distractor2.bmp,2,0,,0,1,113434,400,,0,0,cyan,400,1,400,4,vertical,cyan,Distractor1.bmp,blue,Distractor2.bmp,yellow,Distractor1.bmp,lime,Target1.bmp,purple,Distractor2.bmp,red,Distractor1.bmp,,,,TrialProc,,TrainingTrialList,1,1,-999999,0,113834,0,1,659,114493,Target1.bmp,lime,1,,,,4,1,22
KW_Experiment5A,26,1,"<?xml version=""1.0""?>\n<Clock xmlns:dt=""urn:schemas-microsoft-com:datatypes""><Description dt:dt=""string"">E-Prime Primary Realtime Clock</Description><StartTime><Timestamp dt:dt=""int"">0</Timestamp><DateUtc dt:dt=""string"">2018-10-17T17:15:20Z</DateUtc></StartTime><FrequencyChanges><FrequencyChange><Frequency dt:dt=""r8"">3215244</Frequency><Timestamp dt:dt=""r8"">7134363735693</Timestamp><Current dt:dt=""r8"">0</Current><DateUtc dt:dt=""string"">2018-10-17T17:15:20Z</DateUtc></FrequencyChange></FrequencyChanges></Clock>\n",KW_Experiment5A-26-1,59.945,1.0.0.105,1,423675659,Professional,2.0.10.353,2.0.10.353,10/17/2018,10/17/2018 17:15,13:15:20,2.0.10.248,2,2,1,2,,,,,,,,TrainingProc,BlockList,23,2,Distractor2.bmp,2,0,,0,1,115503,400,,0,0,red,400,1,400,1,horizontal,red,Distractor2.bmp,lime,Target2.bmp,cyan,Distractor2.bmp,purple,Distractor2.bmp,blue,Distractor2.bmp,yellow,Distractor2.bmp,,,,TrialProc,,TrainingTrialList,1,2,-999999,0,115903,0,2,526,116429,Target2.bmp,lime,2,,,,2,1,23
KW_Experiment5A,26,1,"<?xml version=""1.0""?>\n<Clock xmlns:dt=""urn:schemas-microsoft-com:datatypes""><Description dt:dt=""string"">E-Prime Primary Realtime Clock</Description><StartTime><Timestamp dt:dt=""int"">0</Timestamp><DateUtc dt:dt=""string"">2018-10-17T17:15:20Z</DateUtc></StartTime><FrequencyChanges><FrequencyChange><Frequency dt:dt=""r8"">3215244</Frequency><Timestamp dt:dt=""r8"">7134363735693</Timestamp><Current dt:dt=""r8"">0</Current><DateUtc dt:dt=""string"">2018-10-17T17:15:20Z</DateUtc></FrequencyChange></FrequencyChanges></Clock>\n",KW_Experiment5A-26-1,59.945,1.0.0.105,1,423675659,Professional,2.0.10.353,2.0.10.353,10/17/2018,10/17/2018 17:15,13:15:20,2.0.10.248,2,2,1,2,,,,,,,,TrainingProc,BlockList,24,2,Distractor1.bmp,1,0,,0,1,117454,401,,0,0,red,400,1,400,1,horizontal,red,Distractor1.bmp,purple,Distractor1.bmp,blue,Distractor1.bmp,yellow,Distractor1.bmp,cyan,Distractor1.bmp,lime,Target2.bmp,,,,TrialProc,,TrainingTrialList,1,2,-999999,1,117855,0,2,542,118397,Target2.bmp,lime,2,,,,6,1,24
KW_Experiment5A,26,1,"<?xml version=""1.0""?>\n<Clock xmlns:dt=""urn:schemas-microsoft-com:datatypes""><Description dt:dt=""string"">E-Prime Primary Realtime Clock</Description><StartTime><Timestamp dt:dt=""int"">0</Timestamp><DateUtc dt:dt=""string"">2018-10-17T17:15:20Z</DateUtc></StartTime><FrequencyChanges><FrequencyChange><Frequency dt:dt=""r8"">3215244</Frequency><Timestamp dt:dt=""r8"">7134363735693</Timestamp><Current dt:dt=""r8"">0</Current><DateUtc dt:dt=""string"">2018-10-17T17:15:20Z</DateUtc></FrequencyChange></FrequencyChanges></Clock>\n",KW_Experiment5A-26-1,59.945,1.0.0.105,1,423675659,Professional,2.0.10.353,2.0.10.353,10/17/2018,10/17/2018 17:15,13:15:20,2.0.10.248,2,2,1,2,,,,,,,,TrainingProc,BlockList,25,1,Distractor1.bmp,1,0,,0,1,119406,401,,0,0,cyan,400,1,400,,vertical,cyan,Distractor1.bmp,purple,Distractor2.bmp,red,Target1.bmp,blue,Distractor1.bmp,lime,Distractor1.bmp,yellow,Distractor2.bmp,,,,TrialProc,4,TrainingTrialList,1,1,-999999,1,119807,0,1,678,120485,Target1.bmp,red,1,,,,9,2,25
KW_Experiment5A,26,1,"<?xml version=""1.0""?>\n<Clock xmlns:dt=""urn:schemas-microsoft-com:datatypes""><Description dt:dt=""string"">E-Prime Primary Realtime Clock</Description><StartTime><Timestamp dt:dt=""int"">0</Timestamp><DateUtc dt:dt=""string"">2018-10-17T17:15:20Z</DateUtc></StartTime><FrequencyChanges><FrequencyChange><Frequency dt:dt=""r8"">3215244</Frequency><Timestamp dt:dt=""r8"">7134363735693</Timestamp><Current dt:dt=""r8"">0</Current><DateUtc dt:dt=""string"">2018-10-17T17:15:20Z</DateUtc></FrequencyChange></FrequencyChanges></Clock>\n",KW_Experiment5A-26-1,59.945,1.0.0.105,1,423675659,Professional,2.0.10.353,2.0.10.353,10/17/2018,10/17/2018 17:15,13:15:20,2.0.10.248,2,2,1,2,,,,,,,,TrainingProc,BlockList,26,2,Distractor1.bmp,1,0,,0,1,121508,501,,0,0,red,500,2,500,1,horizontal,red,Distractor1.bmp,blue,Distractor2.bmp,cyan,Distractor2.bmp,yellow,Distractor2.bmp,purple,Distractor2.bmp,lime,Target2.bmp,,,,TrialProc,,TrainingTrialList,1,2,-999999,1,122009,0,2,531,122540,Target2.bmp,lime,2,,,,6,2,26
KW_Experiment5A,26,1,"<?xml version=""1.0""?>\n<Clock xmlns:dt=""urn:schemas-microsoft-com:datatypes""><Description dt:dt=""string"">E-Prime Primary Realtime Clock</Description><StartTime><Timestamp dt:dt=""int"">0</Timestamp><DateUtc dt:dt=""string"">2018-10-17T17:15:20Z</DateUtc></StartTime><FrequencyChanges><FrequencyChange><Frequency dt:dt=""r8"">3215244</Frequency><Timestamp dt:dt=""r8"">7134363735693</Timestamp><Current dt:dt=""r8"">0</Current><DateUtc dt:dt=""string"">2018-10-17T17:15:20Z</DateUtc></FrequencyChange></FrequencyChanges></Clock>\n",KW_Experiment5A-26-1,59.945,1.0.0.105,1,423675659,Professional,2.0.10.353,2.0.10.353,10/17/2018,10/17/2018 17:15,13:15:20,2.0.10.248,2,2,1,2,,,,,,,,TrainingProc,BlockList,27,2,Distractor1.bmp,1,0,,0,1,123560,400,,0,0,yellow,400,1,400,,horizontal,yellow,Distractor1.bmp,blue,Distractor2.bmp,purple,Distractor1.bmp,red,Target2.bmp,lime,Distractor1.bmp,cyan,Distractor2.bmp,,,,TrialProc,2,TrainingTrialList,1,2,-999999,0,123960,0,2,652,124612,Target2.bmp,red,2,,,,10,2,27
KW_Experiment5A,26,1,"<?xml version=""1.0""?>\n<Clock xmlns:dt=""urn:schemas-microsoft-com:datatypes""><Description dt:dt=""string"">E-Prime Primary Realtime Clock</Description><StartTime><Timestamp dt:dt=""int"">0</Timestamp><DateUtc dt:dt=""string"">2018-10-17T17:15:20Z</DateUtc></StartTime><FrequencyChanges><FrequencyChange><Frequency dt:dt=""r8"">3215244</Frequency><Timestamp dt:dt=""r8"">7134363735693</Timestamp><Current dt:dt=""r8"">0</Current><DateUtc dt:dt=""string"">2018-10-17T17:15:20Z</DateUtc></FrequencyChange></FrequencyChanges></Clock>\n",KW_Experiment5A-26-1,59.945,1.0.0.105,1,423675659,Professional,2.0.10.353,2.0.10.353,10/17/2018,10/17/2018 17:15,13:15:20,2.0.10.248,2,2,1,2,,,,,,,,TrainingProc,BlockList,28,2,Distractor1.bmp,1,0,,0,1,125629,500,,0,0,cyan,500,2,500,4,horizontal,cyan,Distractor1.bmp,red,Distractor1.bmp,purple,Distractor2.bmp,blue,Distractor1.bmp,lime,Target2.bmp,yellow,Distractor1.bmp,,,,TrialProc,,TrainingTrialList,1,2,-999999,0,126129,0,2,763,126892,Target2.bmp,lime,2,,,,5,2,28
KW_Experiment5A,26,1,"<?xml version=""1.0""?>\n<Clock xmlns:dt=""urn:schemas-microsoft-com:datatypes""><Description dt:dt=""string"">E-Prime Primary Realtime Clock</Description><StartTime><Timestamp dt:dt=""int"">0</Timestamp><DateUtc dt:dt=""string"">2018-10-17T17:15:20Z</DateUtc></StartTime><FrequencyChanges><FrequencyChange><Frequency dt:dt=""r8"">3215244</Frequency><Timestamp dt:dt=""r8"">7134363735693</Timestamp><Current dt:dt=""r8"">0</Current><DateUtc dt:dt=""string"">2018-10-17T17:15:20Z</DateUtc></FrequencyChange></FrequencyChanges></Clock>\n",KW_Experiment5A-26-1,59.945,1.0.0.105,1,423675659,Professional,2.0.10.353,2.0.10.353,10/17/2018,10/17/2018 17:15,13:15:20,2.0.10.248,2,2,1,2,,,,,,,,TrainingProc,BlockList,29,1,Distractor2.bmp,2,0,,0,1,127914,501,,0,0,yellow,500,2,500,2,vertical,yellow,Distractor2.bmp,cyan,Distractor1.bmp,blue,Distractor1.bmp,red,Distractor2.bmp,lime,Target1.bmp,purple,Distractor2.bmp,,,,TrialProc,,TrainingTrialList,1,1,-999999,1,128415,0,1,653,129068,Target1.bmp,lime,1,,,,5,2,29
KW_Experiment5A,26,1,"<?xml version=""1.0""?>\n<Clock xmlns:dt=""urn:schemas-microsoft-com:datatypes""><Description dt:dt=""string"">E-Prime Primary Realtime Clock</Description><StartTime><Timestamp dt:dt=""int"">0</Timestamp><DateUtc dt:dt=""string"">2018-10-17T17:15:20Z</DateUtc></StartTime><FrequencyChanges><FrequencyChange><Frequency dt:dt=""r8"">3215244</Frequency><Timestamp dt:dt=""r8"">7134363735693</Timestamp><Current dt:dt=""r8"">0</Current><DateUtc dt:dt=""string"">2018-10-17T17:15:20Z</DateUtc></FrequencyChange></FrequencyChanges></Clock>\n",KW_Experiment5A-26-1,59.945,1.0.0.105,1,423675659,Professional,2.0.10.353,2.0.10.353,10/17/2018,10/17/2018 17:15,13:15:20,2.0.10.248,2,2,1,2,,,,,,,,TrainingProc,BlockList,30,2,Distractor1.bmp,1,0,,0,1,130083,400,,0,0,purple,400,1,400,5,horizontal,purple,Distractor2.bmp,yellow,Distractor2.bmp,lime,Target2.bmp,blue,Distractor1.bmp,red,Distractor2.bmp,cyan,Distractor1.bmp,,,,TrialProc,,TrainingTrialList,1,2,-999999,0,130483,0,2,609,131092,Target2.bmp,lime,2,,,,3,2,30
KW_Experiment5A,26,1,"<?xml version=""1.0""?>\n<Clock xmlns:dt=""urn:schemas-microsoft-com:datatypes""><Description dt:dt=""string"">E-Prime Primary Realtime Clock</Description><StartTime><Timestamp dt:dt=""int"">0</Timestamp><DateUtc dt:dt=""string"">2018-10-17T17:15:20Z</DateUtc></StartTime><FrequencyChanges><FrequencyChange><Frequency dt:dt=""r8"">3215244</Frequency><Timestamp dt:dt=""r8"">7134363735693</Timestamp><Current dt:dt=""r8"">0</Current><DateUtc dt:dt=""string"">2018-10-17T17:15:20Z</DateUtc></FrequencyChange></FrequencyChanges></Clock>\n",KW_Experiment5A-26-1,59.945,1.0.0.105,1,423675659,Professional,2.0.10.353,2.0.10.353,10/17/2018,10/17/2018 17:15,13:15:20,2.0.10.248,2,2,1,2,,,,,,,,TrainingProc,BlockList,31,1,Distractor2.bmp,2,0,,0,1,132118,500,,0,0,lime,500,2,500,,vertical,lime,Distractor2.bmp,yellow,Distractor1.bmp,purple,Distractor2.bmp,blue,Distractor1.bmp,red,Target1.bmp,cyan,Distractor2.bmp,,,,TrialProc,6,TrainingTrialList,1,1,-999999,0,132618,0,1,586,133204,Target1.bmp,red,1,,,,11,2,31
KW_Experiment5A,26,1,"<?xml version=""1.0""?>\n<Clock xmlns:dt=""urn:schemas-microsoft-com:datatypes""><Description dt:dt=""string"">E-Prime Primary Realtime Clock</Description><StartTime><Timestamp dt:dt=""int"">0</Timestamp><DateUtc dt:dt=""string"">2018-10-17T17:15:20Z</DateUtc></StartTime><FrequencyChanges><FrequencyChange><Frequency dt:dt=""r8"">3215244</Frequency><Timestamp dt:dt=""r8"">7134363735693</Timestamp><Current dt:dt=""r8"">0</Current><DateUtc dt:dt=""string"">2018-10-17T17:15:20Z</DateUtc></FrequencyChange></FrequencyChanges></Clock>\n",KW_Experiment5A-26-1,59.945,1.0.0.105,1,423675659,Professional,2.0.10.353,2.0.10.353,10/17/2018,10/17/2018 17:15,13:15:20,2.0.10.248,2,2,1,2,,,,,,,,TrainingProc,BlockList,32,1,Distractor1.bmp,1,0,,0,1,134220,500,,0,0,yellow,500,2,500,2,vertical,yellow,Distractor1.bmp,lime,Target1.bmp,cyan,Distractor1.bmp,blue,Distractor2.bmp,purple,Distractor2.bmp,red,Distractor1.bmp,,,,TrialProc,,TrainingTrialList,1,1,-999999,0,134720,0,1,636,135356,Target1.bmp,lime,1,,,,2,2,32
KW_Experiment5A,26,1,"<?xml version=""1.0""?>\n<Clock xmlns:dt=""urn:schemas-microsoft-com:datatypes""><Description dt:dt=""string"">E-Prime Primary Realtime Clock</Description><StartTime><Timestamp dt:dt=""int"">0</Timestamp><DateUtc dt:dt=""string"">2018-10-17T17:15:20Z</DateUtc></StartTime><FrequencyChanges><FrequencyChange><Frequency dt:dt=""r8"">3215244</Frequency><Timestamp dt:dt=""r8"">7134363735693</Timestamp><Current dt:dt=""r8"">0</Current><DateUtc dt:dt=""string"">2018-10-17T17:15:20Z</DateUtc></FrequencyChange></FrequencyChanges></Clock>\n",KW_Experiment5A-26-1,59.945,1.0.0.105,1,423675659,Professional,2.0.10.353,2.0.10.353,10/17/2018,10/17/2018 17:15,13:15:20,2.0.10.248,2,2,1,2,,,,,,,,TrainingProc,BlockList,33,2,Distractor1.bmp,1,0,,0,1,136372,600,,0,0,yellow,600,3,600,2,horizontal,lime,Target2.bmp,yellow,Distractor1.bmp,blue,Distractor1.bmp,red,Distractor1.bmp,purple,Distractor1.bmp,cyan,Distractor1.bmp,,,,TrialProc,,TrainingTrialList,1,2,-999999,0,136972,0,2,544,137516,Target2.bmp,lime,2,,,,1,2,33
KW_Experiment5A,26,1,"<?xml version=""1.0""?>\n<Clock xmlns:dt=""urn:schemas-microsoft-com:datatypes""><Description dt:dt=""string"">E-Prime Primary Realtime Clock</Description><StartTime><Timestamp dt:dt=""int"">0</Timestamp><DateUtc dt:dt=""string"">2018-10-17T17:15:20Z</DateUtc></StartTime><FrequencyChanges><FrequencyChange><Frequency dt:dt=""r8"">3215244</Frequency><Timestamp dt:dt=""r8"">7134363735693</Timestamp><Current dt:dt=""r8"">0</Current><DateUtc dt:dt=""string"">2018-10-17T17:15:20Z</DateUtc></FrequencyChange></FrequencyChanges></Clock>\n",KW_Experiment5A-26-1,59.945,1.0.0.105,1,423675659,Professional,2.0.10.353,2.0.10.353,10/17/2018,10/17/2018 17:15,13:15:20,2.0.10.248,2,2,1,2,,,,,,,,TrainingProc,BlockList,34,1,Distractor1.bmp,1,0,,0,1,138541,600,,0,0,blue,600,3,600,3,vertical,blue,Distractor2.bmp,yellow,Distractor1.bmp,purple,Distractor2.bmp,cyan,Distractor1.bmp,lime,Target1.bmp,red,Distractor1.bmp,,,,TrialProc,,TrainingTrialList,1,1,-999999,0,139141,0,1,599,139740,Target1.bmp,lime,1,,,,5,2,34
KW_Experiment5A,26,1,"<?xml version=""1.0""?>\n<Clock xmlns:dt=""urn:schemas-microsoft-com:datatypes""><Description dt:dt=""string"">E-Prime Primary Realtime Clock</Description><StartTime><Timestamp dt:dt=""int"">0</Timestamp><DateUtc dt:dt=""string"">2018-10-17T17:15:20Z</DateUtc></StartTime><FrequencyChanges><FrequencyChange><Frequency dt:dt=""r8"">3215244</Frequency><Timestamp dt:dt=""r8"">7134363735693</Timestamp><Current dt:dt=""r8"">0</Current><DateUtc dt:dt=""string"">2018-10-17T17:15:20Z</DateUtc></FrequencyChange></FrequencyChanges></Clock>\n",KW_Experiment5A-26-1,59.945,1.0.0.105,1,423675659,Professional,2.0.10.353,2.0.10.353,10/17/2018,10/17/2018 17:15,13:15:20,2.0.10.248,2,2,1,2,,,,,,,,TrainingProc,BlockList,35,1,Distractor1.bmp,1,0,,0,1,140759,601,,0,0,purple,600,3,600,,vertical,red,Target1.bmp,blue,Distractor1.bmp,cyan,Distractor1.bmp,lime,Distractor2.bmp,yellow,Distractor2.bmp,purple,Distractor2.bmp,,,,TrialProc,5,TrainingTrialList,1,1,-999999,1,141360,0,1,580,141940,Target1.bmp,red,1,,,,7,2,35
KW_Experiment5A,26,1,"<?xml version=""1.0""?>\n<Clock xmlns:dt=""urn:schemas-microsoft-com:datatypes""><Description dt:dt=""string"">E-Prime Primary Realtime Clock</Description><StartTime><Timestamp dt:dt=""int"">0</Timestamp><DateUtc dt:dt=""string"">2018-10-17T17:15:20Z</DateUtc></StartTime><FrequencyChanges><FrequencyChange><Frequency dt:dt=""r8"">3215244</Frequency><Timestamp dt:dt=""r8"">7134363735693</Timestamp><Current dt:dt=""r8"">0</Current><DateUtc dt:dt=""string"">2018-10-17T17:15:20Z</DateUtc></FrequencyChange></FrequencyChanges></Clock>\n",KW_Experiment5A-26-1,59.945,1.0.0.105,1,423675659,Professional,2.0.10.353,2.0.10.353,10/17/2018,10/17/2018 17:15,13:15:20,2.0.10.248,2,2,1,2,,,,,,,,TrainingProc,BlockList,36,1,Distractor2.bmp,2,0,,0,1,142961,601,,0,0,blue,600,3,600,3,vertical,lime,Target1.bmp,blue,Distractor2.bmp,yellow,Distractor1.bmp,purple,Distractor2.bmp,red,Distractor1.bmp,cyan,Distractor2.bmp,,,,TrialProc,,TrainingTrialList,1,1,-999999,1,143562,0,1,666,144228,Target1.bmp,lime,1,,,,1,2,36
KW_Experiment5A,26,1,"<?xml version=""1.0""?>\n<Clock xmlns:dt=""urn:schemas-microsoft-com:datatypes""><Description dt:dt=""string"">E-Prime Primary Realtime Clock</Description><StartTime><Timestamp dt:dt=""int"">0</Timestamp><DateUtc dt:dt=""string"">2018-10-17T17:15:20Z</DateUtc></StartTime><FrequencyChanges><FrequencyChange><Frequency dt:dt=""r8"">3215244</Frequency><Timestamp dt:dt=""r8"">7134363735693</Timestamp><Current dt:dt=""r8"">0</Current><DateUtc dt:dt=""string"">2018-10-17T17:15:20Z</DateUtc></FrequencyChange></FrequencyChanges></Clock>\n",KW_Experiment5A-26-1,59.945,1.0.0.105,1,423675659,Professional,2.0.10.353,2.0.10.353,10/17/2018,10/17/2018 17:15,13:15:20,2.0.10.248,2,2,1,2,,,,,,,,TrainingProc,BlockList,37,1,Distractor1.bmp,1,0,,0,1,145247,400,,0,0,cyan,400,1,400,,vertical,cyan,Distractor1.bmp,purple,Distractor2.bmp,blue,Distractor1.bmp,yellow,Distractor2.bmp,lime,Distractor2.bmp,red,Target1.bmp,,,,TrialProc,4,TrainingTrialList,1,1,-999999,0,145647,0,1,621,146268,Target1.bmp,red,1,,,,12,2,37
KW_Experiment5A,26,1,"<?xml version=""1.0""?>\n<Clock xmlns:dt=""urn:schemas-microsoft-com:datatypes""><Description dt:dt=""string"">E-Prime Primary Realtime Clock</Description><StartTime><Timestamp dt:dt=""int"">0</Timestamp><DateUtc dt:dt=""string"">2018-10-17T17:15:20Z</DateUtc></StartTime><FrequencyChanges><FrequencyChange><Frequency dt:dt=""r8"">3215244</Frequency><Timestamp dt:dt=""r8"">7134363735693</Timestamp><Current dt:dt=""r8"">0</Current><DateUtc dt:dt=""string"">2018-10-17T17:15:20Z</DateUtc></FrequencyChange></FrequencyChanges></Clock>\n",KW_Experiment5A-26-1,59.945,1.0.0.105,1,423675659,Professional,2.0.10.353,2.0.10.353,10/17/2018,10/17/2018 17:15,13:15:20,2.0.10.248,2,2,1,2,,,,,,,,TrainingProc,BlockList,38,1,Distractor2.bmp,2,0,,0,1,147282,400,,0,0,yellow,400,1,400,2,vertical,yellow,Distractor2.bmp,blue,Distractor2.bmp,purple,Distractor2.bmp,cyan,Distractor1.bmp,red,Distractor2.bmp,lime,Target1.bmp,,,,TrialProc,,TrainingTrialList,1,1,-999999,0,147682,0,1,474,148156,Target1.bmp,lime,1,,,,6,2,38
KW_Experiment5A,26,1,"<?xml version=""1.0""?>\n<Clock xmlns:dt=""urn:schemas-microsoft-com:datatypes""><Description dt:dt=""string"">E-Prime Primary Realtime Clock</Description><StartTime><Timestamp dt:dt=""int"">0</Timestamp><DateUtc dt:dt=""string"">2018-10-17T17:15:20Z</DateUtc></StartTime><FrequencyChanges><FrequencyChange><Frequency dt:dt=""r8"">3215244</Frequency><Timestamp dt:dt=""r8"">7134363735693</Timestamp><Current dt:dt=""r8"">0</Current><DateUtc dt:dt=""string"">2018-10-17T17:15:20Z</DateUtc></FrequencyChange></FrequencyChanges></Clock>\n",KW_Experiment5A-26-1,59.945,1.0.0.105,1,423675659,Professional,2.0.10.353,2.0.10.353,10/17/2018,10/17/2018 17:15,13:15:20,2.0.10.248,2,2,1,2,,,,,,,,TrainingProc,BlockList,39,2,Distractor2.bmp,2,0,,0,1,149167,601,,0,0,purple,600,3,600,5,horizontal,purple,Distractor2.bmp,yellow,Distractor1.bmp,red,Distractor1.bmp,lime,Target2.bmp,blue,Distractor2.bmp,cyan,Distractor2.bmp,,,,TrialProc,,TrainingTrialList,1,2,-999999,1,149768,0,2,692,150460,Target2.bmp,lime,2,,,,4,2,39
KW_Experiment5A,26,1,"<?xml version=""1.0""?>\n<Clock xmlns:dt=""urn:schemas-microsoft-com:datatypes""><Description dt:dt=""string"">E-Prime Primary Realtime Clock</Description><StartTime><Timestamp dt:dt=""int"">0</Timestamp><DateUtc dt:dt=""string"">2018-10-17T17:15:20Z</DateUtc></StartTime><FrequencyChanges><FrequencyChange><Frequency dt:dt=""r8"">3215244</Frequency><Timestamp dt:dt=""r8"">7134363735693</Timestamp><Current dt:dt=""r8"">0</Current><DateUtc dt:dt=""string"">2018-10-17T17:15:20Z</DateUtc></FrequencyChange></FrequencyChanges></Clock>\n",KW_Experiment5A-26-1,59.945,1.0.0.105,1,423675659,Professional,2.0.10.353,2.0.10.353,10/17/2018,10/17/2018 17:15,13:15:20,2.0.10.248,2,2,1,2,,,,,,,,TrainingProc,BlockList,40,2,Distractor1.bmp,1,0,,0,1,151486,400,,0,0,yellow,400,1,400,,horizontal,yellow,Distractor2.bmp,red,Target2.bmp,lime,Distractor1.bmp,blue,Distractor1.bmp,cyan,Distractor1.bmp,purple,Distractor2.bmp,,,,TrialProc,2,TrainingTrialList,1,2,-999999,0,151886,0,2,566,152452,Target2.bmp,red,2,,,,8,2,40
KW_Experiment5A,26,1,"<?xml version=""1.0""?>\n<Clock xmlns:dt=""urn:schemas-microsoft-com:datatypes""><Description dt:dt=""string"">E-Prime Primary Realtime Clock</Description><StartTime><Timestamp dt:dt=""int"">0</Timestamp><DateUtc dt:dt=""string"">2018-10-17T17:15:20Z</DateUtc></StartTime><FrequencyChanges><FrequencyChange><Frequency dt:dt=""r8"">3215244</Frequency><Timestamp dt:dt=""r8"">7134363735693</Timestamp><Current dt:dt=""r8"">0</Current><DateUtc dt:dt=""string"">2018-10-17T17:15:20Z</DateUtc></FrequencyChange></FrequencyChanges></Clock>\n",KW_Experiment5A-26-1,59.945,1.0.0.105,1,423675659,Professional,2.0.10.353,2.0.10.353,10/17/2018,10/17/2018 17:15,13:15:20,2.0.10.248,2,2,1,2,,,,,,,,TrainingProc,BlockList,41,1,Distractor1.bmp,1,0,,0,1,153471,600,,0,0,purple,600,3,600,5,vertical,lime,Target1.bmp,purple,Distractor1.bmp,cyan,Distractor2.bmp,yellow,Distractor1.bmp,blue,Distractor2.bmp,red,Distractor1.bmp,,,,TrialProc,,TrainingTrialList,1,1,-999999,0,154071,0,1,669,154740,Target1.bmp,lime,1,,,,1,2,41
KW_Experiment5A,26,1,"<?xml version=""1.0""?>\n<Clock xmlns:dt=""urn:schemas-microsoft-com:datatypes""><Description dt:dt=""string"">E-Prime Primary Realtime Clock</Description><StartTime><Timestamp dt:dt=""int"">0</Timestamp><DateUtc dt:dt=""string"">2018-10-17T17:15:20Z</DateUtc></StartTime><FrequencyChanges><FrequencyChange><Frequency dt:dt=""r8"">3215244</Frequency><Timestamp dt:dt=""r8"">7134363735693</Timestamp><Current dt:dt=""r8"">0</Current><DateUtc dt:dt=""string"">2018-10-17T17:15:20Z</DateUtc></FrequencyChange></FrequencyChanges></Clock>\n",KW_Experiment5A-26-1,59.945,1.0.0.105,1,423675659,Professional,2.0.10.353,2.0.10.353,10/17/2018,10/17/2018 17:15,13:15:20,2.0.10.248,2,2,1,2,,,,,,,,TrainingProc,BlockList,42,1,Distractor2.bmp,2,0,,0,1,155756,601,,0,0,red,600,3,600,1,vertical,red,Distractor2.bmp,lime,Target1.bmp,yellow,Distractor2.bmp,purple,Distractor2.bmp,cyan,Distractor2.bmp,blue,Distractor2.bmp,,,,TrialProc,,TrainingTrialList,0,1,-999999,1,156357,0,2,527,156884,Target1.bmp,lime,1,,,,2,2,42
KW_Experiment5A,26,1,"<?xml version=""1.0""?>\n<Clock xmlns:dt=""urn:schemas-microsoft-com:datatypes""><Description dt:dt=""string"">E-Prime Primary Realtime Clock</Description><StartTime><Timestamp dt:dt=""int"">0</Timestamp><DateUtc dt:dt=""string"">2018-10-17T17:15:20Z</DateUtc></StartTime><FrequencyChanges><FrequencyChange><Frequency dt:dt=""r8"">3215244</Frequency><Timestamp dt:dt=""r8"">7134363735693</Timestamp><Current dt:dt=""r8"">0</Current><DateUtc dt:dt=""string"">2018-10-17T17:15:20Z</DateUtc></FrequencyChange></FrequencyChanges></Clock>\n",KW_Experiment5A-26-1,59.945,1.0.0.105,1,423675659,Professional,2.0.10.353,2.0.10.353,10/17/2018,10/17/2018 17:15,13:15:20,2.0.10.248,2,2,1,2,,,,,,,,TrainingProc,BlockList,43,2,Distractor2.bmp,2,0,,0,1,157908,501,,0,0,red,500,2,500,1,horizontal,red,Distractor1.bmp,lime,Target2.bmp,cyan,Distractor2.bmp,yellow,Distractor1.bmp,purple,Distractor1.bmp,blue,Distractor1.bmp,,,,TrialProc,,TrainingTrialList,1,2,-999999,1,158409,0,2,595,159004,Target2.bmp,lime,2,,,,2,2,43
KW_Experiment5A,26,1,"<?xml version=""1.0""?>\n<Clock xmlns:dt=""urn:schemas-microsoft-com:datatypes""><Description dt:dt=""string"">E-Prime Primary Realtime Clock</Description><StartTime><Timestamp dt:dt=""int"">0</Timestamp><DateUtc dt:dt=""string"">2018-10-17T17:15:20Z</DateUtc></StartTime><FrequencyChanges><FrequencyChange><Frequency dt:dt=""r8"">3215244</Frequency><Timestamp dt:dt=""r8"">7134363735693</Timestamp><Current dt:dt=""r8"">0</Current><DateUtc dt:dt=""string"">2018-10-17T17:15:20Z</DateUtc></FrequencyChange></FrequencyChanges></Clock>\n",KW_Experiment5A-26-1,59.945,1.0.0.105,1,423675659,Professional,2.0.10.353,2.0.10.353,10/17/2018,10/17/2018 17:15,13:15:20,2.0.10.248,2,2,1,2,,,,,,,,TrainingProc,BlockList,44,2,Distractor1.bmp,1,0,,0,1,160027,601,,0,0,purple,600,3,600,5,horizontal,purple,Distractor2.bmp,cyan,Distractor1.bmp,yellow,Distractor2.bmp,lime,Target2.bmp,red,Distractor1.bmp,blue,Distractor1.bmp,,,,TrialProc,,TrainingTrialList,1,2,-999999,1,160628,0,2,1576,162204,Target2.bmp,lime,2,,,,4,2,44
KW_Experiment5A,26,1,"<?xml version=""1.0""?>\n<Clock xmlns:dt=""urn:schemas-microsoft-com:datatypes""><Description dt:dt=""string"">E-Prime Primary Realtime Clock</Description><StartTime><Timestamp dt:dt=""int"">0</Timestamp><DateUtc dt:dt=""string"">2018-10-17T17:15:20Z</DateUtc></StartTime><FrequencyChanges><FrequencyChange><Frequency dt:dt=""r8"">3215244</Frequency><Timestamp dt:dt=""r8"">7134363735693</Timestamp><Current dt:dt=""r8"">0</Current><DateUtc dt:dt=""string"">2018-10-17T17:15:20Z</DateUtc></FrequencyChange></FrequencyChanges></Clock>\n",KW_Experiment5A-26-1,59.945,1.0.0.105,1,423675659,Professional,2.0.10.353,2.0.10.353,10/17/2018,10/17/2018 17:15,13:15:20,2.0.10.248,2,2,1,2,,,,,,,,TrainingProc,BlockList,45,1,Distractor1.bmp,1,0,,0,1,163230,500,,0,0,purple,500,2,500,5,vertical,purple,Distractor2.bmp,red,Distractor2.bmp,lime,Target1.bmp,cyan,Distractor1.bmp,blue,Distractor2.bmp,yellow,Distractor2.bmp,,,,TrialProc,,TrainingTrialList,1,1,-999999,0,163730,0,1,650,164380,Target1.bmp,lime,1,,,,3,2,45
KW_Experiment5A,26,1,"<?xml version=""1.0""?>\n<Clock xmlns:dt=""urn:schemas-microsoft-com:datatypes""><Description dt:dt=""string"">E-Prime Primary Realtime Clock</Description><StartTime><Timestamp dt:dt=""int"">0</Timestamp><DateUtc dt:dt=""string"">2018-10-17T17:15:20Z</DateUtc></StartTime><FrequencyChanges><FrequencyChange><Frequency dt:dt=""r8"">3215244</Frequency><Timestamp dt:dt=""r8"">7134363735693</Timestamp><Current dt:dt=""r8"">0</Current><DateUtc dt:dt=""string"">2018-10-17T17:15:20Z</DateUtc></FrequencyChange></FrequencyChanges></Clock>\n",KW_Experiment5A-26-1,59.945,1.0.0.105,1,423675659,Professional,2.0.10.353,2.0.10.353,10/17/2018,10/17/2018 17:15,13:15:20,2.0.10.248,2,2,1,2,,,,,,,,TrainingProc,BlockList,46,1,Distractor2.bmp,2,0,,0,1,165399,500,,0,0,yellow,500,2,500,2,vertical,yellow,Distractor1.bmp,purple,Distractor2.bmp,cyan,Distractor1.bmp,lime,Target1.bmp,red,Distractor2.bmp,blue,Distractor1.bmp,,,,TrialProc,,TrainingTrialList,1,1,-999999,0,165899,0,1,609,166508,Target1.bmp,lime,1,,,,4,2,46
KW_Experiment5A,26,1,"<?xml version=""1.0""?>\n<Clock xmlns:dt=""urn:schemas-microsoft-com:datatypes""><Description dt:dt=""string"">E-Prime Primary Realtime Clock</Description><StartTime><Timestamp dt:dt=""int"">0</Timestamp><DateUtc dt:dt=""string"">2018-10-17T17:15:20Z</DateUtc></StartTime><FrequencyChanges><FrequencyChange><Frequency dt:dt=""r8"">3215244</Frequency><Timestamp dt:dt=""r8"">7134363735693</Timestamp><Current dt:dt=""r8"">0</Current><DateUtc dt:dt=""string"">2018-10-17T17:15:20Z</DateUtc></FrequencyChange></FrequencyChanges></Clock>\n",KW_Experiment5A-26-1,59.945,1.0.0.105,1,423675659,Professional,2.0.10.353,2.0.10.353,10/17/2018,10/17/2018 17:15,13:15:20,2.0.10.248,2,2,1,2,,,,,,,,TrainingProc,BlockList,47,2,Distractor2.bmp,2,0,,0,1,167517,601,,0,0,yellow,600,3,600,2,horizontal,yellow,Distractor2.bmp,red,Distractor2.bmp,purple,Distractor2.bmp,cyan,Distractor2.bmp,blue,Distractor2.bmp,lime,Target2.bmp,,,,TrialProc,,TrainingTrialList,1,2,-999999,1,168118,0,2,750,168868,Target2.bmp,lime,2,,,,6,2,47
KW_Experiment5A,26,1,"<?xml version=""1.0""?>\n<Clock xmlns:dt=""urn:schemas-microsoft-com:datatypes""><Description dt:dt=""string"">E-Prime Primary Realtime Clock</Description><StartTime><Timestamp dt:dt=""int"">0</Timestamp><DateUtc dt:dt=""string"">2018-10-17T17:15:20Z</DateUtc></StartTime><FrequencyChanges><FrequencyChange><Frequency dt:dt=""r8"">3215244</Frequency><Timestamp dt:dt=""r8"">7134363735693</Timestamp><Current dt:dt=""r8"">0</Current><DateUtc dt:dt=""string"">2018-10-17T17:15:20Z</DateUtc></FrequencyChange></FrequencyChanges></Clock>\n",KW_Experiment5A-26-1,59.945,1.0.0.105,1,423675659,Professional,2.0.10.353,2.0.10.353,10/17/2018,10/17/2018 17:15,13:15:20,2.0.10.248,2,2,1,2,,,,,,,,TrainingProc,BlockList,48,1,Distractor2.bmp,2,0,,0,1,169886,501,,0,0,cyan,500,2,500,4,vertical,cyan,Distractor2.bmp,purple,Distractor2.bmp,lime,Target1.bmp,red,Distractor2.bmp,blue,Distractor1.bmp,yellow,Distractor2.bmp,,,,TrialProc,,TrainingTrialList,1,1,-999999,1,170387,0,1,673,171060,Target1.bmp,lime,1,,,,3,2,48
KW_Experiment5A,26,1,"<?xml version=""1.0""?>\n<Clock xmlns:dt=""urn:schemas-microsoft-com:datatypes""><Description dt:dt=""string"">E-Prime Primary Realtime Clock</Description><StartTime><Timestamp dt:dt=""int"">0</Timestamp><DateUtc dt:dt=""string"">2018-10-17T17:15:20Z</DateUtc></StartTime><FrequencyChanges><FrequencyChange><Frequency dt:dt=""r8"">3215244</Frequency><Timestamp dt:dt=""r8"">7134363735693</Timestamp><Current dt:dt=""r8"">0</Current><DateUtc dt:dt=""string"">2018-10-17T17:15:20Z</DateUtc></FrequencyChange></FrequencyChanges></Clock>\n",KW_Experiment5A-26-1,59.945,1.0.0.105,1,423675659,Professional,2.0.10.353,2.0.10.353,10/17/2018,10/17/2018 17:15,13:15:20,2.0.10.248,3,2,1,3,,,,,,,,TrainingProc,BlockList,1,2,Distractor2.bmp,2,0,,0,15,177243,400,,0,0,cyan,400,1,400,4,horizontal,cyan,Distractor2.bmp,yellow,Distractor1.bmp,red,Distractor2.bmp,purple,Distractor1.bmp,lime,Target2.bmp,blue,Distractor2.bmp,,,,TrialProc,,TrainingTrialList,1,2,-999999,0,177643,0,2,657,178300,Target2.bmp,lime,2,,,,5,3,49
KW_Experiment5A,26,1,"<?xml version=""1.0""?>\n<Clock xmlns:dt=""urn:schemas-microsoft-com:datatypes""><Description dt:dt=""string"">E-Prime Primary Realtime Clock</Description><StartTime><Timestamp dt:dt=""int"">0</Timestamp><DateUtc dt:dt=""string"">2018-10-17T17:15:20Z</DateUtc></StartTime><FrequencyChanges><FrequencyChange><Frequency dt:dt=""r8"">3215244</Frequency><Timestamp dt:dt=""r8"">7134363735693</Timestamp><Current dt:dt=""r8"">0</Current><DateUtc dt:dt=""string"">2018-10-17T17:15:20Z</DateUtc></FrequencyChange></FrequencyChanges></Clock>\n",KW_Experiment5A-26-1,59.945,1.0.0.105,1,423675659,Professional,2.0.10.353,2.0.10.353,10/17/2018,10/17/2018 17:15,13:15:20,2.0.10.248,3,2,1,3,,,,,,,,TrainingProc,BlockList,2,2,Distractor1.bmp,1,0,,0,1,179311,501,,0,0,cyan,500,2,500,4,horizontal,lime,Target2.bmp,cyan,Distractor1.bmp,purple,Distractor2.bmp,yellow,Distractor2.bmp,red,Distractor2.bmp,blue,Distractor2.bmp,,,,TrialProc,,TrainingTrialList,1,2,-999999,1,179812,0,2,384,180196,Target2.bmp,lime,2,,,,1,3,50
KW_Experiment5A,26,1,"<?xml version=""1.0""?>\n<Clock xmlns:dt=""urn:schemas-microsoft-com:datatypes""><Description dt:dt=""string"">E-Prime Primary Realtime Clock</Description><StartTime><Timestamp dt:dt=""int"">0</Timestamp><DateUtc dt:dt=""string"">2018-10-17T17:15:20Z</DateUtc></StartTime><FrequencyChanges><FrequencyChange><Frequency dt:dt=""r8"">3215244</Frequency><Timestamp dt:dt=""r8"">7134363735693</Timestamp><Current dt:dt=""r8"">0</Current><DateUtc dt:dt=""string"">2018-10-17T17:15:20Z</DateUtc></FrequencyChange></FrequencyChanges></Clock>\n",KW_Experiment5A-26-1,59.945,1.0.0.105,1,423675659,Professional,2.0.10.353,2.0.10.353,10/17/2018,10/17/2018 17:15,13:15:20,2.0.10.248,3,2,1,3,,,,,,,,TrainingProc,BlockList,3,1,Distractor1.bmp,1,0,,0,1,181213,401,,0,0,cyan,400,1,400,,vertical,cyan,Distractor1.bmp,purple,Distractor2.bmp,yellow,Distractor2.bmp,blue,Distractor2.bmp,lime,Distractor2.bmp,red,Target1.bmp,,,,TrialProc,4,TrainingTrialList,1,1,-999999,1,181614,0,1,422,182036,Target1.bmp,red,1,,,,12,3,51
KW_Experiment5A,26,1,"<?xml version=""1.0""?>\n<Clock xmlns:dt=""urn:schemas-microsoft-com:datatypes""><Description dt:dt=""string"">E-Prime Primary Realtime Clock</Description><StartTime><Timestamp dt:dt=""int"">0</Timestamp><DateUtc dt:dt=""string"">2018-10-17T17:15:20Z</DateUtc></StartTime><FrequencyChanges><FrequencyChange><Frequency dt:dt=""r8"">3215244</Frequency><Timestamp dt:dt=""r8"">7134363735693</Timestamp><Current dt:dt=""r8"">0</Current><DateUtc dt:dt=""string"">2018-10-17T17:15:20Z</DateUtc></FrequencyChange></FrequencyChanges></Clock>\n",KW_Experiment5A-26-1,59.945,1.0.0.105,1,423675659,Professional,2.0.10.353,2.0.10.353,10/17/2018,10/17/2018 17:15,13:15:20,2.0.10.248,3,2,1,3,,,,,,,,TrainingProc,BlockList,4,2,Distractor2.bmp,2,0,,0,1,183048,401,,0,0,yellow,400,1,400,2,horizontal,lime,Target2.bmp,yellow,Distractor2.bmp,purple,Distractor1.bmp,cyan,Distractor1.bmp,blue,Distractor2.bmp,red,Distractor1.bmp,,,,TrialProc,,TrainingTrialList,1,2,-999999,1,183449,0,2,459,183908,Target2.bmp,lime,2,,,,1,3,52
KW_Experiment5A,26,1,"<?xml version=""1.0""?>\n<Clock xmlns:dt=""urn:schemas-microsoft-com:datatypes""><Description dt:dt=""string"">E-Prime Primary Realtime Clock</Description><StartTime><Timestamp dt:dt=""int"">0</Timestamp><DateUtc dt:dt=""string"">2018-10-17T17:15:20Z</DateUtc></StartTime><FrequencyChanges><FrequencyChange><Frequency dt:dt=""r8"">3215244</Frequency><Timestamp dt:dt=""r8"">7134363735693</Timestamp><Current dt:dt=""r8"">0</Current><DateUtc dt:dt=""string"">2018-10-17T17:15:20Z</DateUtc></FrequencyChange></FrequencyChanges></Clock>\n",KW_Experiment5A-26-1,59.945,1.0.0.105,1,423675659,Professional,2.0.10.353,2.0.10.353,10/17/2018,10/17/2018 17:15,13:15:20,2.0.10.248,3,2,1,3,,,,,,,,TrainingProc,BlockList,5,1,Distractor1.bmp,1,0,,0,1,184933,601,,0,0,red,600,3,600,1,vertical,red,Distractor2.bmp,lime,Target1.bmp,blue,Distractor1.bmp,yellow,Distractor1.bmp,cyan,Distractor2.bmp,purple,Distractor1.bmp,,,,TrialProc,,TrainingTrialList,1,1,-999999,1,185534,0,1,606,186140,Target1.bmp,lime,1,,,,2,3,53
KW_Experiment5A,26,1,"<?xml version=""1.0""?>\n<Clock xmlns:dt=""urn:schemas-microsoft-com:datatypes""><Description dt:dt=""string"">E-Prime Primary Realtime Clock</Description><StartTime><Timestamp dt:dt=""int"">0</Timestamp><DateUtc dt:dt=""string"">2018-10-17T17:15:20Z</DateUtc></StartTime><FrequencyChanges><FrequencyChange><Frequency dt:dt=""r8"">3215244</Frequency><Timestamp dt:dt=""r8"">7134363735693</Timestamp><Current dt:dt=""r8"">0</Current><DateUtc dt:dt=""string"">2018-10-17T17:15:20Z</DateUtc></FrequencyChange></FrequencyChanges></Clock>\n",KW_Experiment5A-26-1,59.945,1.0.0.105,1,423675659,Professional,2.0.10.353,2.0.10.353,10/17/2018,10/17/2018 17:15,13:15:20,2.0.10.248,3,2,1,3,,,,,,,,TrainingProc,BlockList,6,1,Distractor1.bmp,1,0,,0,1,187152,500,,0,0,purple,500,2,500,5,vertical,purple,Distractor1.bmp,cyan,Distractor2.bmp,blue,Distractor2.bmp,lime,Target1.bmp,red,Distractor1.bmp,yellow,Distractor2.bmp,,,,TrialProc,,TrainingTrialList,0,1,-999999,0,187652,0,2,1968,189620,Target1.bmp,lime,1,,,,4,3,54
KW_Experiment5A,26,1,"<?xml version=""1.0""?>\n<Clock xmlns:dt=""urn:schemas-microsoft-com:datatypes""><Description dt:dt=""string"">E-Prime Primary Realtime Clock</Description><StartTime><Timestamp dt:dt=""int"">0</Timestamp><DateUtc dt:dt=""string"">2018-10-17T17:15:20Z</DateUtc></StartTime><FrequencyChanges><FrequencyChange><Frequency dt:dt=""r8"">3215244</Frequency><Timestamp dt:dt=""r8"">7134363735693</Timestamp><Current dt:dt=""r8"">0</Current><DateUtc dt:dt=""string"">2018-10-17T17:15:20Z</DateUtc></FrequencyChange></FrequencyChanges></Clock>\n",KW_Experiment5A-26-1,59.945,1.0.0.105,1,423675659,Professional,2.0.10.353,2.0.10.353,10/17/2018,10/17/2018 17:15,13:15:20,2.0.10.248,3,2,1,3,,,,,,,,TrainingProc,BlockList,7,1,Distractor2.bmp,2,0,,0,1,190639,600,,0,0,lime,600,3,600,,vertical,red,Target1.bmp,purple,Distractor2.bmp,blue,Distractor2.bmp,cyan,Distractor1.bmp,yellow,Distractor1.bmp,lime,Distractor2.bmp,,,,TrialProc,6,TrainingTrialList,0,1,-999999,0,191239,0,2,613,191852,Target1.bmp,red,1,,,,7,3,55
KW_Experiment5A,26,1,"<?xml version=""1.0""?>\n<Clock xmlns:dt=""urn:schemas-microsoft-com:datatypes""><Description dt:dt=""string"">E-Prime Primary Realtime Clock</Description><StartTime><Timestamp dt:dt=""int"">0</Timestamp><DateUtc dt:dt=""string"">2018-10-17T17:15:20Z</DateUtc></StartTime><FrequencyChanges><FrequencyChange><Frequency dt:dt=""r8"">3215244</Frequency><Timestamp dt:dt=""r8"">7134363735693</Timestamp><Current dt:dt=""r8"">0</Current><DateUtc dt:dt=""string"">2018-10-17T17:15:20Z</DateUtc></FrequencyChange></FrequencyChanges></Clock>\n",KW_Experiment5A-26-1,59.945,1.0.0.105,1,423675659,Professional,2.0.10.353,2.0.10.353,10/17/2018,10/17/2018 17:15,13:15:20,2.0.10.248,3,2,1,3,,,,,,,,TrainingProc,BlockList,8,1,Distractor1.bmp,1,0,,0,1,192874,400,,0,0,red,400,1,400,1,vertical,red,Distractor1.bmp,purple,Distractor2.bmp,lime,Target1.bmp,cyan,Distractor1.bmp,yellow,Distractor1.bmp,blue,Distractor1.bmp,,,,TrialProc,,TrainingTrialList,1,1,-999999,0,193274,0,1,1066,194340,Target1.bmp,lime,1,,,,3,3,56
KW_Experiment5A,26,1,"<?xml version=""1.0""?>\n<Clock xmlns:dt=""urn:schemas-microsoft-com:datatypes""><Description dt:dt=""string"">E-Prime Primary Realtime Clock</Description><StartTime><Timestamp dt:dt=""int"">0</Timestamp><DateUtc dt:dt=""string"">2018-10-17T17:15:20Z</DateUtc></StartTime><FrequencyChanges><FrequencyChange><Frequency dt:dt=""r8"">3215244</Frequency><Timestamp dt:dt=""r8"">7134363735693</Timestamp><Current dt:dt=""r8"">0</Current><DateUtc dt:dt=""string"">2018-10-17T17:15:20Z</DateUtc></FrequencyChange></FrequencyChanges></Clock>\n",KW_Experiment5A-26-1,59.945,1.0.0.105,1,423675659,Professional,2.0.10.353,2.0.10.353,10/17/2018,10/17/2018 17:15,13:15:20,2.0.10.248,3,2,1,3,,,,,,,,TrainingProc,BlockList,9,1,Distractor1.bmp,1,0,,0,1,195360,500,,0,0,cyan,500,2,500,4,vertical,lime,Target1.bmp,cyan,Distractor1.bmp,purple,Distractor1.bmp,yellow,Distractor1.bmp,red,Distractor1.bmp,blue,Distractor2.bmp,,,,TrialProc,,TrainingTrialList,1,1,-999999,0,195860,0,1,496,196356,Target1.bmp,lime,1,,,,1,3,57
KW_Experiment5A,26,1,"<?xml version=""1.0""?>\n<Clock xmlns:dt=""urn:schemas-microsoft-com:datatypes""><Description dt:dt=""string"">E-Prime Primary Realtime Clock</Description><StartTime><Timestamp dt:dt=""int"">0</Timestamp><DateUtc dt:dt=""string"">2018-10-17T17:15:20Z</DateUtc></StartTime><FrequencyChanges><FrequencyChange><Frequency dt:dt=""r8"">3215244</Frequency><Timestamp dt:dt=""r8"">7134363735693</Timestamp><Current dt:dt=""r8"">0</Current><DateUtc dt:dt=""string"">2018-10-17T17:15:20Z</DateUtc></FrequencyChange></FrequencyChanges></Clock>\n",KW_Experiment5A-26-1,59.945,1.0.0.105,1,423675659,Professional,2.0.10.353,2.0.10.353,10/17/2018,10/17/2018 17:15,13:15:20,2.0.10.248,3,2,1,3,,,,,,,,TrainingProc,BlockList,10,2,Distractor1.bmp,1,0,,0,1,197378,501,,0,0,yellow,500,2,500,2,horizontal,yellow,Distractor1.bmp,purple,Distractor1.bmp,cyan,Distractor2.bmp,blue,Distractor1.bmp,red,Distractor2.bmp,lime,Target2.bmp,,,,TrialProc,,TrainingTrialList,1,2,-999999,1,197879,0,2,661,198540,Target2.bmp,lime,2,,,,6,3,58
KW_Experiment5A,26,1,"<?xml version=""1.0""?>\n<Clock xmlns:dt=""urn:schemas-microsoft-com:datatypes""><Description dt:dt=""string"">E-Prime Primary Realtime Clock</Description><StartTime><Timestamp dt:dt=""int"">0</Timestamp><DateUtc dt:dt=""string"">2018-10-17T17:15:20Z</DateUtc></StartTime><FrequencyChanges><FrequencyChange><Frequency dt:dt=""r8"">3215244</Frequency><Timestamp dt:dt=""r8"">7134363735693</Timestamp><Current dt:dt=""r8"">0</Current><DateUtc dt:dt=""string"">2018-10-17T17:15:20Z</DateUtc></FrequencyChange></FrequencyChanges></Clock>\n",KW_Experiment5A-26-1,59.945,1.0.0.105,1,423675659,Professional,2.0.10.353,2.0.10.353,10/17/2018,10/17/2018 17:15,13:15:20,2.0.10.248,3,2,1,3,,,,,,,,TrainingProc,BlockList,11,2,Distractor2.bmp,2,0,,1,0,199563,501,,0,0,cyan,500,2,500,,horizontal,cyan,Distractor2.bmp,yellow,Distractor1.bmp,lime,Distractor2.bmp,blue,Distractor1.bmp,red,Target2.bmp,purple,Distractor2.bmp,,,,TrialProc,4,TrainingTrialList,1,2,-999999,1,200064,0,2,668,200732,Target2.bmp,red,2,,,,11,3,59
KW_Experiment5A,26,1,"<?xml version=""1.0""?>\n<Clock xmlns:dt=""urn:schemas-microsoft-com:datatypes""><Description dt:dt=""string"">E-Prime Primary Realtime Clock</Description><StartTime><Timestamp dt:dt=""int"">0</Timestamp><DateUtc dt:dt=""string"">2018-10-17T17:15:20Z</DateUtc></StartTime><FrequencyChanges><FrequencyChange><Frequency dt:dt=""r8"">3215244</Frequency><Timestamp dt:dt=""r8"">7134363735693</Timestamp><Current dt:dt=""r8"">0</Current><DateUtc dt:dt=""string"">2018-10-17T17:15:20Z</DateUtc></FrequencyChange></FrequencyChanges></Clock>\n",KW_Experiment5A-26-1,59.945,1.0.0.105,1,423675659,Professional,2.0.10.353,2.0.10.353,10/17/2018,10/17/2018 17:15,13:15:20,2.0.10.248,3,2,1,3,,,,,,,,TrainingProc,BlockList,12,1,Distractor1.bmp,1,0,,0,1,201749,400,,0,0,blue,400,1,400,3,vertical,blue,Distractor2.bmp,yellow,Distractor1.bmp,lime,Target1.bmp,purple,Distractor1.bmp,cyan,Distractor1.bmp,red,Distractor2.bmp,,,,TrialProc,,TrainingTrialList,1,1,-999999,0,202149,0,1,687,202836,Target1.bmp,lime,1,,,,3,3,60
KW_Experiment5A,26,1,"<?xml version=""1.0""?>\n<Clock xmlns:dt=""urn:schemas-microsoft-com:datatypes""><Description dt:dt=""string"">E-Prime Primary Realtime Clock</Description><StartTime><Timestamp dt:dt=""int"">0</Timestamp><DateUtc dt:dt=""string"">2018-10-17T17:15:20Z</DateUtc></StartTime><FrequencyChanges><FrequencyChange><Frequency dt:dt=""r8"">3215244</Frequency><Timestamp dt:dt=""r8"">7134363735693</Timestamp><Current dt:dt=""r8"">0</Current><DateUtc dt:dt=""string"">2018-10-17T17:15:20Z</DateUtc></FrequencyChange></FrequencyChanges></Clock>\n",KW_Experiment5A-26-1,59.945,1.0.0.105,1,423675659,Professional,2.0.10.353,2.0.10.353,10/17/2018,10/17/2018 17:15,13:15:20,2.0.10.248,3,2,1,3,,,,,,,,TrainingProc,BlockList,13,2,Distractor1.bmp,1,0,,0,1,203851,600,,0,0,red,600,3,600,1,horizontal,red,Distractor1.bmp,cyan,Distractor2.bmp,blue,Distractor1.bmp,purple,Distractor2.bmp,yellow,Distractor2.bmp,lime,Target2.bmp,,,,TrialProc,,TrainingTrialList,1,2,-999999,0,204451,0,2,633,205084,Target2.bmp,lime,2,,,,6,3,61
KW_Experiment5A,26,1,"<?xml version=""1.0""?>\n<Clock xmlns:dt=""urn:schemas-microsoft-com:datatypes""><Description dt:dt=""string"">E-Prime Primary Realtime Clock</Description><StartTime><Timestamp dt:dt=""int"">0</Timestamp><DateUtc dt:dt=""string"">2018-10-17T17:15:20Z</DateUtc></StartTime><FrequencyChanges><FrequencyChange><Frequency dt:dt=""r8"">3215244</Frequency><Timestamp dt:dt=""r8"">7134363735693</Timestamp><Current dt:dt=""r8"">0</Current><DateUtc dt:dt=""string"">2018-10-17T17:15:20Z</DateUtc></FrequencyChange></FrequencyChanges></Clock>\n",KW_Experiment5A-26-1,59.945,1.0.0.105,1,423675659,Professional,2.0.10.353,2.0.10.353,10/17/2018,10/17/2018 17:15,13:15:20,2.0.10.248,3,2,1,3,,,,,,,,TrainingProc,BlockList,14,2,Distractor2.bmp,2,0,,0,1,206103,500,,0,0,purple,500,2,500,,horizontal,purple,Distractor1.bmp,lime,Distractor1.bmp,red,Target2.bmp,blue,Distractor2.bmp,yellow,Distractor1.bmp,cyan,Distractor2.bmp,,,,TrialProc,5,TrainingTrialList,1,2,-999999,0,206603,0,2,593,207196,Target2.bmp,red,2,,,,9,3,62
KW_Experiment5A,26,1,"<?xml version=""1.0""?>\n<Clock xmlns:dt=""urn:schemas-microsoft-com:datatypes""><Description dt:dt=""string"">E-Prime Primary Realtime Clock</Description><StartTime><Timestamp dt:dt=""int"">0</Timestamp><DateUtc dt:dt=""string"">2018-10-17T17:15:20Z</DateUtc></StartTime><FrequencyChanges><FrequencyChange><Frequency dt:dt=""r8"">3215244</Frequency><Timestamp dt:dt=""r8"">7134363735693</Timestamp><Current dt:dt=""r8"">0</Current><DateUtc dt:dt=""string"">2018-10-17T17:15:20Z</DateUtc></FrequencyChange></FrequencyChanges></Clock>\n",KW_Experiment5A-26-1,59.945,1.0.0.105,1,423675659,Professional,2.0.10.353,2.0.10.353,10/17/2018,10/17/2018 17:15,13:15:20,2.0.10.248,3,2,1,3,,,,,,,,TrainingProc,BlockList,15,2,Distractor1.bmp,1,0,,0,1,208205,600,,0,0,yellow,600,3,600,2,horizontal,yellow,Distractor2.bmp,red,Distractor2.bmp,purple,Distractor1.bmp,cyan,Distractor2.bmp,lime,Target2.bmp,blue,Distractor1.bmp,,,,TrialProc,,TrainingTrialList,1,2,-999999,0,208805,0,2,615,209420,Target2.bmp,lime,2,,,,5,3,63
KW_Experiment5A,26,1,"<?xml version=""1.0""?>\n<Clock xmlns:dt=""urn:schemas-microsoft-com:datatypes""><Description dt:dt=""string"">E-Prime Primary Realtime Clock</Description><StartTime><Timestamp dt:dt=""int"">0</Timestamp><DateUtc dt:dt=""string"">2018-10-17T17:15:20Z</DateUtc></StartTime><FrequencyChanges><FrequencyChange><Frequency dt:dt=""r8"">3215244</Frequency><Timestamp dt:dt=""r8"">7134363735693</Timestamp><Current dt:dt=""r8"">0</Current><DateUtc dt:dt=""string"">2018-10-17T17:15:20Z</DateUtc></FrequencyChange></FrequencyChanges></Clock>\n",KW_Experiment5A-26-1,59.945,1.0.0.105,1,423675659,Professional,2.0.10.353,2.0.10.353,10/17/2018,10/17/2018 17:15,13:15:20,2.0.10.248,3,2,1,3,,,,,,,,TrainingProc,BlockList,16,2,Distractor2.bmp,2,0,,0,1,210440,401,,0,0,yellow,400,1,400,2,horizontal,yellow,Distractor1.bmp,purple,Distractor1.bmp,blue,Distractor2.bmp,lime,Target2.bmp,red,Distractor2.bmp,cyan,Distractor1.bmp,,,,TrialProc,,TrainingTrialList,1,2,-999999,1,210841,0,2,627,211468,Target2.bmp,lime,2,,,,4,3,64
KW_Experiment5A,26,1,"<?xml version=""1.0""?>\n<Clock xmlns:dt=""urn:schemas-microsoft-com:datatypes""><Description dt:dt=""string"">E-Prime Primary Realtime Clock</Description><StartTime><Timestamp dt:dt=""int"">0</Timestamp><DateUtc dt:dt=""string"">2018-10-17T17:15:20Z</DateUtc></StartTime><FrequencyChanges><FrequencyChange><Frequency dt:dt=""r8"">3215244</Frequency><Timestamp dt:dt=""r8"">7134363735693</Timestamp><Current dt:dt=""r8"">0</Current><DateUtc dt:dt=""string"">2018-10-17T17:15:20Z</DateUtc></FrequencyChange></FrequencyChanges></Clock>\n",KW_Experiment5A-26-1,59.945,1.0.0.105,1,423675659,Professional,2.0.10.353,2.0.10.353,10/17/2018,10/17/2018 17:15,13:15:20,2.0.10.248,3,2,1,3,,,,,,,,TrainingProc,BlockList,17,2,Distractor2.bmp,2,0,,0,1,212492,501,,0,0,blue,500,2,500,3,horizontal,blue,Distractor2.bmp,cyan,Distractor1.bmp,red,Distractor2.bmp,purple,Distractor1.bmp,yellow,Distractor1.bmp,lime,Target2.bmp,,,,TrialProc,,TrainingTrialList,0,2,-999999,1,212993,0,1,635,213628,Target2.bmp,lime,2,,,,6,3,65
KW_Experiment5A,26,1,"<?xml version=""1.0""?>\n<Clock xmlns:dt=""urn:schemas-microsoft-com:datatypes""><Description dt:dt=""string"">E-Prime Primary Realtime Clock</Description><StartTime><Timestamp dt:dt=""int"">0</Timestamp><DateUtc dt:dt=""string"">2018-10-17T17:15:20Z</DateUtc></StartTime><FrequencyChanges><FrequencyChange><Frequency dt:dt=""r8"">3215244</Frequency><Timestamp dt:dt=""r8"">7134363735693</Timestamp><Current dt:dt=""r8"">0</Current><DateUtc dt:dt=""string"">2018-10-17T17:15:20Z</DateUtc></FrequencyChange></FrequencyChanges></Clock>\n",KW_Experiment5A-26-1,59.945,1.0.0.105,1,423675659,Professional,2.0.10.353,2.0.10.353,10/17/2018,10/17/2018 17:15,13:15:20,2.0.10.248,3,2,1,3,,,,,,,,TrainingProc,BlockList,18,2,Distractor2.bmp,2,0,,0,1,214644,400,,0,0,blue,400,1,400,3,horizontal,blue,Distractor1.bmp,purple,Distractor2.bmp,lime,Target2.bmp,cyan,Distractor2.bmp,yellow,Distractor1.bmp,red,Distractor1.bmp,,,,TrialProc,,TrainingTrialList,1,2,-999999,0,215044,0,2,704,215748,Target2.bmp,lime,2,,,,3,3,66
KW_Experiment5A,26,1,"<?xml version=""1.0""?>\n<Clock xmlns:dt=""urn:schemas-microsoft-com:datatypes""><Description dt:dt=""string"">E-Prime Primary Realtime Clock</Description><StartTime><Timestamp dt:dt=""int"">0</Timestamp><DateUtc dt:dt=""string"">2018-10-17T17:15:20Z</DateUtc></StartTime><FrequencyChanges><FrequencyChange><Frequency dt:dt=""r8"">3215244</Frequency><Timestamp dt:dt=""r8"">7134363735693</Timestamp><Current dt:dt=""r8"">0</Current><DateUtc dt:dt=""string"">2018-10-17T17:15:20Z</DateUtc></FrequencyChange></FrequencyChanges></Clock>\n",KW_Experiment5A-26-1,59.945,1.0.0.105,1,423675659,Professional,2.0.10.353,2.0.10.353,10/17/2018,10/17/2018 17:15,13:15:20,2.0.10.248,3,2,1,3,,,,,,,,TrainingProc,BlockList,19,2,Distractor2.bmp,2,0,,0,1,216763,400,,0,0,red,400,1,400,1,horizontal,red,Distractor2.bmp,blue,Distractor2.bmp,cyan,Distractor1.bmp,lime,Target2.bmp,yellow,Distractor2.bmp,purple,Distractor2.bmp,,,,TrialProc,,TrainingTrialList,1,2,-999999,0,217163,0,2,689,217852,Target2.bmp,lime,2,,,,4,3,67
KW_Experiment5A,26,1,"<?xml version=""1.0""?>\n<Clock xmlns:dt=""urn:schemas-microsoft-com:datatypes""><Description dt:dt=""string"">E-Prime Primary Realtime Clock</Description><StartTime><Timestamp dt:dt=""int"">0</Timestamp><DateUtc dt:dt=""string"">2018-10-17T17:15:20Z</DateUtc></StartTime><FrequencyChanges><FrequencyChange><Frequency dt:dt=""r8"">3215244</Frequency><Timestamp dt:dt=""r8"">7134363735693</Timestamp><Current dt:dt=""r8"">0</Current><DateUtc dt:dt=""string"">2018-10-17T17:15:20Z</DateUtc></FrequencyChange></FrequencyChanges></Clock>\n",KW_Experiment5A-26-1,59.945,1.0.0.105,1,423675659,Professional,2.0.10.353,2.0.10.353,10/17/2018,10/17/2018 17:15,13:15:20,2.0.10.248,3,2,1,3,,,,,,,,TrainingProc,BlockList,20,1,Distractor2.bmp,2,0,,0,1,218865,400,,0,0,purple,400,1,400,5,vertical,purple,Distractor1.bmp,blue,Distractor2.bmp,yellow,Distractor2.bmp,cyan,Distractor1.bmp,lime,Target1.bmp,red,Distractor2.bmp,,,,TrialProc,,TrainingTrialList,1,1,-999999,0,219265,0,1,1195,220460,Target1.bmp,lime,1,,,,5,3,68
KW_Experiment5A,26,1,"<?xml version=""1.0""?>\n<Clock xmlns:dt=""urn:schemas-microsoft-com:datatypes""><Description dt:dt=""string"">E-Prime Primary Realtime Clock</Description><StartTime><Timestamp dt:dt=""int"">0</Timestamp><DateUtc dt:dt=""string"">2018-10-17T17:15:20Z</DateUtc></StartTime><FrequencyChanges><FrequencyChange><Frequency dt:dt=""r8"">3215244</Frequency><Timestamp dt:dt=""r8"">7134363735693</Timestamp><Current dt:dt=""r8"">0</Current><DateUtc dt:dt=""string"">2018-10-17T17:15:20Z</DateUtc></FrequencyChange></FrequencyChanges></Clock>\n",KW_Experiment5A-26-1,59.945,1.0.0.105,1,423675659,Professional,2.0.10.353,2.0.10.353,10/17/2018,10/17/2018 17:15,13:15:20,2.0.10.248,3,2,1,3,,,,,,,,TrainingProc,BlockList,21,1,Distractor1.bmp,1,0,,0,1,221484,500,,0,0,lime,500,2,500,,vertical,lime,Distractor2.bmp,red,Target1.bmp,purple,Distractor1.bmp,yellow,Distractor1.bmp,blue,Distractor1.bmp,cyan,Distractor2.bmp,,,,TrialProc,6,TrainingTrialList,1,1,-999999,0,221984,0,1,572,222556,Target1.bmp,red,1,,,,8,3,69
KW_Experiment5A,26,1,"<?xml version=""1.0""?>\n<Clock xmlns:dt=""urn:schemas-microsoft-com:datatypes""><Description dt:dt=""string"">E-Prime Primary Realtime Clock</Description><StartTime><Timestamp dt:dt=""int"">0</Timestamp><DateUtc dt:dt=""string"">2018-10-17T17:15:20Z</DateUtc></StartTime><FrequencyChanges><FrequencyChange><Frequency dt:dt=""r8"">3215244</Frequency><Timestamp dt:dt=""r8"">7134363735693</Timestamp><Current dt:dt=""r8"">0</Current><DateUtc dt:dt=""string"">2018-10-17T17:15:20Z</DateUtc></FrequencyChange></FrequencyChanges></Clock>\n",KW_Experiment5A-26-1,59.945,1.0.0.105,1,423675659,Professional,2.0.10.353,2.0.10.353,10/17/2018,10/17/2018 17:15,13:15:20,2.0.10.248,3,2,1,3,,,,,,,,TrainingProc,BlockList,22,2,Distractor2.bmp,2,0,,0,1,223569,400,,0,0,cyan,400,1,400,4,horizontal,cyan,Distractor1.bmp,lime,Target2.bmp,purple,Distractor2.bmp,blue,Distractor1.bmp,yellow,Distractor2.bmp,red,Distractor2.bmp,,,,TrialProc,,TrainingTrialList,1,2,-999999,0,223969,0,2,1147,225116,Target2.bmp,lime,2,,,,2,3,70
KW_Experiment5A,26,1,"<?xml version=""1.0""?>\n<Clock xmlns:dt=""urn:schemas-microsoft-com:datatypes""><Description dt:dt=""string"">E-Prime Primary Realtime Clock</Description><StartTime><Timestamp dt:dt=""int"">0</Timestamp><DateUtc dt:dt=""string"">2018-10-17T17:15:20Z</DateUtc></StartTime><FrequencyChanges><FrequencyChange><Frequency dt:dt=""r8"">3215244</Frequency><Timestamp dt:dt=""r8"">7134363735693</Timestamp><Current dt:dt=""r8"">0</Current><DateUtc dt:dt=""string"">2018-10-17T17:15:20Z</DateUtc></FrequencyChange></FrequencyChanges></Clock>\n",KW_Experiment5A-26-1,59.945,1.0.0.105,1,423675659,Professional,2.0.10.353,2.0.10.353,10/17/2018,10/17/2018 17:15,13:15:20,2.0.10.248,3,2,1,3,,,,,,,,TrainingProc,BlockList,23,1,Distractor1.bmp,1,0,,0,1,226138,600,,0,0,yellow,600,3,600,2,vertical,yellow,Distractor1.bmp,lime,Target1.bmp,blue,Distractor1.bmp,red,Distractor2.bmp,cyan,Distractor1.bmp,purple,Distractor1.bmp,,,,TrialProc,,TrainingTrialList,1,1,-999999,0,226738,0,1,578,227316,Target1.bmp,lime,1,,,,2,3,71
KW_Experiment5A,26,1,"<?xml version=""1.0""?>\n<Clock xmlns:dt=""urn:schemas-microsoft-com:datatypes""><Description dt:dt=""string"">E-Prime Primary Realtime Clock</Description><StartTime><Timestamp dt:dt=""int"">0</Timestamp><DateUtc dt:dt=""string"">2018-10-17T17:15:20Z</DateUtc></StartTime><FrequencyChanges><FrequencyChange><Frequency dt:dt=""r8"">3215244</Frequency><Timestamp dt:dt=""r8"">7134363735693</Timestamp><Current dt:dt=""r8"">0</Current><DateUtc dt:dt=""string"">2018-10-17T17:15:20Z</DateUtc></FrequencyChange></FrequencyChanges></Clock>\n",KW_Experiment5A-26-1,59.945,1.0.0.105,1,423675659,Professional,2.0.10.353,2.0.10.353,10/17/2018,10/17/2018 17:15,13:15:20,2.0.10.248,3,2,1,3,,,,,,,,TrainingProc,BlockList,24,2,Distractor2.bmp,2,0,,0,1,228340,500,,0,0,purple,500,2,500,,horizontal,purple,Distractor2.bmp,yellow,Distractor2.bmp,cyan,Distractor2.bmp,red,Target2.bmp,lime,Distractor2.bmp,blue,Distractor1.bmp,,,,TrialProc,5,TrainingTrialList,1,2,-999999,0,228840,0,2,803,229643,Target2.bmp,red,2,,,,10,3,72
KW_Experiment5A,26,1,"<?xml version=""1.0""?>\n<Clock xmlns:dt=""urn:schemas-microsoft-com:datatypes""><Description dt:dt=""string"">E-Prime Primary Realtime Clock</Description><StartTime><Timestamp dt:dt=""int"">0</Timestamp><DateUtc dt:dt=""string"">2018-10-17T17:15:20Z</DateUtc></StartTime><FrequencyChanges><FrequencyChange><Frequency dt:dt=""r8"">3215244</Frequency><Timestamp dt:dt=""r8"">7134363735693</Timestamp><Current dt:dt=""r8"">0</Current><DateUtc dt:dt=""string"">2018-10-17T17:15:20Z</DateUtc></FrequencyChange></FrequencyChanges></Clock>\n",KW_Experiment5A-26-1,59.945,1.0.0.105,1,423675659,Professional,2.0.10.353,2.0.10.353,10/17/2018,10/17/2018 17:15,13:15:20,2.0.10.248,3,2,1,3,,,,,,,,TrainingProc,BlockList,25,1,Distractor1.bmp,1,0,,0,1,230659,400,,0,0,blue,400,1,400,,vertical,blue,Distractor2.bmp,yellow,Distractor2.bmp,lime,Distractor2.bmp,cyan,Distractor1.bmp,red,Target1.bmp,purple,Distractor1.bmp,,,,TrialProc,3,TrainingTrialList,1,1,-999999,0,231059,0,1,640,231699,Target1.bmp,red,1,,,,11,4,73
KW_Experiment5A,26,1,"<?xml version=""1.0""?>\n<Clock xmlns:dt=""urn:schemas-microsoft-com:datatypes""><Description dt:dt=""string"">E-Prime Primary Realtime Clock</Description><StartTime><Timestamp dt:dt=""int"">0</Timestamp><DateUtc dt:dt=""string"">2018-10-17T17:15:20Z</DateUtc></StartTime><FrequencyChanges><FrequencyChange><Frequency dt:dt=""r8"">3215244</Frequency><Timestamp dt:dt=""r8"">7134363735693</Timestamp><Current dt:dt=""r8"">0</Current><DateUtc dt:dt=""string"">2018-10-17T17:15:20Z</DateUtc></FrequencyChange></FrequencyChanges></Clock>\n",KW_Experiment5A-26-1,59.945,1.0.0.105,1,423675659,Professional,2.0.10.353,2.0.10.353,10/17/2018,10/17/2018 17:15,13:15:20,2.0.10.248,3,2,1,3,,,,,,,,TrainingProc,BlockList,26,2,Distractor2.bmp,2,0,,0,1,232711,400,,0,0,red,400,1,400,1,horizontal,red,Distractor1.bmp,blue,Distractor1.bmp,purple,Distractor1.bmp,yellow,Distractor1.bmp,lime,Target2.bmp,cyan,Distractor2.bmp,,,,TrialProc,,TrainingTrialList,0,2,-999999,0,233111,0,1,580,233691,Target2.bmp,lime,2,,,,5,4,74
KW_Experiment5A,26,1,"<?xml version=""1.0""?>\n<Clock xmlns:dt=""urn:schemas-microsoft-com:datatypes""><Description dt:dt=""string"">E-Prime Primary Realtime Clock</Description><StartTime><Timestamp dt:dt=""int"">0</Timestamp><DateUtc dt:dt=""string"">2018-10-17T17:15:20Z</DateUtc></StartTime><FrequencyChanges><FrequencyChange><Frequency dt:dt=""r8"">3215244</Frequency><Timestamp dt:dt=""r8"">7134363735693</Timestamp><Current dt:dt=""r8"">0</Current><DateUtc dt:dt=""string"">2018-10-17T17:15:20Z</DateUtc></FrequencyChange></FrequencyChanges></Clock>\n",KW_Experiment5A-26-1,59.945,1.0.0.105,1,423675659,Professional,2.0.10.353,2.0.10.353,10/17/2018,10/17/2018 17:15,13:15:20,2.0.10.248,3,2,1,3,,,,,,,,TrainingProc,BlockList,27,1,Distractor2.bmp,2,0,,0,1,234713,500,,0,0,lime,500,2,500,,vertical,lime,Distractor2.bmp,purple,Distractor1.bmp,cyan,Distractor1.bmp,blue,Distractor1.bmp,yellow,Distractor2.bmp,red,Target1.bmp,,,,TrialProc,6,TrainingTrialList,1,1,-999999,0,235213,0,1,614,235827,Target1.bmp,red,1,,,,12,4,75
KW_Experiment5A,26,1,"<?xml version=""1.0""?>\n<Clock xmlns:dt=""urn:schemas-microsoft-com:datatypes""><Description dt:dt=""string"">E-Prime Primary Realtime Clock</Description><StartTime><Timestamp dt:dt=""int"">0</Timestamp><DateUtc dt:dt=""string"">2018-10-17T17:15:20Z</DateUtc></StartTime><FrequencyChanges><FrequencyChange><Frequency dt:dt=""r8"">3215244</Frequency><Timestamp dt:dt=""r8"">7134363735693</Timestamp><Current dt:dt=""r8"">0</Current><DateUtc dt:dt=""string"">2018-10-17T17:15:20Z</DateUtc></FrequencyChange></FrequencyChanges></Clock>\n",KW_Experiment5A-26-1,59.945,1.0.0.105,1,423675659,Professional,2.0.10.353,2.0.10.353,10/17/2018,10/17/2018 17:15,13:15:20,2.0.10.248,3,2,1,3,,,,,,,,TrainingProc,BlockList,28,2,Distractor2.bmp,2,0,,0,1,236848,400,,0,0,yellow,400,1,400,2,horizontal,yellow,Distractor2.bmp,blue,Distractor2.bmp,cyan,Distractor1.bmp,lime,Target2.bmp,red,Distractor2.bmp,purple,Distractor1.bmp,,,,TrialProc,,TrainingTrialList,1,2,-999999,0,237248,0,2,715,237963,Target2.bmp,lime,2,,,,4,4,76
KW_Experiment5A,26,1,"<?xml version=""1.0""?>\n<Clock xmlns:dt=""urn:schemas-microsoft-com:datatypes""><Description dt:dt=""string"">E-Prime Primary Realtime Clock</Description><StartTime><Timestamp dt:dt=""int"">0</Timestamp><DateUtc dt:dt=""string"">2018-10-17T17:15:20Z</DateUtc></StartTime><FrequencyChanges><FrequencyChange><Frequency dt:dt=""r8"">3215244</Frequency><Timestamp dt:dt=""r8"">7134363735693</Timestamp><Current dt:dt=""r8"">0</Current><DateUtc dt:dt=""string"">2018-10-17T17:15:20Z</DateUtc></FrequencyChange></FrequencyChanges></Clock>\n",KW_Experiment5A-26-1,59.945,1.0.0.105,1,423675659,Professional,2.0.10.353,2.0.10.353,10/17/2018,10/17/2018 17:15,13:15:20,2.0.10.248,3,2,1,3,,,,,,,,TrainingProc,BlockList,29,2,Distractor2.bmp,2,0,,0,1,238983,400,,0,0,cyan,400,1,400,4,horizontal,cyan,Distractor1.bmp,lime,Target2.bmp,purple,Distractor2.bmp,yellow,Distractor1.bmp,red,Distractor1.bmp,blue,Distractor2.bmp,,,,TrialProc,,TrainingTrialList,1,2,-999999,0,239383,0,2,588,239971,Target2.bmp,lime,2,,,,2,4,77
KW_Experiment5A,26,1,"<?xml version=""1.0""?>\n<Clock xmlns:dt=""urn:schemas-microsoft-com:datatypes""><Description dt:dt=""string"">E-Prime Primary Realtime Clock</Description><StartTime><Timestamp dt:dt=""int"">0</Timestamp><DateUtc dt:dt=""string"">2018-10-17T17:15:20Z</DateUtc></StartTime><FrequencyChanges><FrequencyChange><Frequency dt:dt=""r8"">3215244</Frequency><Timestamp dt:dt=""r8"">7134363735693</Timestamp><Current dt:dt=""r8"">0</Current><DateUtc dt:dt=""string"">2018-10-17T17:15:20Z</DateUtc></FrequencyChange></FrequencyChanges></Clock>\n",KW_Experiment5A-26-1,59.945,1.0.0.105,1,423675659,Professional,2.0.10.353,2.0.10.353,10/17/2018,10/17/2018 17:15,13:15:20,2.0.10.248,3,2,1,3,,,,,,,,TrainingProc,BlockList,30,2,Distractor1.bmp,1,0,,0,1,240985,500,,0,0,blue,500,2,500,3,horizontal,blue,Distractor2.bmp,red,Distractor1.bmp,lime,Target2.bmp,cyan,Distractor1.bmp,yellow,Distractor2.bmp,purple,Distractor1.bmp,,,,TrialProc,,TrainingTrialList,1,2,-999999,0,241485,0,2,686,242171,Target2.bmp,lime,2,,,,3,4,78
KW_Experiment5A,26,1,"<?xml version=""1.0""?>\n<Clock xmlns:dt=""urn:schemas-microsoft-com:datatypes""><Description dt:dt=""string"">E-Prime Primary Realtime Clock</Description><StartTime><Timestamp dt:dt=""int"">0</Timestamp><DateUtc dt:dt=""string"">2018-10-17T17:15:20Z</DateUtc></StartTime><FrequencyChanges><FrequencyChange><Frequency dt:dt=""r8"">3215244</Frequency><Timestamp dt:dt=""r8"">7134363735693</Timestamp><Current dt:dt=""r8"">0</Current><DateUtc dt:dt=""string"">2018-10-17T17:15:20Z</DateUtc></FrequencyChange></FrequencyChanges></Clock>\n",KW_Experiment5A-26-1,59.945,1.0.0.105,1,423675659,Professional,2.0.10.353,2.0.10.353,10/17/2018,10/17/2018 17:15,13:15:20,2.0.10.248,3,2,1,3,,,,,,,,TrainingProc,BlockList,31,1,Distractor1.bmp,1,0,,0,1,243187,500,,0,0,cyan,500,2,500,,vertical,cyan,Distractor1.bmp,red,Target1.bmp,yellow,Distractor1.bmp,lime,Distractor1.bmp,purple,Distractor1.bmp,blue,Distractor2.bmp,,,,TrialProc,4,TrainingTrialList,1,1,-999999,0,243687,0,1,556,244243,Target1.bmp,red,1,,,,8,4,79
KW_Experiment5A,26,1,"<?xml version=""1.0""?>\n<Clock xmlns:dt=""urn:schemas-microsoft-com:datatypes""><Description dt:dt=""string"">E-Prime Primary Realtime Clock</Description><StartTime><Timestamp dt:dt=""int"">0</Timestamp><DateUtc dt:dt=""string"">2018-10-17T17:15:20Z</DateUtc></StartTime><FrequencyChanges><FrequencyChange><Frequency dt:dt=""r8"">3215244</Frequency><Timestamp dt:dt=""r8"">7134363735693</Timestamp><Current dt:dt=""r8"">0</Current><DateUtc dt:dt=""string"">2018-10-17T17:15:20Z</DateUtc></FrequencyChange></FrequencyChanges></Clock>\n",KW_Experiment5A-26-1,59.945,1.0.0.105,1,423675659,Professional,2.0.10.353,2.0.10.353,10/17/2018,10/17/2018 17:15,13:15:20,2.0.10.248,3,2,1,3,,,,,,,,TrainingProc,BlockList,32,1,Distractor2.bmp,2,0,,0,1,245256,400,,0,0,purple,400,1,400,5,vertical,lime,Target1.bmp,purple,Distractor2.bmp,cyan,Distractor1.bmp,yellow,Distractor2.bmp,red,Distractor2.bmp,blue,Distractor2.bmp,,,,TrialProc,,TrainingTrialList,1,1,-999999,0,245656,0,1,475,246131,Target1.bmp,lime,1,,,,1,4,80
KW_Experiment5A,26,1,"<?xml version=""1.0""?>\n<Clock xmlns:dt=""urn:schemas-microsoft-com:datatypes""><Description dt:dt=""string"">E-Prime Primary Realtime Clock</Description><StartTime><Timestamp dt:dt=""int"">0</Timestamp><DateUtc dt:dt=""string"">2018-10-17T17:15:20Z</DateUtc></StartTime><FrequencyChanges><FrequencyChange><Frequency dt:dt=""r8"">3215244</Frequency><Timestamp dt:dt=""r8"">7134363735693</Timestamp><Current dt:dt=""r8"">0</Current><DateUtc dt:dt=""string"">2018-10-17T17:15:20Z</DateUtc></FrequencyChange></FrequencyChanges></Clock>\n",KW_Experiment5A-26-1,59.945,1.0.0.105,1,423675659,Professional,2.0.10.353,2.0.10.353,10/17/2018,10/17/2018 17:15,13:15:20,2.0.10.248,3,2,1,3,,,,,,,,TrainingProc,BlockList,33,1,Distractor2.bmp,2,0,,0,1,247141,500,,0,0,blue,500,2,500,,vertical,red,Target1.bmp,lime,Distractor2.bmp,cyan,Distractor2.bmp,purple,Distractor2.bmp,yellow,Distractor2.bmp,blue,Distractor1.bmp,,,,TrialProc,3,TrainingTrialList,0,1,-999999,0,247641,0,2,426,248067,Target1.bmp,red,1,,,,7,4,81
KW_Experiment5A,26,1,"<?xml version=""1.0""?>\n<Clock xmlns:dt=""urn:schemas-microsoft-com:datatypes""><Description dt:dt=""string"">E-Prime Primary Realtime Clock</Description><StartTime><Timestamp dt:dt=""int"">0</Timestamp><DateUtc dt:dt=""string"">2018-10-17T17:15:20Z</DateUtc></StartTime><FrequencyChanges><FrequencyChange><Frequency dt:dt=""r8"">3215244</Frequency><Timestamp dt:dt=""r8"">7134363735693</Timestamp><Current dt:dt=""r8"">0</Current><DateUtc dt:dt=""string"">2018-10-17T17:15:20Z</DateUtc></FrequencyChange></FrequencyChanges></Clock>\n",KW_Experiment5A-26-1,59.945,1.0.0.105,1,423675659,Professional,2.0.10.353,2.0.10.353,10/17/2018,10/17/2018 17:15,13:15:20,2.0.10.248,3,2,1,3,,,,,,,,TrainingProc,BlockList,34,1,Distractor1.bmp,1,0,,1,0,249092,501,,0,0,cyan,500,2,500,4,vertical,cyan,Distractor1.bmp,purple,Distractor1.bmp,blue,Distractor1.bmp,red,Distractor2.bmp,yellow,Distractor2.bmp,lime,Target1.bmp,,,,TrialProc,,TrainingTrialList,1,1,-999999,1,249593,0,1,578,250171,Target1.bmp,lime,1,,,,6,4,82
KW_Experiment5A,26,1,"<?xml version=""1.0""?>\n<Clock xmlns:dt=""urn:schemas-microsoft-com:datatypes""><Description dt:dt=""string"">E-Prime Primary Realtime Clock</Description><StartTime><Timestamp dt:dt=""int"">0</Timestamp><DateUtc dt:dt=""string"">2018-10-17T17:15:20Z</DateUtc></StartTime><FrequencyChanges><FrequencyChange><Frequency dt:dt=""r8"">3215244</Frequency><Timestamp dt:dt=""r8"">7134363735693</Timestamp><Current dt:dt=""r8"">0</Current><DateUtc dt:dt=""string"">2018-10-17T17:15:20Z</DateUtc></FrequencyChange></FrequencyChanges></Clock>\n",KW_Experiment5A-26-1,59.945,1.0.0.105,1,423675659,Professional,2.0.10.353,2.0.10.353,10/17/2018,10/17/2018 17:15,13:15:20,2.0.10.248,3,2,1,3,,,,,,,,TrainingProc,BlockList,35,2,Distractor1.bmp,1,0,,0,1,251194,601,,0,0,cyan,600,3,600,4,horizontal,cyan,Distractor2.bmp,yellow,Distractor1.bmp,blue,Distractor2.bmp,lime,Target2.bmp,red,Distractor1.bmp,purple,Distractor1.bmp,,,,TrialProc,,TrainingTrialList,1,2,-999999,1,251795,0,2,736,252531,Target2.bmp,lime,2,,,,4,4,83
KW_Experiment5A,26,1,"<?xml version=""1.0""?>\n<Clock xmlns:dt=""urn:schemas-microsoft-com:datatypes""><Description dt:dt=""string"">E-Prime Primary Realtime Clock</Description><StartTime><Timestamp dt:dt=""int"">0</Timestamp><DateUtc dt:dt=""string"">2018-10-17T17:15:20Z</DateUtc></StartTime><FrequencyChanges><FrequencyChange><Frequency dt:dt=""r8"">3215244</Frequency><Timestamp dt:dt=""r8"">7134363735693</Timestamp><Current dt:dt=""r8"">0</Current><DateUtc dt:dt=""string"">2018-10-17T17:15:20Z</DateUtc></FrequencyChange></FrequencyChanges></Clock>\n",KW_Experiment5A-26-1,59.945,1.0.0.105,1,423675659,Professional,2.0.10.353,2.0.10.353,10/17/2018,10/17/2018 17:15,13:15:20,2.0.10.248,3,2,1,3,,,,,,,,TrainingProc,BlockList,36,1,Distractor2.bmp,2,0,,0,1,253547,600,,0,0,red,600,3,600,1,vertical,red,Distractor1.bmp,purple,Distractor1.bmp,lime,Target1.bmp,blue,Distractor2.bmp,yellow,Distractor2.bmp,cyan,Distractor1.bmp,,,,TrialProc,,TrainingTrialList,1,1,-999999,0,254147,0,1,1424,255571,Target1.bmp,lime,1,,,,3,4,84
KW_Experiment5A,26,1,"<?xml version=""1.0""?>\n<Clock xmlns:dt=""urn:schemas-microsoft-com:datatypes""><Description dt:dt=""string"">E-Prime Primary Realtime Clock</Description><StartTime><Timestamp dt:dt=""int"">0</Timestamp><DateUtc dt:dt=""string"">2018-10-17T17:15:20Z</DateUtc></StartTime><FrequencyChanges><FrequencyChange><Frequency dt:dt=""r8"">3215244</Frequency><Timestamp dt:dt=""r8"">7134363735693</Timestamp><Current dt:dt=""r8"">0</Current><DateUtc dt:dt=""string"">2018-10-17T17:15:20Z</DateUtc></FrequencyChange></FrequencyChanges></Clock>\n",KW_Experiment5A-26-1,59.945,1.0.0.105,1,423675659,Professional,2.0.10.353,2.0.10.353,10/17/2018,10/17/2018 17:15,13:15:20,2.0.10.248,3,2,1,3,,,,,,,,TrainingProc,BlockList,37,1,Distractor1.bmp,1,0,,0,1,256583,400,,0,0,cyan,400,1,400,4,vertical,lime,Target1.bmp,cyan,Distractor1.bmp,yellow,Distractor1.bmp,purple,Distractor1.bmp,blue,Distractor1.bmp,red,Distractor1.bmp,,,,TrialProc,,TrainingTrialList,1,1,-999999,0,256983,0,1,996,257979,Target1.bmp,lime,1,,,,1,4,85
KW_Experiment5A,26,1,"<?xml version=""1.0""?>\n<Clock xmlns:dt=""urn:schemas-microsoft-com:datatypes""><Description dt:dt=""string"">E-Prime Primary Realtime Clock</Description><StartTime><Timestamp dt:dt=""int"">0</Timestamp><DateUtc dt:dt=""string"">2018-10-17T17:15:20Z</DateUtc></StartTime><FrequencyChanges><FrequencyChange><Frequency dt:dt=""r8"">3215244</Frequency><Timestamp dt:dt=""r8"">7134363735693</Timestamp><Current dt:dt=""r8"">0</Current><DateUtc dt:dt=""string"">2018-10-17T17:15:20Z</DateUtc></FrequencyChange></FrequencyChanges></Clock>\n",KW_Experiment5A-26-1,59.945,1.0.0.105,1,423675659,Professional,2.0.10.353,2.0.10.353,10/17/2018,10/17/2018 17:15,13:15:20,2.0.10.248,3,2,1,3,,,,,,,,TrainingProc,BlockList,38,1,Distractor2.bmp,2,0,,0,1,259002,400,,0,0,yellow,400,1,400,2,vertical,yellow,Distractor2.bmp,lime,Target1.bmp,blue,Distractor2.bmp,cyan,Distractor2.bmp,red,Distractor1.bmp,purple,Distractor2.bmp,,,,TrialProc,,TrainingTrialList,1,1,-999999,0,259402,0,1,641,260043,Target1.bmp,lime,1,,,,2,4,86
KW_Experiment5A,26,1,"<?xml version=""1.0""?>\n<Clock xmlns:dt=""urn:schemas-microsoft-com:datatypes""><Description dt:dt=""string"">E-Prime Primary Realtime Clock</Description><StartTime><Timestamp dt:dt=""int"">0</Timestamp><DateUtc dt:dt=""string"">2018-10-17T17:15:20Z</DateUtc></StartTime><FrequencyChanges><FrequencyChange><Frequency dt:dt=""r8"">3215244</Frequency><Timestamp dt:dt=""r8"">7134363735693</Timestamp><Current dt:dt=""r8"">0</Current><DateUtc dt:dt=""string"">2018-10-17T17:15:20Z</DateUtc></FrequencyChange></FrequencyChanges></Clock>\n",KW_Experiment5A-26-1,59.945,1.0.0.105,1,423675659,Professional,2.0.10.353,2.0.10.353,10/17/2018,10/17/2018 17:15,13:15:20,2.0.10.248,3,2,1,3,,,,,,,,TrainingProc,BlockList,39,2,Distractor1.bmp,1,0,,1,0,261053,601,,0,0,purple,600,3,600,5,horizontal,purple,Distractor1.bmp,yellow,Distractor1.bmp,cyan,Distractor1.bmp,blue,Distractor1.bmp,lime,Target2.bmp,red,Distractor1.bmp,,,,TrialProc,,TrainingTrialList,0,2,-999999,1,261654,0,1,613,262267,Target2.bmp,lime,2,,,,5,4,87
KW_Experiment5A,26,1,"<?xml version=""1.0""?>\n<Clock xmlns:dt=""urn:schemas-microsoft-com:datatypes""><Description dt:dt=""string"">E-Prime Primary Realtime Clock</Description><StartTime><Timestamp dt:dt=""int"">0</Timestamp><DateUtc dt:dt=""string"">2018-10-17T17:15:20Z</DateUtc></StartTime><FrequencyChanges><FrequencyChange><Frequency dt:dt=""r8"">3215244</Frequency><Timestamp dt:dt=""r8"">7134363735693</Timestamp><Current dt:dt=""r8"">0</Current><DateUtc dt:dt=""string"">2018-10-17T17:15:20Z</DateUtc></FrequencyChange></FrequencyChanges></Clock>\n",KW_Experiment5A-26-1,59.945,1.0.0.105,1,423675659,Professional,2.0.10.353,2.0.10.353,10/17/2018,10/17/2018 17:15,13:15:20,2.0.10.248,3,2,1,3,,,,,,,,TrainingProc,BlockList,40,2,Distractor1.bmp,1,0,,0,1,263289,600,,0,0,cyan,600,3,600,4,horizontal,cyan,Distractor1.bmp,lime,Target2.bmp,red,Distractor1.bmp,blue,Distractor2.bmp,purple,Distractor1.bmp,yellow,Distractor2.bmp,,,,TrialProc,,TrainingTrialList,1,2,-999999,0,263889,0,2,666,264555,Target2.bmp,lime,2,,,,2,4,88
KW_Experiment5A,26,1,"<?xml version=""1.0""?>\n<Clock xmlns:dt=""urn:schemas-microsoft-com:datatypes""><Description dt:dt=""string"">E-Prime Primary Realtime Clock</Description><StartTime><Timestamp dt:dt=""int"">0</Timestamp><DateUtc dt:dt=""string"">2018-10-17T17:15:20Z</DateUtc></StartTime><FrequencyChanges><FrequencyChange><Frequency dt:dt=""r8"">3215244</Frequency><Timestamp dt:dt=""r8"">7134363735693</Timestamp><Current dt:dt=""r8"">0</Current><DateUtc dt:dt=""string"">2018-10-17T17:15:20Z</DateUtc></FrequencyChange></FrequencyChanges></Clock>\n",KW_Experiment5A-26-1,59.945,1.0.0.105,1,423675659,Professional,2.0.10.353,2.0.10.353,10/17/2018,10/17/2018 17:15,13:15:20,2.0.10.248,3,2,1,3,,,,,,,,TrainingProc,BlockList,41,1,Distractor2.bmp,2,0,,0,1,265574,401,,0,0,yellow,400,1,400,,vertical,yellow,Distractor1.bmp,blue,Distractor1.bmp,purple,Distractor2.bmp,red,Target1.bmp,cyan,Distractor2.bmp,lime,Distractor2.bmp,,,,TrialProc,2,TrainingTrialList,1,1,-999999,1,265975,0,1,684,266659,Target1.bmp,red,1,,,,10,4,89
KW_Experiment5A,26,1,"<?xml version=""1.0""?>\n<Clock xmlns:dt=""urn:schemas-microsoft-com:datatypes""><Description dt:dt=""string"">E-Prime Primary Realtime Clock</Description><StartTime><Timestamp dt:dt=""int"">0</Timestamp><DateUtc dt:dt=""string"">2018-10-17T17:15:20Z</DateUtc></StartTime><FrequencyChanges><FrequencyChange><Frequency dt:dt=""r8"">3215244</Frequency><Timestamp dt:dt=""r8"">7134363735693</Timestamp><Current dt:dt=""r8"">0</Current><DateUtc dt:dt=""string"">2018-10-17T17:15:20Z</DateUtc></FrequencyChange></FrequencyChanges></Clock>\n",KW_Experiment5A-26-1,59.945,1.0.0.105,1,423675659,Professional,2.0.10.353,2.0.10.353,10/17/2018,10/17/2018 17:15,13:15:20,2.0.10.248,3,2,1,3,,,,,,,,TrainingProc,BlockList,42,2,Distractor2.bmp,2,0,,0,1,267676,401,,0,0,blue,400,1,400,3,horizontal,blue,Distractor1.bmp,cyan,Distractor2.bmp,red,Distractor2.bmp,lime,Target2.bmp,yellow,Distractor2.bmp,purple,Distractor1.bmp,,,,TrialProc,,TrainingTrialList,1,2,-999999,1,268077,0,2,622,268699,Target2.bmp,lime,2,,,,4,4,90
