ExperimentName,Subject,Session,Clock.Information,DataFile.Basename,Display.RefreshRate,ExperimentVersion,Group,RandomSeed,RuntimeCapabilities,RuntimeVersion,RuntimeVersionExpected,SessionDate,SessionStartDateTimeUtc,SessionTime,StudioVersion,Block,BlockList,BlockList.Cycle,BlockList.Sample,PostTestQ1.RESP,PostTestQ1CJ.RESP,PostTestQ2.RESP,PostTestQ2CJ.RESP,PostTestQ3.RESP,PostTestQ3CJ.RESP,PostTestSlide.RESP,Procedure[Block],Running[Block],Trial,CorrectResponse,Distractor,DistractorList,Fixation.ACC,Fixation.CRESP,Fixation.DurationError,Fixation.OnsetDelay,Fixation.OnsetTime,Fixation.OnsetToOnsetTime,Fixation.RESP,Fixation.RT,Fixation.RTTime,ItemColor,Jitter,JitterList,JitterTime,Lime0List,Orientation,Pos1Color,Pos1Item,Pos2Color,Pos2Item,Pos3Color,Pos3Item,Pos4Color,Pos4Item,Pos5Color,Pos5Item,Pos6Color,Pos6Item,PracticeTrialList,PracticeTrialList.Cycle,PracticeTrialList.Sample,Procedure[Trial],Red0List,Running[Trial],Stimulus.ACC,Stimulus.CRESP,Stimulus.DurationError,Stimulus.OnsetDelay,Stimulus.OnsetTime,Stimulus.OnsetToOnsetTime,Stimulus.RESP,Stimulus.RT,Stimulus.RTTime,Target,TargetColor,TargetList,TestTrialList,TestTrialList.Cycle,TestTrialList.Sample,TrainingTrialList,TrainingTrialList.Cycle,TrainingTrialList.Sample
KW_Experiment5A,19,1,"<?xml version=""1.0""?>\n<Clock xmlns:dt=""urn:schemas-microsoft-com:datatypes""><Description dt:dt=""string"">E-Prime Primary Realtime Clock</Description><StartTime><Timestamp dt:dt=""int"">0</Timestamp><DateUtc dt:dt=""string"">2018-10-15T16:23:08Z</DateUtc></StartTime><FrequencyChanges><FrequencyChange><Frequency dt:dt=""r8"">3215292</Frequency><Timestamp dt:dt=""r8"">5285279269217</Timestamp><Current dt:dt=""r8"">0</Current><DateUtc dt:dt=""string"">2018-10-15T16:23:08Z</DateUtc></FrequencyChange></FrequencyChanges></Clock>\n",KW_Experiment5A-19-1,59.945,1.0.0.105,1,-1824826156,Professional,2.0.10.353,2.0.10.353,10/15/2018,10/15/2018 16:23,12:23:08,2.0.10.248,1,1,1,1,,,,,,,,PracticeProc,BlockList,1,1,Distractor2.bmp,2,0,,0,91,563516,501,,0,0,purple,500,2,500,5,vertical,lime,Target1.bmp,blue,Distractor2.bmp,red,Distractor1.bmp,cyan,Distractor1.bmp,yellow,Distractor2.bmp,purple,Distractor2.bmp,1,1,1,TrialProc,,PracticeTrialList,1,1,-999999,1,564017,0,1,1008,565025,Target1.bmp,lime,1,,,,,,
KW_Experiment5A,19,1,"<?xml version=""1.0""?>\n<Clock xmlns:dt=""urn:schemas-microsoft-com:datatypes""><Description dt:dt=""string"">E-Prime Primary Realtime Clock</Description><StartTime><Timestamp dt:dt=""int"">0</Timestamp><DateUtc dt:dt=""string"">2018-10-15T16:23:08Z</DateUtc></StartTime><FrequencyChanges><FrequencyChange><Frequency dt:dt=""r8"">3215292</Frequency><Timestamp dt:dt=""r8"">5285279269217</Timestamp><Current dt:dt=""r8"">0</Current><DateUtc dt:dt=""string"">2018-10-15T16:23:08Z</DateUtc></FrequencyChange></FrequencyChanges></Clock>\n",KW_Experiment5A-19-1,59.945,1.0.0.105,1,-1824826156,Professional,2.0.10.353,2.0.10.353,10/15/2018,10/15/2018 16:23,12:23:08,2.0.10.248,1,1,1,1,,,,,,,,PracticeProc,BlockList,2,1,Distractor1.bmp,1,0,,0,1,566052,500,,0,0,yellow,500,2,500,2,vertical,red,Distractor1.bmp,yellow,Distractor1.bmp,lime,Target1.bmp,blue,Distractor1.bmp,purple,Distractor2.bmp,cyan,Distractor2.bmp,3,1,2,TrialProc,,PracticeTrialList,1,1,-999999,0,566552,0,1,1001,567553,Target1.bmp,lime,1,,,,,,
KW_Experiment5A,19,1,"<?xml version=""1.0""?>\n<Clock xmlns:dt=""urn:schemas-microsoft-com:datatypes""><Description dt:dt=""string"">E-Prime Primary Realtime Clock</Description><StartTime><Timestamp dt:dt=""int"">0</Timestamp><DateUtc dt:dt=""string"">2018-10-15T16:23:08Z</DateUtc></StartTime><FrequencyChanges><FrequencyChange><Frequency dt:dt=""r8"">3215292</Frequency><Timestamp dt:dt=""r8"">5285279269217</Timestamp><Current dt:dt=""r8"">0</Current><DateUtc dt:dt=""string"">2018-10-15T16:23:08Z</DateUtc></FrequencyChange></FrequencyChanges></Clock>\n",KW_Experiment5A-19-1,59.945,1.0.0.105,1,-1824826156,Professional,2.0.10.353,2.0.10.353,10/15/2018,10/15/2018 16:23,12:23:08,2.0.10.248,1,1,1,1,,,,,,,,PracticeProc,BlockList,3,1,Distractor2.bmp,2,0,,0,1,568571,400,,0,0,lime,400,1,400,,vertical,lime,Distractor1.bmp,red,Target1.bmp,cyan,Distractor2.bmp,blue,Distractor2.bmp,yellow,Distractor1.bmp,purple,Distractor1.bmp,2,1,3,TrialProc,6,PracticeTrialList,1,1,-999999,0,568971,0,1,1054,570025,Target1.bmp,red,1,,,,,,
KW_Experiment5A,19,1,"<?xml version=""1.0""?>\n<Clock xmlns:dt=""urn:schemas-microsoft-com:datatypes""><Description dt:dt=""string"">E-Prime Primary Realtime Clock</Description><StartTime><Timestamp dt:dt=""int"">0</Timestamp><DateUtc dt:dt=""string"">2018-10-15T16:23:08Z</DateUtc></StartTime><FrequencyChanges><FrequencyChange><Frequency dt:dt=""r8"">3215292</Frequency><Timestamp dt:dt=""r8"">5285279269217</Timestamp><Current dt:dt=""r8"">0</Current><DateUtc dt:dt=""string"">2018-10-15T16:23:08Z</DateUtc></FrequencyChange></FrequencyChanges></Clock>\n",KW_Experiment5A-19-1,59.945,1.0.0.105,1,-1824826156,Professional,2.0.10.353,2.0.10.353,10/15/2018,10/15/2018 16:23,12:23:08,2.0.10.248,1,1,1,1,,,,,,,,PracticeProc,BlockList,4,2,Distractor1.bmp,1,0,,0,1,571040,500,,0,0,cyan,500,2,500,4,horizontal,blue,Distractor1.bmp,red,Distractor2.bmp,yellow,Distractor2.bmp,cyan,Distractor1.bmp,lime,Target2.bmp,purple,Distractor1.bmp,5,1,4,TrialProc,,PracticeTrialList,1,2,-999999,0,571540,0,2,716,572256,Target2.bmp,lime,2,,,,,,
KW_Experiment5A,19,1,"<?xml version=""1.0""?>\n<Clock xmlns:dt=""urn:schemas-microsoft-com:datatypes""><Description dt:dt=""string"">E-Prime Primary Realtime Clock</Description><StartTime><Timestamp dt:dt=""int"">0</Timestamp><DateUtc dt:dt=""string"">2018-10-15T16:23:08Z</DateUtc></StartTime><FrequencyChanges><FrequencyChange><Frequency dt:dt=""r8"">3215292</Frequency><Timestamp dt:dt=""r8"">5285279269217</Timestamp><Current dt:dt=""r8"">0</Current><DateUtc dt:dt=""string"">2018-10-15T16:23:08Z</DateUtc></FrequencyChange></FrequencyChanges></Clock>\n",KW_Experiment5A-19-1,59.945,1.0.0.105,1,-1824826156,Professional,2.0.10.353,2.0.10.353,10/15/2018,10/15/2018 16:23,12:23:08,2.0.10.248,1,1,1,1,,,,,,,,PracticeProc,BlockList,5,1,Distractor2.bmp,2,0,,0,1,573275,501,,0,0,lime,500,2,500,,vertical,blue,Distractor1.bmp,yellow,Distractor1.bmp,lime,Distractor1.bmp,red,Target1.bmp,purple,Distractor2.bmp,cyan,Distractor2.bmp,4,1,5,TrialProc,6,PracticeTrialList,1,1,-999999,1,573776,0,1,728,574504,Target1.bmp,red,1,,,,,,
KW_Experiment5A,19,1,"<?xml version=""1.0""?>\n<Clock xmlns:dt=""urn:schemas-microsoft-com:datatypes""><Description dt:dt=""string"">E-Prime Primary Realtime Clock</Description><StartTime><Timestamp dt:dt=""int"">0</Timestamp><DateUtc dt:dt=""string"">2018-10-15T16:23:08Z</DateUtc></StartTime><FrequencyChanges><FrequencyChange><Frequency dt:dt=""r8"">3215292</Frequency><Timestamp dt:dt=""r8"">5285279269217</Timestamp><Current dt:dt=""r8"">0</Current><DateUtc dt:dt=""string"">2018-10-15T16:23:08Z</DateUtc></FrequencyChange></FrequencyChanges></Clock>\n",KW_Experiment5A-19-1,59.945,1.0.0.105,1,-1824826156,Professional,2.0.10.353,2.0.10.353,10/15/2018,10/15/2018 16:23,12:23:08,2.0.10.248,1,1,1,1,,,,,,,,PracticeProc,BlockList,6,1,Distractor2.bmp,2,0,,0,1,575527,400,,0,0,yellow,400,1,400,,vertical,cyan,Distractor2.bmp,purple,Distractor1.bmp,blue,Distractor2.bmp,lime,Distractor1.bmp,yellow,Distractor2.bmp,red,Target1.bmp,6,1,6,TrialProc,2,PracticeTrialList,1,1,-999999,0,575927,0,1,729,576656,Target1.bmp,red,1,,,,,,
KW_Experiment5A,19,1,"<?xml version=""1.0""?>\n<Clock xmlns:dt=""urn:schemas-microsoft-com:datatypes""><Description dt:dt=""string"">E-Prime Primary Realtime Clock</Description><StartTime><Timestamp dt:dt=""int"">0</Timestamp><DateUtc dt:dt=""string"">2018-10-15T16:23:08Z</DateUtc></StartTime><FrequencyChanges><FrequencyChange><Frequency dt:dt=""r8"">3215292</Frequency><Timestamp dt:dt=""r8"">5285279269217</Timestamp><Current dt:dt=""r8"">0</Current><DateUtc dt:dt=""string"">2018-10-15T16:23:08Z</DateUtc></FrequencyChange></FrequencyChanges></Clock>\n",KW_Experiment5A-19-1,59.945,1.0.0.105,1,-1824826156,Professional,2.0.10.353,2.0.10.353,10/15/2018,10/15/2018 16:23,12:23:08,2.0.10.248,2,2,1,2,,,,,,,,TrainingProc,BlockList,1,1,Distractor1.bmp,1,0,,0,28,584836,400,,0,0,blue,400,1,400,,vertical,blue,Distractor2.bmp,red,Target1.bmp,yellow,Distractor1.bmp,purple,Distractor1.bmp,lime,Distractor1.bmp,cyan,Distractor1.bmp,,,,TrialProc,3,TrainingTrialList,1,1,-999999,0,585236,0,1,588,585824,Target1.bmp,red,1,,,,8,1,1
KW_Experiment5A,19,1,"<?xml version=""1.0""?>\n<Clock xmlns:dt=""urn:schemas-microsoft-com:datatypes""><Description dt:dt=""string"">E-Prime Primary Realtime Clock</Description><StartTime><Timestamp dt:dt=""int"">0</Timestamp><DateUtc dt:dt=""string"">2018-10-15T16:23:08Z</DateUtc></StartTime><FrequencyChanges><FrequencyChange><Frequency dt:dt=""r8"">3215292</Frequency><Timestamp dt:dt=""r8"">5285279269217</Timestamp><Current dt:dt=""r8"">0</Current><DateUtc dt:dt=""string"">2018-10-15T16:23:08Z</DateUtc></FrequencyChange></FrequencyChanges></Clock>\n",KW_Experiment5A-19-1,59.945,1.0.0.105,1,-1824826156,Professional,2.0.10.353,2.0.10.353,10/15/2018,10/15/2018 16:23,12:23:08,2.0.10.248,2,2,1,2,,,,,,,,TrainingProc,BlockList,2,2,Distractor2.bmp,2,0,,0,1,586837,401,,0,0,purple,400,1,400,5,horizontal,lime,Target2.bmp,purple,Distractor2.bmp,cyan,Distractor1.bmp,blue,Distractor1.bmp,red,Distractor1.bmp,yellow,Distractor1.bmp,,,,TrialProc,,TrainingTrialList,1,2,-999999,1,587238,0,2,1010,588248,Target2.bmp,lime,2,,,,1,1,2
KW_Experiment5A,19,1,"<?xml version=""1.0""?>\n<Clock xmlns:dt=""urn:schemas-microsoft-com:datatypes""><Description dt:dt=""string"">E-Prime Primary Realtime Clock</Description><StartTime><Timestamp dt:dt=""int"">0</Timestamp><DateUtc dt:dt=""string"">2018-10-15T16:23:08Z</DateUtc></StartTime><FrequencyChanges><FrequencyChange><Frequency dt:dt=""r8"">3215292</Frequency><Timestamp dt:dt=""r8"">5285279269217</Timestamp><Current dt:dt=""r8"">0</Current><DateUtc dt:dt=""string"">2018-10-15T16:23:08Z</DateUtc></FrequencyChange></FrequencyChanges></Clock>\n",KW_Experiment5A-19-1,59.945,1.0.0.105,1,-1824826156,Professional,2.0.10.353,2.0.10.353,10/15/2018,10/15/2018 16:23,12:23:08,2.0.10.248,2,2,1,2,,,,,,,,TrainingProc,BlockList,3,2,Distractor2.bmp,2,0,,0,1,589273,600,,0,0,cyan,600,3,600,,horizontal,cyan,Distractor2.bmp,blue,Distractor2.bmp,lime,Distractor2.bmp,purple,Distractor2.bmp,yellow,Distractor2.bmp,red,Target2.bmp,,,,TrialProc,4,TrainingTrialList,0,2,-999999,0,589873,0,1,415,590288,Target2.bmp,red,2,,,,12,1,3
KW_Experiment5A,19,1,"<?xml version=""1.0""?>\n<Clock xmlns:dt=""urn:schemas-microsoft-com:datatypes""><Description dt:dt=""string"">E-Prime Primary Realtime Clock</Description><StartTime><Timestamp dt:dt=""int"">0</Timestamp><DateUtc dt:dt=""string"">2018-10-15T16:23:08Z</DateUtc></StartTime><FrequencyChanges><FrequencyChange><Frequency dt:dt=""r8"">3215292</Frequency><Timestamp dt:dt=""r8"">5285279269217</Timestamp><Current dt:dt=""r8"">0</Current><DateUtc dt:dt=""string"">2018-10-15T16:23:08Z</DateUtc></FrequencyChange></FrequencyChanges></Clock>\n",KW_Experiment5A-19-1,59.945,1.0.0.105,1,-1824826156,Professional,2.0.10.353,2.0.10.353,10/15/2018,10/15/2018 16:23,12:23:08,2.0.10.248,2,2,1,2,,,,,,,,TrainingProc,BlockList,4,1,Distractor1.bmp,1,0,,0,1,591308,601,,0,0,blue,600,3,600,3,vertical,blue,Distractor1.bmp,purple,Distractor1.bmp,red,Distractor1.bmp,lime,Target1.bmp,cyan,Distractor1.bmp,yellow,Distractor1.bmp,,,,TrialProc,,TrainingTrialList,1,1,-999999,1,591909,0,1,755,592664,Target1.bmp,lime,1,,,,4,1,4
KW_Experiment5A,19,1,"<?xml version=""1.0""?>\n<Clock xmlns:dt=""urn:schemas-microsoft-com:datatypes""><Description dt:dt=""string"">E-Prime Primary Realtime Clock</Description><StartTime><Timestamp dt:dt=""int"">0</Timestamp><DateUtc dt:dt=""string"">2018-10-15T16:23:08Z</DateUtc></StartTime><FrequencyChanges><FrequencyChange><Frequency dt:dt=""r8"">3215292</Frequency><Timestamp dt:dt=""r8"">5285279269217</Timestamp><Current dt:dt=""r8"">0</Current><DateUtc dt:dt=""string"">2018-10-15T16:23:08Z</DateUtc></FrequencyChange></FrequencyChanges></Clock>\n",KW_Experiment5A-19-1,59.945,1.0.0.105,1,-1824826156,Professional,2.0.10.353,2.0.10.353,10/15/2018,10/15/2018 16:23,12:23:08,2.0.10.248,2,2,1,2,,,,,,,,TrainingProc,BlockList,5,1,Distractor2.bmp,2,0,,0,1,593677,400,,0,0,yellow,400,1,400,2,vertical,yellow,Distractor1.bmp,cyan,Distractor2.bmp,blue,Distractor2.bmp,red,Distractor1.bmp,lime,Target1.bmp,purple,Distractor2.bmp,,,,TrialProc,,TrainingTrialList,1,1,-999999,0,594077,0,1,483,594560,Target1.bmp,lime,1,,,,5,1,5
KW_Experiment5A,19,1,"<?xml version=""1.0""?>\n<Clock xmlns:dt=""urn:schemas-microsoft-com:datatypes""><Description dt:dt=""string"">E-Prime Primary Realtime Clock</Description><StartTime><Timestamp dt:dt=""int"">0</Timestamp><DateUtc dt:dt=""string"">2018-10-15T16:23:08Z</DateUtc></StartTime><FrequencyChanges><FrequencyChange><Frequency dt:dt=""r8"">3215292</Frequency><Timestamp dt:dt=""r8"">5285279269217</Timestamp><Current dt:dt=""r8"">0</Current><DateUtc dt:dt=""string"">2018-10-15T16:23:08Z</DateUtc></FrequencyChange></FrequencyChanges></Clock>\n",KW_Experiment5A-19-1,59.945,1.0.0.105,1,-1824826156,Professional,2.0.10.353,2.0.10.353,10/15/2018,10/15/2018 16:23,12:23:08,2.0.10.248,2,2,1,2,,,,,,,,TrainingProc,BlockList,6,2,Distractor2.bmp,2,0,,0,1,595579,600,,0,0,purple,600,3,600,5,horizontal,purple,Distractor2.bmp,red,Distractor2.bmp,yellow,Distractor2.bmp,cyan,Distractor2.bmp,blue,Distractor2.bmp,lime,Target2.bmp,,,,TrialProc,,TrainingTrialList,1,2,-999999,0,596179,0,2,557,596736,Target2.bmp,lime,2,,,,6,1,6
KW_Experiment5A,19,1,"<?xml version=""1.0""?>\n<Clock xmlns:dt=""urn:schemas-microsoft-com:datatypes""><Description dt:dt=""string"">E-Prime Primary Realtime Clock</Description><StartTime><Timestamp dt:dt=""int"">0</Timestamp><DateUtc dt:dt=""string"">2018-10-15T16:23:08Z</DateUtc></StartTime><FrequencyChanges><FrequencyChange><Frequency dt:dt=""r8"">3215292</Frequency><Timestamp dt:dt=""r8"">5285279269217</Timestamp><Current dt:dt=""r8"">0</Current><DateUtc dt:dt=""string"">2018-10-15T16:23:08Z</DateUtc></FrequencyChange></FrequencyChanges></Clock>\n",KW_Experiment5A-19-1,59.945,1.0.0.105,1,-1824826156,Professional,2.0.10.353,2.0.10.353,10/15/2018,10/15/2018 16:23,12:23:08,2.0.10.248,2,2,1,2,,,,,,,,TrainingProc,BlockList,7,2,Distractor1.bmp,1,0,,0,1,597747,601,,0,0,red,600,3,600,1,horizontal,red,Distractor2.bmp,lime,Target2.bmp,cyan,Distractor1.bmp,purple,Distractor2.bmp,blue,Distractor1.bmp,yellow,Distractor2.bmp,,,,TrialProc,,TrainingTrialList,1,2,-999999,1,598348,0,2,628,598976,Target2.bmp,lime,2,,,,2,1,7
KW_Experiment5A,19,1,"<?xml version=""1.0""?>\n<Clock xmlns:dt=""urn:schemas-microsoft-com:datatypes""><Description dt:dt=""string"">E-Prime Primary Realtime Clock</Description><StartTime><Timestamp dt:dt=""int"">0</Timestamp><DateUtc dt:dt=""string"">2018-10-15T16:23:08Z</DateUtc></StartTime><FrequencyChanges><FrequencyChange><Frequency dt:dt=""r8"">3215292</Frequency><Timestamp dt:dt=""r8"">5285279269217</Timestamp><Current dt:dt=""r8"">0</Current><DateUtc dt:dt=""string"">2018-10-15T16:23:08Z</DateUtc></FrequencyChange></FrequencyChanges></Clock>\n",KW_Experiment5A-19-1,59.945,1.0.0.105,1,-1824826156,Professional,2.0.10.353,2.0.10.353,10/15/2018,10/15/2018 16:23,12:23:08,2.0.10.248,2,2,1,2,,,,,,,,TrainingProc,BlockList,8,1,Distractor2.bmp,2,0,,0,1,599999,601,,0,0,purple,600,3,600,5,vertical,purple,Distractor1.bmp,yellow,Distractor2.bmp,cyan,Distractor1.bmp,red,Distractor2.bmp,lime,Target1.bmp,blue,Distractor2.bmp,,,,TrialProc,,TrainingTrialList,1,1,-999999,1,600600,0,1,560,601160,Target1.bmp,lime,1,,,,5,1,8
KW_Experiment5A,19,1,"<?xml version=""1.0""?>\n<Clock xmlns:dt=""urn:schemas-microsoft-com:datatypes""><Description dt:dt=""string"">E-Prime Primary Realtime Clock</Description><StartTime><Timestamp dt:dt=""int"">0</Timestamp><DateUtc dt:dt=""string"">2018-10-15T16:23:08Z</DateUtc></StartTime><FrequencyChanges><FrequencyChange><Frequency dt:dt=""r8"">3215292</Frequency><Timestamp dt:dt=""r8"">5285279269217</Timestamp><Current dt:dt=""r8"">0</Current><DateUtc dt:dt=""string"">2018-10-15T16:23:08Z</DateUtc></FrequencyChange></FrequencyChanges></Clock>\n",KW_Experiment5A-19-1,59.945,1.0.0.105,1,-1824826156,Professional,2.0.10.353,2.0.10.353,10/15/2018,10/15/2018 16:23,12:23:08,2.0.10.248,2,2,1,2,,,,,,,,TrainingProc,BlockList,9,2,Distractor2.bmp,2,0,,0,1,602185,600,,0,0,blue,600,3,600,3,horizontal,blue,Distractor2.bmp,lime,Target2.bmp,yellow,Distractor2.bmp,red,Distractor2.bmp,purple,Distractor1.bmp,cyan,Distractor1.bmp,,,,TrialProc,,TrainingTrialList,1,2,-999999,0,602785,0,2,607,603392,Target2.bmp,lime,2,,,,2,1,9
KW_Experiment5A,19,1,"<?xml version=""1.0""?>\n<Clock xmlns:dt=""urn:schemas-microsoft-com:datatypes""><Description dt:dt=""string"">E-Prime Primary Realtime Clock</Description><StartTime><Timestamp dt:dt=""int"">0</Timestamp><DateUtc dt:dt=""string"">2018-10-15T16:23:08Z</DateUtc></StartTime><FrequencyChanges><FrequencyChange><Frequency dt:dt=""r8"">3215292</Frequency><Timestamp dt:dt=""r8"">5285279269217</Timestamp><Current dt:dt=""r8"">0</Current><DateUtc dt:dt=""string"">2018-10-15T16:23:08Z</DateUtc></FrequencyChange></FrequencyChanges></Clock>\n",KW_Experiment5A-19-1,59.945,1.0.0.105,1,-1824826156,Professional,2.0.10.353,2.0.10.353,10/15/2018,10/15/2018 16:23,12:23:08,2.0.10.248,2,2,1,2,,,,,,,,TrainingProc,BlockList,10,2,Distractor1.bmp,1,0,,0,1,604403,401,,0,0,yellow,400,1,400,2,horizontal,yellow,Distractor1.bmp,red,Distractor1.bmp,purple,Distractor2.bmp,blue,Distractor1.bmp,lime,Target2.bmp,cyan,Distractor1.bmp,,,,TrialProc,,TrainingTrialList,0,2,-999999,1,604804,0,1,452,605256,Target2.bmp,lime,2,,,,5,1,10
KW_Experiment5A,19,1,"<?xml version=""1.0""?>\n<Clock xmlns:dt=""urn:schemas-microsoft-com:datatypes""><Description dt:dt=""string"">E-Prime Primary Realtime Clock</Description><StartTime><Timestamp dt:dt=""int"">0</Timestamp><DateUtc dt:dt=""string"">2018-10-15T16:23:08Z</DateUtc></StartTime><FrequencyChanges><FrequencyChange><Frequency dt:dt=""r8"">3215292</Frequency><Timestamp dt:dt=""r8"">5285279269217</Timestamp><Current dt:dt=""r8"">0</Current><DateUtc dt:dt=""string"">2018-10-15T16:23:08Z</DateUtc></FrequencyChange></FrequencyChanges></Clock>\n",KW_Experiment5A-19-1,59.945,1.0.0.105,1,-1824826156,Professional,2.0.10.353,2.0.10.353,10/15/2018,10/15/2018 16:23,12:23:08,2.0.10.248,2,2,1,2,,,,,,,,TrainingProc,BlockList,11,2,Distractor1.bmp,1,0,,0,1,606272,400,,0,0,lime,400,1,400,,horizontal,lime,Distractor2.bmp,cyan,Distractor1.bmp,red,Target2.bmp,yellow,Distractor1.bmp,purple,Distractor2.bmp,blue,Distractor2.bmp,,,,TrialProc,6,TrainingTrialList,1,2,-999999,0,606672,0,2,784,607456,Target2.bmp,red,2,,,,9,1,11
KW_Experiment5A,19,1,"<?xml version=""1.0""?>\n<Clock xmlns:dt=""urn:schemas-microsoft-com:datatypes""><Description dt:dt=""string"">E-Prime Primary Realtime Clock</Description><StartTime><Timestamp dt:dt=""int"">0</Timestamp><DateUtc dt:dt=""string"">2018-10-15T16:23:08Z</DateUtc></StartTime><FrequencyChanges><FrequencyChange><Frequency dt:dt=""r8"">3215292</Frequency><Timestamp dt:dt=""r8"">5285279269217</Timestamp><Current dt:dt=""r8"">0</Current><DateUtc dt:dt=""string"">2018-10-15T16:23:08Z</DateUtc></FrequencyChange></FrequencyChanges></Clock>\n",KW_Experiment5A-19-1,59.945,1.0.0.105,1,-1824826156,Professional,2.0.10.353,2.0.10.353,10/15/2018,10/15/2018 16:23,12:23:08,2.0.10.248,2,2,1,2,,,,,,,,TrainingProc,BlockList,12,2,Distractor1.bmp,1,0,,0,1,608474,400,,0,0,purple,400,1,400,5,horizontal,lime,Target2.bmp,purple,Distractor1.bmp,blue,Distractor2.bmp,yellow,Distractor2.bmp,cyan,Distractor1.bmp,red,Distractor2.bmp,,,,TrialProc,,TrainingTrialList,1,2,-999999,0,608874,0,2,766,609640,Target2.bmp,lime,2,,,,1,1,12
KW_Experiment5A,19,1,"<?xml version=""1.0""?>\n<Clock xmlns:dt=""urn:schemas-microsoft-com:datatypes""><Description dt:dt=""string"">E-Prime Primary Realtime Clock</Description><StartTime><Timestamp dt:dt=""int"">0</Timestamp><DateUtc dt:dt=""string"">2018-10-15T16:23:08Z</DateUtc></StartTime><FrequencyChanges><FrequencyChange><Frequency dt:dt=""r8"">3215292</Frequency><Timestamp dt:dt=""r8"">5285279269217</Timestamp><Current dt:dt=""r8"">0</Current><DateUtc dt:dt=""string"">2018-10-15T16:23:08Z</DateUtc></FrequencyChange></FrequencyChanges></Clock>\n",KW_Experiment5A-19-1,59.945,1.0.0.105,1,-1824826156,Professional,2.0.10.353,2.0.10.353,10/15/2018,10/15/2018 16:23,12:23:08,2.0.10.248,2,2,1,2,,,,,,,,TrainingProc,BlockList,13,1,Distractor1.bmp,1,0,,0,1,610659,500,,0,0,blue,500,2,500,3,vertical,blue,Distractor2.bmp,yellow,Distractor2.bmp,lime,Target1.bmp,cyan,Distractor1.bmp,purple,Distractor1.bmp,red,Distractor2.bmp,,,,TrialProc,,TrainingTrialList,1,1,-999999,0,611159,0,1,648,611807,Target1.bmp,lime,1,,,,3,1,13
KW_Experiment5A,19,1,"<?xml version=""1.0""?>\n<Clock xmlns:dt=""urn:schemas-microsoft-com:datatypes""><Description dt:dt=""string"">E-Prime Primary Realtime Clock</Description><StartTime><Timestamp dt:dt=""int"">0</Timestamp><DateUtc dt:dt=""string"">2018-10-15T16:23:08Z</DateUtc></StartTime><FrequencyChanges><FrequencyChange><Frequency dt:dt=""r8"">3215292</Frequency><Timestamp dt:dt=""r8"">5285279269217</Timestamp><Current dt:dt=""r8"">0</Current><DateUtc dt:dt=""string"">2018-10-15T16:23:08Z</DateUtc></FrequencyChange></FrequencyChanges></Clock>\n",KW_Experiment5A-19-1,59.945,1.0.0.105,1,-1824826156,Professional,2.0.10.353,2.0.10.353,10/15/2018,10/15/2018 16:23,12:23:08,2.0.10.248,2,2,1,2,,,,,,,,TrainingProc,BlockList,14,2,Distractor1.bmp,1,0,,0,1,612828,500,,0,0,yellow,500,2,500,2,horizontal,yellow,Distractor1.bmp,blue,Distractor2.bmp,cyan,Distractor1.bmp,purple,Distractor2.bmp,red,Distractor1.bmp,lime,Target2.bmp,,,,TrialProc,,TrainingTrialList,1,2,-999999,0,613328,0,2,615,613943,Target2.bmp,lime,2,,,,6,1,14
KW_Experiment5A,19,1,"<?xml version=""1.0""?>\n<Clock xmlns:dt=""urn:schemas-microsoft-com:datatypes""><Description dt:dt=""string"">E-Prime Primary Realtime Clock</Description><StartTime><Timestamp dt:dt=""int"">0</Timestamp><DateUtc dt:dt=""string"">2018-10-15T16:23:08Z</DateUtc></StartTime><FrequencyChanges><FrequencyChange><Frequency dt:dt=""r8"">3215292</Frequency><Timestamp dt:dt=""r8"">5285279269217</Timestamp><Current dt:dt=""r8"">0</Current><DateUtc dt:dt=""string"">2018-10-15T16:23:08Z</DateUtc></FrequencyChange></FrequencyChanges></Clock>\n",KW_Experiment5A-19-1,59.945,1.0.0.105,1,-1824826156,Professional,2.0.10.353,2.0.10.353,10/15/2018,10/15/2018 16:23,12:23:08,2.0.10.248,2,2,1,2,,,,,,,,TrainingProc,BlockList,15,2,Distractor1.bmp,1,0,,0,1,614963,500,,0,0,lime,500,2,500,,horizontal,lime,Distractor1.bmp,purple,Distractor2.bmp,yellow,Distractor2.bmp,cyan,Distractor2.bmp,red,Target2.bmp,blue,Distractor1.bmp,,,,TrialProc,6,TrainingTrialList,1,2,-999999,0,615463,0,2,800,616263,Target2.bmp,red,2,,,,11,1,15
KW_Experiment5A,19,1,"<?xml version=""1.0""?>\n<Clock xmlns:dt=""urn:schemas-microsoft-com:datatypes""><Description dt:dt=""string"">E-Prime Primary Realtime Clock</Description><StartTime><Timestamp dt:dt=""int"">0</Timestamp><DateUtc dt:dt=""string"">2018-10-15T16:23:08Z</DateUtc></StartTime><FrequencyChanges><FrequencyChange><Frequency dt:dt=""r8"">3215292</Frequency><Timestamp dt:dt=""r8"">5285279269217</Timestamp><Current dt:dt=""r8"">0</Current><DateUtc dt:dt=""string"">2018-10-15T16:23:08Z</DateUtc></FrequencyChange></FrequencyChanges></Clock>\n",KW_Experiment5A-19-1,59.945,1.0.0.105,1,-1824826156,Professional,2.0.10.353,2.0.10.353,10/15/2018,10/15/2018 16:23,12:23:08,2.0.10.248,2,2,1,2,,,,,,,,TrainingProc,BlockList,16,1,Distractor1.bmp,1,0,,0,1,617282,600,,0,0,red,600,3,600,1,vertical,red,Distractor1.bmp,blue,Distractor1.bmp,cyan,Distractor1.bmp,lime,Target1.bmp,purple,Distractor1.bmp,yellow,Distractor1.bmp,,,,TrialProc,,TrainingTrialList,1,1,-999999,0,617882,0,1,597,618479,Target1.bmp,lime,1,,,,4,1,16
KW_Experiment5A,19,1,"<?xml version=""1.0""?>\n<Clock xmlns:dt=""urn:schemas-microsoft-com:datatypes""><Description dt:dt=""string"">E-Prime Primary Realtime Clock</Description><StartTime><Timestamp dt:dt=""int"">0</Timestamp><DateUtc dt:dt=""string"">2018-10-15T16:23:08Z</DateUtc></StartTime><FrequencyChanges><FrequencyChange><Frequency dt:dt=""r8"">3215292</Frequency><Timestamp dt:dt=""r8"">5285279269217</Timestamp><Current dt:dt=""r8"">0</Current><DateUtc dt:dt=""string"">2018-10-15T16:23:08Z</DateUtc></FrequencyChange></FrequencyChanges></Clock>\n",KW_Experiment5A-19-1,59.945,1.0.0.105,1,-1824826156,Professional,2.0.10.353,2.0.10.353,10/15/2018,10/15/2018 16:23,12:23:08,2.0.10.248,2,2,1,2,,,,,,,,TrainingProc,BlockList,17,1,Distractor1.bmp,1,0,,0,1,619500,601,,0,0,red,600,3,600,1,vertical,red,Distractor2.bmp,cyan,Distractor2.bmp,lime,Target1.bmp,yellow,Distractor1.bmp,purple,Distractor2.bmp,blue,Distractor1.bmp,,,,TrialProc,,TrainingTrialList,1,1,-999999,1,620101,0,1,682,620783,Target1.bmp,lime,1,,,,3,1,17
KW_Experiment5A,19,1,"<?xml version=""1.0""?>\n<Clock xmlns:dt=""urn:schemas-microsoft-com:datatypes""><Description dt:dt=""string"">E-Prime Primary Realtime Clock</Description><StartTime><Timestamp dt:dt=""int"">0</Timestamp><DateUtc dt:dt=""string"">2018-10-15T16:23:08Z</DateUtc></StartTime><FrequencyChanges><FrequencyChange><Frequency dt:dt=""r8"">3215292</Frequency><Timestamp dt:dt=""r8"">5285279269217</Timestamp><Current dt:dt=""r8"">0</Current><DateUtc dt:dt=""string"">2018-10-15T16:23:08Z</DateUtc></FrequencyChange></FrequencyChanges></Clock>\n",KW_Experiment5A-19-1,59.945,1.0.0.105,1,-1824826156,Professional,2.0.10.353,2.0.10.353,10/15/2018,10/15/2018 16:23,12:23:08,2.0.10.248,2,2,1,2,,,,,,,,TrainingProc,BlockList,18,2,Distractor1.bmp,1,0,,1,0,621802,501,,0,0,blue,500,2,500,3,horizontal,blue,Distractor1.bmp,purple,Distractor2.bmp,lime,Target2.bmp,yellow,Distractor1.bmp,red,Distractor1.bmp,cyan,Distractor2.bmp,,,,TrialProc,,TrainingTrialList,1,2,-999999,1,622303,0,2,616,622919,Target2.bmp,lime,2,,,,3,1,18
KW_Experiment5A,19,1,"<?xml version=""1.0""?>\n<Clock xmlns:dt=""urn:schemas-microsoft-com:datatypes""><Description dt:dt=""string"">E-Prime Primary Realtime Clock</Description><StartTime><Timestamp dt:dt=""int"">0</Timestamp><DateUtc dt:dt=""string"">2018-10-15T16:23:08Z</DateUtc></StartTime><FrequencyChanges><FrequencyChange><Frequency dt:dt=""r8"">3215292</Frequency><Timestamp dt:dt=""r8"">5285279269217</Timestamp><Current dt:dt=""r8"">0</Current><DateUtc dt:dt=""string"">2018-10-15T16:23:08Z</DateUtc></FrequencyChange></FrequencyChanges></Clock>\n",KW_Experiment5A-19-1,59.945,1.0.0.105,1,-1824826156,Professional,2.0.10.353,2.0.10.353,10/15/2018,10/15/2018 16:23,12:23:08,2.0.10.248,2,2,1,2,,,,,,,,TrainingProc,BlockList,19,2,Distractor1.bmp,1,0,,0,1,623938,400,,0,0,cyan,400,1,400,,horizontal,cyan,Distractor2.bmp,lime,Distractor2.bmp,purple,Distractor2.bmp,red,Target2.bmp,yellow,Distractor1.bmp,blue,Distractor2.bmp,,,,TrialProc,4,TrainingTrialList,1,2,-999999,0,624338,0,2,653,624991,Target2.bmp,red,2,,,,10,1,19
KW_Experiment5A,19,1,"<?xml version=""1.0""?>\n<Clock xmlns:dt=""urn:schemas-microsoft-com:datatypes""><Description dt:dt=""string"">E-Prime Primary Realtime Clock</Description><StartTime><Timestamp dt:dt=""int"">0</Timestamp><DateUtc dt:dt=""string"">2018-10-15T16:23:08Z</DateUtc></StartTime><FrequencyChanges><FrequencyChange><Frequency dt:dt=""r8"">3215292</Frequency><Timestamp dt:dt=""r8"">5285279269217</Timestamp><Current dt:dt=""r8"">0</Current><DateUtc dt:dt=""string"">2018-10-15T16:23:08Z</DateUtc></FrequencyChange></FrequencyChanges></Clock>\n",KW_Experiment5A-19-1,59.945,1.0.0.105,1,-1824826156,Professional,2.0.10.353,2.0.10.353,10/15/2018,10/15/2018 16:23,12:23:08,2.0.10.248,2,2,1,2,,,,,,,,TrainingProc,BlockList,20,2,Distractor1.bmp,1,0,,0,1,626006,401,,0,0,cyan,400,1,400,,horizontal,red,Target2.bmp,lime,Distractor1.bmp,yellow,Distractor1.bmp,purple,Distractor2.bmp,blue,Distractor1.bmp,cyan,Distractor1.bmp,,,,TrialProc,4,TrainingTrialList,1,2,-999999,1,626407,0,2,776,627183,Target2.bmp,red,2,,,,7,1,20
KW_Experiment5A,19,1,"<?xml version=""1.0""?>\n<Clock xmlns:dt=""urn:schemas-microsoft-com:datatypes""><Description dt:dt=""string"">E-Prime Primary Realtime Clock</Description><StartTime><Timestamp dt:dt=""int"">0</Timestamp><DateUtc dt:dt=""string"">2018-10-15T16:23:08Z</DateUtc></StartTime><FrequencyChanges><FrequencyChange><Frequency dt:dt=""r8"">3215292</Frequency><Timestamp dt:dt=""r8"">5285279269217</Timestamp><Current dt:dt=""r8"">0</Current><DateUtc dt:dt=""string"">2018-10-15T16:23:08Z</DateUtc></FrequencyChange></FrequencyChanges></Clock>\n",KW_Experiment5A-19-1,59.945,1.0.0.105,1,-1824826156,Professional,2.0.10.353,2.0.10.353,10/15/2018,10/15/2018 16:23,12:23:08,2.0.10.248,2,2,1,2,,,,,,,,TrainingProc,BlockList,21,2,Distractor1.bmp,1,0,,0,1,628208,601,,0,0,yellow,600,3,600,2,horizontal,yellow,Distractor1.bmp,red,Distractor1.bmp,cyan,Distractor2.bmp,blue,Distractor1.bmp,purple,Distractor1.bmp,lime,Target2.bmp,,,,TrialProc,,TrainingTrialList,1,2,-999999,1,628809,0,2,558,629367,Target2.bmp,lime,2,,,,6,1,21
KW_Experiment5A,19,1,"<?xml version=""1.0""?>\n<Clock xmlns:dt=""urn:schemas-microsoft-com:datatypes""><Description dt:dt=""string"">E-Prime Primary Realtime Clock</Description><StartTime><Timestamp dt:dt=""int"">0</Timestamp><DateUtc dt:dt=""string"">2018-10-15T16:23:08Z</DateUtc></StartTime><FrequencyChanges><FrequencyChange><Frequency dt:dt=""r8"">3215292</Frequency><Timestamp dt:dt=""r8"">5285279269217</Timestamp><Current dt:dt=""r8"">0</Current><DateUtc dt:dt=""string"">2018-10-15T16:23:08Z</DateUtc></FrequencyChange></FrequencyChanges></Clock>\n",KW_Experiment5A-19-1,59.945,1.0.0.105,1,-1824826156,Professional,2.0.10.353,2.0.10.353,10/15/2018,10/15/2018 16:23,12:23:08,2.0.10.248,2,2,1,2,,,,,,,,TrainingProc,BlockList,22,2,Distractor1.bmp,1,0,,0,1,630377,400,,0,0,blue,400,1,400,3,horizontal,blue,Distractor2.bmp,lime,Target2.bmp,red,Distractor1.bmp,yellow,Distractor1.bmp,cyan,Distractor1.bmp,purple,Distractor2.bmp,,,,TrialProc,,TrainingTrialList,1,2,-999999,0,630777,0,2,694,631471,Target2.bmp,lime,2,,,,2,1,22
KW_Experiment5A,19,1,"<?xml version=""1.0""?>\n<Clock xmlns:dt=""urn:schemas-microsoft-com:datatypes""><Description dt:dt=""string"">E-Prime Primary Realtime Clock</Description><StartTime><Timestamp dt:dt=""int"">0</Timestamp><DateUtc dt:dt=""string"">2018-10-15T16:23:08Z</DateUtc></StartTime><FrequencyChanges><FrequencyChange><Frequency dt:dt=""r8"">3215292</Frequency><Timestamp dt:dt=""r8"">5285279269217</Timestamp><Current dt:dt=""r8"">0</Current><DateUtc dt:dt=""string"">2018-10-15T16:23:08Z</DateUtc></FrequencyChange></FrequencyChanges></Clock>\n",KW_Experiment5A-19-1,59.945,1.0.0.105,1,-1824826156,Professional,2.0.10.353,2.0.10.353,10/15/2018,10/15/2018 16:23,12:23:08,2.0.10.248,2,2,1,2,,,,,,,,TrainingProc,BlockList,23,1,Distractor1.bmp,1,0,,1,0,632495,601,,0,0,blue,600,3,600,3,vertical,blue,Distractor1.bmp,cyan,Distractor1.bmp,purple,Distractor2.bmp,lime,Target1.bmp,yellow,Distractor1.bmp,red,Distractor2.bmp,,,,TrialProc,,TrainingTrialList,1,1,-999999,1,633096,0,1,623,633719,Target1.bmp,lime,1,,,,4,1,23
KW_Experiment5A,19,1,"<?xml version=""1.0""?>\n<Clock xmlns:dt=""urn:schemas-microsoft-com:datatypes""><Description dt:dt=""string"">E-Prime Primary Realtime Clock</Description><StartTime><Timestamp dt:dt=""int"">0</Timestamp><DateUtc dt:dt=""string"">2018-10-15T16:23:08Z</DateUtc></StartTime><FrequencyChanges><FrequencyChange><Frequency dt:dt=""r8"">3215292</Frequency><Timestamp dt:dt=""r8"">5285279269217</Timestamp><Current dt:dt=""r8"">0</Current><DateUtc dt:dt=""string"">2018-10-15T16:23:08Z</DateUtc></FrequencyChange></FrequencyChanges></Clock>\n",KW_Experiment5A-19-1,59.945,1.0.0.105,1,-1824826156,Professional,2.0.10.353,2.0.10.353,10/15/2018,10/15/2018 16:23,12:23:08,2.0.10.248,2,2,1,2,,,,,,,,TrainingProc,BlockList,24,1,Distractor1.bmp,1,0,,0,1,634731,500,,0,0,cyan,500,2,500,4,vertical,lime,Target1.bmp,cyan,Distractor1.bmp,blue,Distractor2.bmp,purple,Distractor2.bmp,red,Distractor2.bmp,yellow,Distractor2.bmp,,,,TrialProc,,TrainingTrialList,1,1,-999999,0,635231,0,1,512,635743,Target1.bmp,lime,1,,,,1,1,24
KW_Experiment5A,19,1,"<?xml version=""1.0""?>\n<Clock xmlns:dt=""urn:schemas-microsoft-com:datatypes""><Description dt:dt=""string"">E-Prime Primary Realtime Clock</Description><StartTime><Timestamp dt:dt=""int"">0</Timestamp><DateUtc dt:dt=""string"">2018-10-15T16:23:08Z</DateUtc></StartTime><FrequencyChanges><FrequencyChange><Frequency dt:dt=""r8"">3215292</Frequency><Timestamp dt:dt=""r8"">5285279269217</Timestamp><Current dt:dt=""r8"">0</Current><DateUtc dt:dt=""string"">2018-10-15T16:23:08Z</DateUtc></FrequencyChange></FrequencyChanges></Clock>\n",KW_Experiment5A-19-1,59.945,1.0.0.105,1,-1824826156,Professional,2.0.10.353,2.0.10.353,10/15/2018,10/15/2018 16:23,12:23:08,2.0.10.248,2,2,1,2,,,,,,,,TrainingProc,BlockList,25,1,Distractor1.bmp,1,0,,0,1,636766,601,,0,0,yellow,600,3,600,2,vertical,yellow,Distractor1.bmp,lime,Target1.bmp,purple,Distractor1.bmp,cyan,Distractor2.bmp,blue,Distractor1.bmp,red,Distractor1.bmp,,,,TrialProc,,TrainingTrialList,1,1,-999999,1,637367,0,1,608,637975,Target1.bmp,lime,1,,,,2,2,25
KW_Experiment5A,19,1,"<?xml version=""1.0""?>\n<Clock xmlns:dt=""urn:schemas-microsoft-com:datatypes""><Description dt:dt=""string"">E-Prime Primary Realtime Clock</Description><StartTime><Timestamp dt:dt=""int"">0</Timestamp><DateUtc dt:dt=""string"">2018-10-15T16:23:08Z</DateUtc></StartTime><FrequencyChanges><FrequencyChange><Frequency dt:dt=""r8"">3215292</Frequency><Timestamp dt:dt=""r8"">5285279269217</Timestamp><Current dt:dt=""r8"">0</Current><DateUtc dt:dt=""string"">2018-10-15T16:23:08Z</DateUtc></FrequencyChange></FrequencyChanges></Clock>\n",KW_Experiment5A-19-1,59.945,1.0.0.105,1,-1824826156,Professional,2.0.10.353,2.0.10.353,10/15/2018,10/15/2018 16:23,12:23:08,2.0.10.248,2,2,1,2,,,,,,,,TrainingProc,BlockList,26,2,Distractor1.bmp,1,0,,0,1,638985,500,,0,0,yellow,500,2,500,2,horizontal,yellow,Distractor2.bmp,purple,Distractor2.bmp,blue,Distractor1.bmp,cyan,Distractor1.bmp,lime,Target2.bmp,red,Distractor1.bmp,,,,TrialProc,,TrainingTrialList,1,2,-999999,0,639485,0,2,410,639895,Target2.bmp,lime,2,,,,5,2,26
KW_Experiment5A,19,1,"<?xml version=""1.0""?>\n<Clock xmlns:dt=""urn:schemas-microsoft-com:datatypes""><Description dt:dt=""string"">E-Prime Primary Realtime Clock</Description><StartTime><Timestamp dt:dt=""int"">0</Timestamp><DateUtc dt:dt=""string"">2018-10-15T16:23:08Z</DateUtc></StartTime><FrequencyChanges><FrequencyChange><Frequency dt:dt=""r8"">3215292</Frequency><Timestamp dt:dt=""r8"">5285279269217</Timestamp><Current dt:dt=""r8"">0</Current><DateUtc dt:dt=""string"">2018-10-15T16:23:08Z</DateUtc></FrequencyChange></FrequencyChanges></Clock>\n",KW_Experiment5A-19-1,59.945,1.0.0.105,1,-1824826156,Professional,2.0.10.353,2.0.10.353,10/15/2018,10/15/2018 16:23,12:23:08,2.0.10.248,2,2,1,2,,,,,,,,TrainingProc,BlockList,27,2,Distractor2.bmp,2,0,,0,1,640920,600,,0,0,blue,600,3,600,3,horizontal,lime,Target2.bmp,blue,Distractor2.bmp,purple,Distractor2.bmp,yellow,Distractor1.bmp,cyan,Distractor2.bmp,red,Distractor2.bmp,,,,TrialProc,,TrainingTrialList,1,2,-999999,0,641520,0,2,703,642223,Target2.bmp,lime,2,,,,1,2,27
KW_Experiment5A,19,1,"<?xml version=""1.0""?>\n<Clock xmlns:dt=""urn:schemas-microsoft-com:datatypes""><Description dt:dt=""string"">E-Prime Primary Realtime Clock</Description><StartTime><Timestamp dt:dt=""int"">0</Timestamp><DateUtc dt:dt=""string"">2018-10-15T16:23:08Z</DateUtc></StartTime><FrequencyChanges><FrequencyChange><Frequency dt:dt=""r8"">3215292</Frequency><Timestamp dt:dt=""r8"">5285279269217</Timestamp><Current dt:dt=""r8"">0</Current><DateUtc dt:dt=""string"">2018-10-15T16:23:08Z</DateUtc></FrequencyChange></FrequencyChanges></Clock>\n",KW_Experiment5A-19-1,59.945,1.0.0.105,1,-1824826156,Professional,2.0.10.353,2.0.10.353,10/15/2018,10/15/2018 16:23,12:23:08,2.0.10.248,2,2,1,2,,,,,,,,TrainingProc,BlockList,28,2,Distractor1.bmp,1,0,,0,1,643239,600,,0,0,red,600,3,600,1,horizontal,lime,Target2.bmp,red,Distractor1.bmp,blue,Distractor2.bmp,cyan,Distractor1.bmp,yellow,Distractor1.bmp,purple,Distractor1.bmp,,,,TrialProc,,TrainingTrialList,1,2,-999999,0,643839,0,2,488,644327,Target2.bmp,lime,2,,,,1,2,28
KW_Experiment5A,19,1,"<?xml version=""1.0""?>\n<Clock xmlns:dt=""urn:schemas-microsoft-com:datatypes""><Description dt:dt=""string"">E-Prime Primary Realtime Clock</Description><StartTime><Timestamp dt:dt=""int"">0</Timestamp><DateUtc dt:dt=""string"">2018-10-15T16:23:08Z</DateUtc></StartTime><FrequencyChanges><FrequencyChange><Frequency dt:dt=""r8"">3215292</Frequency><Timestamp dt:dt=""r8"">5285279269217</Timestamp><Current dt:dt=""r8"">0</Current><DateUtc dt:dt=""string"">2018-10-15T16:23:08Z</DateUtc></FrequencyChange></FrequencyChanges></Clock>\n",KW_Experiment5A-19-1,59.945,1.0.0.105,1,-1824826156,Professional,2.0.10.353,2.0.10.353,10/15/2018,10/15/2018 16:23,12:23:08,2.0.10.248,2,2,1,2,,,,,,,,TrainingProc,BlockList,29,1,Distractor1.bmp,1,0,,0,1,645341,500,,0,0,red,500,2,500,1,vertical,red,Distractor2.bmp,blue,Distractor2.bmp,lime,Target1.bmp,cyan,Distractor1.bmp,purple,Distractor1.bmp,yellow,Distractor1.bmp,,,,TrialProc,,TrainingTrialList,1,1,-999999,0,645841,0,1,910,646751,Target1.bmp,lime,1,,,,3,2,29
KW_Experiment5A,19,1,"<?xml version=""1.0""?>\n<Clock xmlns:dt=""urn:schemas-microsoft-com:datatypes""><Description dt:dt=""string"">E-Prime Primary Realtime Clock</Description><StartTime><Timestamp dt:dt=""int"">0</Timestamp><DateUtc dt:dt=""string"">2018-10-15T16:23:08Z</DateUtc></StartTime><FrequencyChanges><FrequencyChange><Frequency dt:dt=""r8"">3215292</Frequency><Timestamp dt:dt=""r8"">5285279269217</Timestamp><Current dt:dt=""r8"">0</Current><DateUtc dt:dt=""string"">2018-10-15T16:23:08Z</DateUtc></FrequencyChange></FrequencyChanges></Clock>\n",KW_Experiment5A-19-1,59.945,1.0.0.105,1,-1824826156,Professional,2.0.10.353,2.0.10.353,10/15/2018,10/15/2018 16:23,12:23:08,2.0.10.248,2,2,1,2,,,,,,,,TrainingProc,BlockList,30,1,Distractor1.bmp,1,0,,0,1,647776,400,,0,0,cyan,400,1,400,4,vertical,cyan,Distractor1.bmp,lime,Target1.bmp,purple,Distractor1.bmp,yellow,Distractor2.bmp,blue,Distractor2.bmp,red,Distractor1.bmp,,,,TrialProc,,TrainingTrialList,1,1,-999999,0,648176,0,1,463,648639,Target1.bmp,lime,1,,,,2,2,30
KW_Experiment5A,19,1,"<?xml version=""1.0""?>\n<Clock xmlns:dt=""urn:schemas-microsoft-com:datatypes""><Description dt:dt=""string"">E-Prime Primary Realtime Clock</Description><StartTime><Timestamp dt:dt=""int"">0</Timestamp><DateUtc dt:dt=""string"">2018-10-15T16:23:08Z</DateUtc></StartTime><FrequencyChanges><FrequencyChange><Frequency dt:dt=""r8"">3215292</Frequency><Timestamp dt:dt=""r8"">5285279269217</Timestamp><Current dt:dt=""r8"">0</Current><DateUtc dt:dt=""string"">2018-10-15T16:23:08Z</DateUtc></FrequencyChange></FrequencyChanges></Clock>\n",KW_Experiment5A-19-1,59.945,1.0.0.105,1,-1824826156,Professional,2.0.10.353,2.0.10.353,10/15/2018,10/15/2018 16:23,12:23:08,2.0.10.248,2,2,1,2,,,,,,,,TrainingProc,BlockList,31,1,Distractor1.bmp,1,0,,0,1,649661,401,,0,0,cyan,400,1,400,4,vertical,lime,Target1.bmp,cyan,Distractor1.bmp,purple,Distractor2.bmp,blue,Distractor2.bmp,yellow,Distractor2.bmp,red,Distractor1.bmp,,,,TrialProc,,TrainingTrialList,1,1,-999999,1,650062,0,1,681,650743,Target1.bmp,lime,1,,,,1,2,31
KW_Experiment5A,19,1,"<?xml version=""1.0""?>\n<Clock xmlns:dt=""urn:schemas-microsoft-com:datatypes""><Description dt:dt=""string"">E-Prime Primary Realtime Clock</Description><StartTime><Timestamp dt:dt=""int"">0</Timestamp><DateUtc dt:dt=""string"">2018-10-15T16:23:08Z</DateUtc></StartTime><FrequencyChanges><FrequencyChange><Frequency dt:dt=""r8"">3215292</Frequency><Timestamp dt:dt=""r8"">5285279269217</Timestamp><Current dt:dt=""r8"">0</Current><DateUtc dt:dt=""string"">2018-10-15T16:23:08Z</DateUtc></FrequencyChange></FrequencyChanges></Clock>\n",KW_Experiment5A-19-1,59.945,1.0.0.105,1,-1824826156,Professional,2.0.10.353,2.0.10.353,10/15/2018,10/15/2018 16:23,12:23:08,2.0.10.248,2,2,1,2,,,,,,,,TrainingProc,BlockList,32,2,Distractor1.bmp,1,0,,0,1,651763,400,,0,0,cyan,400,1,400,4,horizontal,cyan,Distractor2.bmp,purple,Distractor1.bmp,red,Distractor1.bmp,lime,Target2.bmp,yellow,Distractor1.bmp,blue,Distractor2.bmp,,,,TrialProc,,TrainingTrialList,1,2,-999999,0,652163,0,2,739,652902,Target2.bmp,lime,2,,,,4,2,32
KW_Experiment5A,19,1,"<?xml version=""1.0""?>\n<Clock xmlns:dt=""urn:schemas-microsoft-com:datatypes""><Description dt:dt=""string"">E-Prime Primary Realtime Clock</Description><StartTime><Timestamp dt:dt=""int"">0</Timestamp><DateUtc dt:dt=""string"">2018-10-15T16:23:08Z</DateUtc></StartTime><FrequencyChanges><FrequencyChange><Frequency dt:dt=""r8"">3215292</Frequency><Timestamp dt:dt=""r8"">5285279269217</Timestamp><Current dt:dt=""r8"">0</Current><DateUtc dt:dt=""string"">2018-10-15T16:23:08Z</DateUtc></FrequencyChange></FrequencyChanges></Clock>\n",KW_Experiment5A-19-1,59.945,1.0.0.105,1,-1824826156,Professional,2.0.10.353,2.0.10.353,10/15/2018,10/15/2018 16:23,12:23:08,2.0.10.248,2,2,1,2,,,,,,,,TrainingProc,BlockList,33,1,Distractor2.bmp,2,0,,0,1,653915,400,,0,0,cyan,400,1,400,,vertical,cyan,Distractor1.bmp,lime,Distractor2.bmp,red,Target1.bmp,blue,Distractor2.bmp,purple,Distractor1.bmp,yellow,Distractor1.bmp,,,,TrialProc,4,TrainingTrialList,1,1,-999999,0,654315,0,1,651,654966,Target1.bmp,red,1,,,,9,2,33
KW_Experiment5A,19,1,"<?xml version=""1.0""?>\n<Clock xmlns:dt=""urn:schemas-microsoft-com:datatypes""><Description dt:dt=""string"">E-Prime Primary Realtime Clock</Description><StartTime><Timestamp dt:dt=""int"">0</Timestamp><DateUtc dt:dt=""string"">2018-10-15T16:23:08Z</DateUtc></StartTime><FrequencyChanges><FrequencyChange><Frequency dt:dt=""r8"">3215292</Frequency><Timestamp dt:dt=""r8"">5285279269217</Timestamp><Current dt:dt=""r8"">0</Current><DateUtc dt:dt=""string"">2018-10-15T16:23:08Z</DateUtc></FrequencyChange></FrequencyChanges></Clock>\n",KW_Experiment5A-19-1,59.945,1.0.0.105,1,-1824826156,Professional,2.0.10.353,2.0.10.353,10/15/2018,10/15/2018 16:23,12:23:08,2.0.10.248,2,2,1,2,,,,,,,,TrainingProc,BlockList,34,1,Distractor1.bmp,1,0,,0,1,655984,600,,0,0,yellow,600,3,600,,vertical,yellow,Distractor1.bmp,cyan,Distractor1.bmp,purple,Distractor1.bmp,blue,Distractor2.bmp,red,Target1.bmp,lime,Distractor1.bmp,,,,TrialProc,2,TrainingTrialList,1,1,-999999,0,656584,0,1,838,657422,Target1.bmp,red,1,,,,11,2,34
KW_Experiment5A,19,1,"<?xml version=""1.0""?>\n<Clock xmlns:dt=""urn:schemas-microsoft-com:datatypes""><Description dt:dt=""string"">E-Prime Primary Realtime Clock</Description><StartTime><Timestamp dt:dt=""int"">0</Timestamp><DateUtc dt:dt=""string"">2018-10-15T16:23:08Z</DateUtc></StartTime><FrequencyChanges><FrequencyChange><Frequency dt:dt=""r8"">3215292</Frequency><Timestamp dt:dt=""r8"">5285279269217</Timestamp><Current dt:dt=""r8"">0</Current><DateUtc dt:dt=""string"">2018-10-15T16:23:08Z</DateUtc></FrequencyChange></FrequencyChanges></Clock>\n",KW_Experiment5A-19-1,59.945,1.0.0.105,1,-1824826156,Professional,2.0.10.353,2.0.10.353,10/15/2018,10/15/2018 16:23,12:23:08,2.0.10.248,2,2,1,2,,,,,,,,TrainingProc,BlockList,35,1,Distractor2.bmp,2,0,,0,1,658436,500,,0,0,red,500,2,500,1,vertical,red,Distractor1.bmp,yellow,Distractor1.bmp,lime,Target1.bmp,purple,Distractor2.bmp,cyan,Distractor1.bmp,blue,Distractor2.bmp,,,,TrialProc,,TrainingTrialList,1,1,-999999,0,658936,0,1,622,659558,Target1.bmp,lime,1,,,,3,2,35
KW_Experiment5A,19,1,"<?xml version=""1.0""?>\n<Clock xmlns:dt=""urn:schemas-microsoft-com:datatypes""><Description dt:dt=""string"">E-Prime Primary Realtime Clock</Description><StartTime><Timestamp dt:dt=""int"">0</Timestamp><DateUtc dt:dt=""string"">2018-10-15T16:23:08Z</DateUtc></StartTime><FrequencyChanges><FrequencyChange><Frequency dt:dt=""r8"">3215292</Frequency><Timestamp dt:dt=""r8"">5285279269217</Timestamp><Current dt:dt=""r8"">0</Current><DateUtc dt:dt=""string"">2018-10-15T16:23:08Z</DateUtc></FrequencyChange></FrequencyChanges></Clock>\n",KW_Experiment5A-19-1,59.945,1.0.0.105,1,-1824826156,Professional,2.0.10.353,2.0.10.353,10/15/2018,10/15/2018 16:23,12:23:08,2.0.10.248,2,2,1,2,,,,,,,,TrainingProc,BlockList,36,2,Distractor1.bmp,1,0,,0,1,660571,501,,0,0,blue,500,2,500,,horizontal,red,Target2.bmp,yellow,Distractor1.bmp,purple,Distractor2.bmp,cyan,Distractor1.bmp,lime,Distractor2.bmp,blue,Distractor2.bmp,,,,TrialProc,3,TrainingTrialList,1,2,-999999,1,661072,0,2,670,661742,Target2.bmp,red,2,,,,7,2,36
KW_Experiment5A,19,1,"<?xml version=""1.0""?>\n<Clock xmlns:dt=""urn:schemas-microsoft-com:datatypes""><Description dt:dt=""string"">E-Prime Primary Realtime Clock</Description><StartTime><Timestamp dt:dt=""int"">0</Timestamp><DateUtc dt:dt=""string"">2018-10-15T16:23:08Z</DateUtc></StartTime><FrequencyChanges><FrequencyChange><Frequency dt:dt=""r8"">3215292</Frequency><Timestamp dt:dt=""r8"">5285279269217</Timestamp><Current dt:dt=""r8"">0</Current><DateUtc dt:dt=""string"">2018-10-15T16:23:08Z</DateUtc></FrequencyChange></FrequencyChanges></Clock>\n",KW_Experiment5A-19-1,59.945,1.0.0.105,1,-1824826156,Professional,2.0.10.353,2.0.10.353,10/15/2018,10/15/2018 16:23,12:23:08,2.0.10.248,2,2,1,2,,,,,,,,TrainingProc,BlockList,37,2,Distractor1.bmp,1,0,,0,1,662756,401,,0,0,purple,400,1,400,5,horizontal,purple,Distractor1.bmp,yellow,Distractor2.bmp,blue,Distractor2.bmp,lime,Target2.bmp,red,Distractor1.bmp,cyan,Distractor1.bmp,,,,TrialProc,,TrainingTrialList,1,2,-999999,1,663157,0,2,929,664086,Target2.bmp,lime,2,,,,4,2,37
KW_Experiment5A,19,1,"<?xml version=""1.0""?>\n<Clock xmlns:dt=""urn:schemas-microsoft-com:datatypes""><Description dt:dt=""string"">E-Prime Primary Realtime Clock</Description><StartTime><Timestamp dt:dt=""int"">0</Timestamp><DateUtc dt:dt=""string"">2018-10-15T16:23:08Z</DateUtc></StartTime><FrequencyChanges><FrequencyChange><Frequency dt:dt=""r8"">3215292</Frequency><Timestamp dt:dt=""r8"">5285279269217</Timestamp><Current dt:dt=""r8"">0</Current><DateUtc dt:dt=""string"">2018-10-15T16:23:08Z</DateUtc></FrequencyChange></FrequencyChanges></Clock>\n",KW_Experiment5A-19-1,59.945,1.0.0.105,1,-1824826156,Professional,2.0.10.353,2.0.10.353,10/15/2018,10/15/2018 16:23,12:23:08,2.0.10.248,2,2,1,2,,,,,,,,TrainingProc,BlockList,38,2,Distractor1.bmp,1,0,,1,0,665108,501,,0,0,cyan,500,2,500,4,horizontal,cyan,Distractor2.bmp,yellow,Distractor1.bmp,blue,Distractor1.bmp,red,Distractor1.bmp,lime,Target2.bmp,purple,Distractor1.bmp,,,,TrialProc,,TrainingTrialList,1,2,-999999,1,665609,0,2,525,666134,Target2.bmp,lime,2,,,,5,2,38
KW_Experiment5A,19,1,"<?xml version=""1.0""?>\n<Clock xmlns:dt=""urn:schemas-microsoft-com:datatypes""><Description dt:dt=""string"">E-Prime Primary Realtime Clock</Description><StartTime><Timestamp dt:dt=""int"">0</Timestamp><DateUtc dt:dt=""string"">2018-10-15T16:23:08Z</DateUtc></StartTime><FrequencyChanges><FrequencyChange><Frequency dt:dt=""r8"">3215292</Frequency><Timestamp dt:dt=""r8"">5285279269217</Timestamp><Current dt:dt=""r8"">0</Current><DateUtc dt:dt=""string"">2018-10-15T16:23:08Z</DateUtc></FrequencyChange></FrequencyChanges></Clock>\n",KW_Experiment5A-19-1,59.945,1.0.0.105,1,-1824826156,Professional,2.0.10.353,2.0.10.353,10/15/2018,10/15/2018 16:23,12:23:08,2.0.10.248,2,2,1,2,,,,,,,,TrainingProc,BlockList,39,2,Distractor1.bmp,1,0,,0,1,667144,500,,0,0,yellow,500,2,500,,horizontal,yellow,Distractor2.bmp,lime,Distractor1.bmp,blue,Distractor1.bmp,red,Target2.bmp,cyan,Distractor1.bmp,purple,Distractor1.bmp,,,,TrialProc,2,TrainingTrialList,1,2,-999999,0,667644,0,2,490,668134,Target2.bmp,red,2,,,,10,2,39
KW_Experiment5A,19,1,"<?xml version=""1.0""?>\n<Clock xmlns:dt=""urn:schemas-microsoft-com:datatypes""><Description dt:dt=""string"">E-Prime Primary Realtime Clock</Description><StartTime><Timestamp dt:dt=""int"">0</Timestamp><DateUtc dt:dt=""string"">2018-10-15T16:23:08Z</DateUtc></StartTime><FrequencyChanges><FrequencyChange><Frequency dt:dt=""r8"">3215292</Frequency><Timestamp dt:dt=""r8"">5285279269217</Timestamp><Current dt:dt=""r8"">0</Current><DateUtc dt:dt=""string"">2018-10-15T16:23:08Z</DateUtc></FrequencyChange></FrequencyChanges></Clock>\n",KW_Experiment5A-19-1,59.945,1.0.0.105,1,-1824826156,Professional,2.0.10.353,2.0.10.353,10/15/2018,10/15/2018 16:23,12:23:08,2.0.10.248,2,2,1,2,,,,,,,,TrainingProc,BlockList,40,1,Distractor1.bmp,1,0,,0,1,669146,600,,0,0,purple,600,3,600,5,vertical,purple,Distractor1.bmp,blue,Distractor1.bmp,red,Distractor2.bmp,lime,Target1.bmp,cyan,Distractor1.bmp,yellow,Distractor2.bmp,,,,TrialProc,,TrainingTrialList,1,1,-999999,0,669746,0,1,532,670278,Target1.bmp,lime,1,,,,4,2,40
KW_Experiment5A,19,1,"<?xml version=""1.0""?>\n<Clock xmlns:dt=""urn:schemas-microsoft-com:datatypes""><Description dt:dt=""string"">E-Prime Primary Realtime Clock</Description><StartTime><Timestamp dt:dt=""int"">0</Timestamp><DateUtc dt:dt=""string"">2018-10-15T16:23:08Z</DateUtc></StartTime><FrequencyChanges><FrequencyChange><Frequency dt:dt=""r8"">3215292</Frequency><Timestamp dt:dt=""r8"">5285279269217</Timestamp><Current dt:dt=""r8"">0</Current><DateUtc dt:dt=""string"">2018-10-15T16:23:08Z</DateUtc></FrequencyChange></FrequencyChanges></Clock>\n",KW_Experiment5A-19-1,59.945,1.0.0.105,1,-1824826156,Professional,2.0.10.353,2.0.10.353,10/15/2018,10/15/2018 16:23,12:23:08,2.0.10.248,2,2,1,2,,,,,,,,TrainingProc,BlockList,41,1,Distractor1.bmp,1,0,,1,0,671297,501,,0,0,yellow,500,2,500,2,vertical,yellow,Distractor1.bmp,red,Distractor2.bmp,cyan,Distractor1.bmp,purple,Distractor1.bmp,blue,Distractor1.bmp,lime,Target1.bmp,,,,TrialProc,,TrainingTrialList,1,1,-999999,1,671798,0,1,696,672494,Target1.bmp,lime,1,,,,6,2,41
KW_Experiment5A,19,1,"<?xml version=""1.0""?>\n<Clock xmlns:dt=""urn:schemas-microsoft-com:datatypes""><Description dt:dt=""string"">E-Prime Primary Realtime Clock</Description><StartTime><Timestamp dt:dt=""int"">0</Timestamp><DateUtc dt:dt=""string"">2018-10-15T16:23:08Z</DateUtc></StartTime><FrequencyChanges><FrequencyChange><Frequency dt:dt=""r8"">3215292</Frequency><Timestamp dt:dt=""r8"">5285279269217</Timestamp><Current dt:dt=""r8"">0</Current><DateUtc dt:dt=""string"">2018-10-15T16:23:08Z</DateUtc></FrequencyChange></FrequencyChanges></Clock>\n",KW_Experiment5A-19-1,59.945,1.0.0.105,1,-1824826156,Professional,2.0.10.353,2.0.10.353,10/15/2018,10/15/2018 16:23,12:23:08,2.0.10.248,2,2,1,2,,,,,,,,TrainingProc,BlockList,42,1,Distractor2.bmp,2,0,,0,1,673516,601,,0,0,red,600,3,600,1,vertical,red,Distractor2.bmp,yellow,Distractor2.bmp,lime,Target1.bmp,blue,Distractor2.bmp,purple,Distractor2.bmp,cyan,Distractor2.bmp,,,,TrialProc,,TrainingTrialList,0,1,-999999,1,674117,0,2,441,674558,Target1.bmp,lime,1,,,,3,2,42
KW_Experiment5A,19,1,"<?xml version=""1.0""?>\n<Clock xmlns:dt=""urn:schemas-microsoft-com:datatypes""><Description dt:dt=""string"">E-Prime Primary Realtime Clock</Description><StartTime><Timestamp dt:dt=""int"">0</Timestamp><DateUtc dt:dt=""string"">2018-10-15T16:23:08Z</DateUtc></StartTime><FrequencyChanges><FrequencyChange><Frequency dt:dt=""r8"">3215292</Frequency><Timestamp dt:dt=""r8"">5285279269217</Timestamp><Current dt:dt=""r8"">0</Current><DateUtc dt:dt=""string"">2018-10-15T16:23:08Z</DateUtc></FrequencyChange></FrequencyChanges></Clock>\n",KW_Experiment5A-19-1,59.945,1.0.0.105,1,-1824826156,Professional,2.0.10.353,2.0.10.353,10/15/2018,10/15/2018 16:23,12:23:08,2.0.10.248,2,2,1,2,,,,,,,,TrainingProc,BlockList,43,2,Distractor2.bmp,2,0,,0,1,675585,400,,0,0,blue,400,1,400,3,horizontal,blue,Distractor2.bmp,yellow,Distractor2.bmp,purple,Distractor2.bmp,cyan,Distractor2.bmp,red,Distractor1.bmp,lime,Target2.bmp,,,,TrialProc,,TrainingTrialList,1,2,-999999,0,675985,0,2,717,676702,Target2.bmp,lime,2,,,,6,2,43
KW_Experiment5A,19,1,"<?xml version=""1.0""?>\n<Clock xmlns:dt=""urn:schemas-microsoft-com:datatypes""><Description dt:dt=""string"">E-Prime Primary Realtime Clock</Description><StartTime><Timestamp dt:dt=""int"">0</Timestamp><DateUtc dt:dt=""string"">2018-10-15T16:23:08Z</DateUtc></StartTime><FrequencyChanges><FrequencyChange><Frequency dt:dt=""r8"">3215292</Frequency><Timestamp dt:dt=""r8"">5285279269217</Timestamp><Current dt:dt=""r8"">0</Current><DateUtc dt:dt=""string"">2018-10-15T16:23:08Z</DateUtc></FrequencyChange></FrequencyChanges></Clock>\n",KW_Experiment5A-19-1,59.945,1.0.0.105,1,-1824826156,Professional,2.0.10.353,2.0.10.353,10/15/2018,10/15/2018 16:23,12:23:08,2.0.10.248,2,2,1,2,,,,,,,,TrainingProc,BlockList,44,1,Distractor2.bmp,2,0,,0,1,677720,500,,0,0,blue,500,2,500,3,vertical,blue,Distractor2.bmp,cyan,Distractor2.bmp,yellow,Distractor1.bmp,red,Distractor2.bmp,lime,Target1.bmp,purple,Distractor2.bmp,,,,TrialProc,,TrainingTrialList,1,1,-999999,0,678220,0,1,586,678806,Target1.bmp,lime,1,,,,5,2,44
KW_Experiment5A,19,1,"<?xml version=""1.0""?>\n<Clock xmlns:dt=""urn:schemas-microsoft-com:datatypes""><Description dt:dt=""string"">E-Prime Primary Realtime Clock</Description><StartTime><Timestamp dt:dt=""int"">0</Timestamp><DateUtc dt:dt=""string"">2018-10-15T16:23:08Z</DateUtc></StartTime><FrequencyChanges><FrequencyChange><Frequency dt:dt=""r8"">3215292</Frequency><Timestamp dt:dt=""r8"">5285279269217</Timestamp><Current dt:dt=""r8"">0</Current><DateUtc dt:dt=""string"">2018-10-15T16:23:08Z</DateUtc></FrequencyChange></FrequencyChanges></Clock>\n",KW_Experiment5A-19-1,59.945,1.0.0.105,1,-1824826156,Professional,2.0.10.353,2.0.10.353,10/15/2018,10/15/2018 16:23,12:23:08,2.0.10.248,2,2,1,2,,,,,,,,TrainingProc,BlockList,45,1,Distractor1.bmp,1,0,,0,1,679822,500,,0,0,lime,500,2,500,,vertical,lime,Distractor2.bmp,red,Target1.bmp,purple,Distractor1.bmp,blue,Distractor1.bmp,cyan,Distractor2.bmp,yellow,Distractor1.bmp,,,,TrialProc,6,TrainingTrialList,1,1,-999999,0,680322,0,1,652,680974,Target1.bmp,red,1,,,,8,2,45
KW_Experiment5A,19,1,"<?xml version=""1.0""?>\n<Clock xmlns:dt=""urn:schemas-microsoft-com:datatypes""><Description dt:dt=""string"">E-Prime Primary Realtime Clock</Description><StartTime><Timestamp dt:dt=""int"">0</Timestamp><DateUtc dt:dt=""string"">2018-10-15T16:23:08Z</DateUtc></StartTime><FrequencyChanges><FrequencyChange><Frequency dt:dt=""r8"">3215292</Frequency><Timestamp dt:dt=""r8"">5285279269217</Timestamp><Current dt:dt=""r8"">0</Current><DateUtc dt:dt=""string"">2018-10-15T16:23:08Z</DateUtc></FrequencyChange></FrequencyChanges></Clock>\n",KW_Experiment5A-19-1,59.945,1.0.0.105,1,-1824826156,Professional,2.0.10.353,2.0.10.353,10/15/2018,10/15/2018 16:23,12:23:08,2.0.10.248,2,2,1,2,,,,,,,,TrainingProc,BlockList,46,1,Distractor2.bmp,2,0,,0,1,681991,500,,0,0,cyan,500,2,500,,vertical,cyan,Distractor2.bmp,purple,Distractor2.bmp,yellow,Distractor2.bmp,lime,Distractor2.bmp,blue,Distractor1.bmp,red,Target1.bmp,,,,TrialProc,4,TrainingTrialList,1,1,-999999,0,682491,0,1,579,683070,Target1.bmp,red,1,,,,12,2,46
KW_Experiment5A,19,1,"<?xml version=""1.0""?>\n<Clock xmlns:dt=""urn:schemas-microsoft-com:datatypes""><Description dt:dt=""string"">E-Prime Primary Realtime Clock</Description><StartTime><Timestamp dt:dt=""int"">0</Timestamp><DateUtc dt:dt=""string"">2018-10-15T16:23:08Z</DateUtc></StartTime><FrequencyChanges><FrequencyChange><Frequency dt:dt=""r8"">3215292</Frequency><Timestamp dt:dt=""r8"">5285279269217</Timestamp><Current dt:dt=""r8"">0</Current><DateUtc dt:dt=""string"">2018-10-15T16:23:08Z</DateUtc></FrequencyChange></FrequencyChanges></Clock>\n",KW_Experiment5A-19-1,59.945,1.0.0.105,1,-1824826156,Professional,2.0.10.353,2.0.10.353,10/15/2018,10/15/2018 16:23,12:23:08,2.0.10.248,2,2,1,2,,,,,,,,TrainingProc,BlockList,47,2,Distractor2.bmp,2,0,,0,0,684092,401,,0,0,yellow,400,1,400,2,horizontal,yellow,Distractor1.bmp,lime,Target2.bmp,purple,Distractor2.bmp,blue,Distractor2.bmp,red,Distractor2.bmp,cyan,Distractor1.bmp,,,,TrialProc,,TrainingTrialList,1,2,-999999,1,684493,0,2,577,685070,Target2.bmp,lime,2,,,,2,2,47
KW_Experiment5A,19,1,"<?xml version=""1.0""?>\n<Clock xmlns:dt=""urn:schemas-microsoft-com:datatypes""><Description dt:dt=""string"">E-Prime Primary Realtime Clock</Description><StartTime><Timestamp dt:dt=""int"">0</Timestamp><DateUtc dt:dt=""string"">2018-10-15T16:23:08Z</DateUtc></StartTime><FrequencyChanges><FrequencyChange><Frequency dt:dt=""r8"">3215292</Frequency><Timestamp dt:dt=""r8"">5285279269217</Timestamp><Current dt:dt=""r8"">0</Current><DateUtc dt:dt=""string"">2018-10-15T16:23:08Z</DateUtc></FrequencyChange></FrequencyChanges></Clock>\n",KW_Experiment5A-19-1,59.945,1.0.0.105,1,-1824826156,Professional,2.0.10.353,2.0.10.353,10/15/2018,10/15/2018 16:23,12:23:08,2.0.10.248,2,2,1,2,,,,,,,,TrainingProc,BlockList,48,1,Distractor1.bmp,1,0,,0,1,686094,601,,0,0,yellow,600,3,600,2,vertical,yellow,Distractor1.bmp,cyan,Distractor1.bmp,blue,Distractor1.bmp,purple,Distractor2.bmp,red,Distractor2.bmp,lime,Target1.bmp,,,,TrialProc,,TrainingTrialList,1,1,-999999,1,686695,0,1,575,687270,Target1.bmp,lime,1,,,,6,2,48
KW_Experiment5A,19,1,"<?xml version=""1.0""?>\n<Clock xmlns:dt=""urn:schemas-microsoft-com:datatypes""><Description dt:dt=""string"">E-Prime Primary Realtime Clock</Description><StartTime><Timestamp dt:dt=""int"">0</Timestamp><DateUtc dt:dt=""string"">2018-10-15T16:23:08Z</DateUtc></StartTime><FrequencyChanges><FrequencyChange><Frequency dt:dt=""r8"">3215292</Frequency><Timestamp dt:dt=""r8"">5285279269217</Timestamp><Current dt:dt=""r8"">0</Current><DateUtc dt:dt=""string"">2018-10-15T16:23:08Z</DateUtc></FrequencyChange></FrequencyChanges></Clock>\n",KW_Experiment5A-19-1,59.945,1.0.0.105,1,-1824826156,Professional,2.0.10.353,2.0.10.353,10/15/2018,10/15/2018 16:23,12:23:08,2.0.10.248,3,2,1,3,,,,,,,,TrainingProc,BlockList,1,2,Distractor1.bmp,1,0,,0,12,690682,400,,0,0,red,400,1,400,1,horizontal,lime,Target2.bmp,red,Distractor1.bmp,purple,Distractor1.bmp,blue,Distractor1.bmp,yellow,Distractor2.bmp,cyan,Distractor1.bmp,,,,TrialProc,,TrainingTrialList,1,2,-999999,0,691082,0,2,668,691750,Target2.bmp,lime,2,,,,1,3,49
KW_Experiment5A,19,1,"<?xml version=""1.0""?>\n<Clock xmlns:dt=""urn:schemas-microsoft-com:datatypes""><Description dt:dt=""string"">E-Prime Primary Realtime Clock</Description><StartTime><Timestamp dt:dt=""int"">0</Timestamp><DateUtc dt:dt=""string"">2018-10-15T16:23:08Z</DateUtc></StartTime><FrequencyChanges><FrequencyChange><Frequency dt:dt=""r8"">3215292</Frequency><Timestamp dt:dt=""r8"">5285279269217</Timestamp><Current dt:dt=""r8"">0</Current><DateUtc dt:dt=""string"">2018-10-15T16:23:08Z</DateUtc></FrequencyChange></FrequencyChanges></Clock>\n",KW_Experiment5A-19-1,59.945,1.0.0.105,1,-1824826156,Professional,2.0.10.353,2.0.10.353,10/15/2018,10/15/2018 16:23,12:23:08,2.0.10.248,3,2,1,3,,,,,,,,TrainingProc,BlockList,2,2,Distractor2.bmp,2,0,,0,1,692767,500,,0,0,yellow,500,2,500,,horizontal,yellow,Distractor2.bmp,lime,Distractor1.bmp,blue,Distractor1.bmp,red,Target2.bmp,cyan,Distractor2.bmp,purple,Distractor1.bmp,,,,TrialProc,2,TrainingTrialList,1,2,-999999,0,693267,0,2,642,693909,Target2.bmp,red,2,,,,10,3,50
KW_Experiment5A,19,1,"<?xml version=""1.0""?>\n<Clock xmlns:dt=""urn:schemas-microsoft-com:datatypes""><Description dt:dt=""string"">E-Prime Primary Realtime Clock</Description><StartTime><Timestamp dt:dt=""int"">0</Timestamp><DateUtc dt:dt=""string"">2018-10-15T16:23:08Z</DateUtc></StartTime><FrequencyChanges><FrequencyChange><Frequency dt:dt=""r8"">3215292</Frequency><Timestamp dt:dt=""r8"">5285279269217</Timestamp><Current dt:dt=""r8"">0</Current><DateUtc dt:dt=""string"">2018-10-15T16:23:08Z</DateUtc></FrequencyChange></FrequencyChanges></Clock>\n",KW_Experiment5A-19-1,59.945,1.0.0.105,1,-1824826156,Professional,2.0.10.353,2.0.10.353,10/15/2018,10/15/2018 16:23,12:23:08,2.0.10.248,3,2,1,3,,,,,,,,TrainingProc,BlockList,3,1,Distractor1.bmp,1,0,,0,1,694919,600,,0,0,blue,600,3,600,,vertical,blue,Distractor2.bmp,lime,Distractor1.bmp,cyan,Distractor1.bmp,yellow,Distractor2.bmp,red,Target1.bmp,purple,Distractor1.bmp,,,,TrialProc,3,TrainingTrialList,1,1,-999999,0,695519,0,1,446,695965,Target1.bmp,red,1,,,,11,3,51
KW_Experiment5A,19,1,"<?xml version=""1.0""?>\n<Clock xmlns:dt=""urn:schemas-microsoft-com:datatypes""><Description dt:dt=""string"">E-Prime Primary Realtime Clock</Description><StartTime><Timestamp dt:dt=""int"">0</Timestamp><DateUtc dt:dt=""string"">2018-10-15T16:23:08Z</DateUtc></StartTime><FrequencyChanges><FrequencyChange><Frequency dt:dt=""r8"">3215292</Frequency><Timestamp dt:dt=""r8"">5285279269217</Timestamp><Current dt:dt=""r8"">0</Current><DateUtc dt:dt=""string"">2018-10-15T16:23:08Z</DateUtc></FrequencyChange></FrequencyChanges></Clock>\n",KW_Experiment5A-19-1,59.945,1.0.0.105,1,-1824826156,Professional,2.0.10.353,2.0.10.353,10/15/2018,10/15/2018 16:23,12:23:08,2.0.10.248,3,2,1,3,,,,,,,,TrainingProc,BlockList,4,2,Distractor1.bmp,1,0,,1,0,696987,401,,0,0,blue,400,1,400,3,horizontal,blue,Distractor2.bmp,yellow,Distractor2.bmp,purple,Distractor1.bmp,cyan,Distractor2.bmp,lime,Target2.bmp,red,Distractor1.bmp,,,,TrialProc,,TrainingTrialList,1,2,-999999,1,697388,0,2,449,697837,Target2.bmp,lime,2,,,,5,3,52
KW_Experiment5A,19,1,"<?xml version=""1.0""?>\n<Clock xmlns:dt=""urn:schemas-microsoft-com:datatypes""><Description dt:dt=""string"">E-Prime Primary Realtime Clock</Description><StartTime><Timestamp dt:dt=""int"">0</Timestamp><DateUtc dt:dt=""string"">2018-10-15T16:23:08Z</DateUtc></StartTime><FrequencyChanges><FrequencyChange><Frequency dt:dt=""r8"">3215292</Frequency><Timestamp dt:dt=""r8"">5285279269217</Timestamp><Current dt:dt=""r8"">0</Current><DateUtc dt:dt=""string"">2018-10-15T16:23:08Z</DateUtc></FrequencyChange></FrequencyChanges></Clock>\n",KW_Experiment5A-19-1,59.945,1.0.0.105,1,-1824826156,Professional,2.0.10.353,2.0.10.353,10/15/2018,10/15/2018 16:23,12:23:08,2.0.10.248,3,2,1,3,,,,,,,,TrainingProc,BlockList,5,2,Distractor2.bmp,2,0,,0,1,698856,400,,0,0,yellow,400,1,400,2,horizontal,lime,Target2.bmp,yellow,Distractor2.bmp,red,Distractor2.bmp,cyan,Distractor2.bmp,blue,Distractor1.bmp,purple,Distractor1.bmp,,,,TrialProc,,TrainingTrialList,1,2,-999999,0,699256,0,2,565,699821,Target2.bmp,lime,2,,,,1,3,53
KW_Experiment5A,19,1,"<?xml version=""1.0""?>\n<Clock xmlns:dt=""urn:schemas-microsoft-com:datatypes""><Description dt:dt=""string"">E-Prime Primary Realtime Clock</Description><StartTime><Timestamp dt:dt=""int"">0</Timestamp><DateUtc dt:dt=""string"">2018-10-15T16:23:08Z</DateUtc></StartTime><FrequencyChanges><FrequencyChange><Frequency dt:dt=""r8"">3215292</Frequency><Timestamp dt:dt=""r8"">5285279269217</Timestamp><Current dt:dt=""r8"">0</Current><DateUtc dt:dt=""string"">2018-10-15T16:23:08Z</DateUtc></FrequencyChange></FrequencyChanges></Clock>\n",KW_Experiment5A-19-1,59.945,1.0.0.105,1,-1824826156,Professional,2.0.10.353,2.0.10.353,10/15/2018,10/15/2018 16:23,12:23:08,2.0.10.248,3,2,1,3,,,,,,,,TrainingProc,BlockList,6,1,Distractor2.bmp,2,0,,0,1,700841,400,,0,0,blue,400,1,400,3,vertical,blue,Distractor2.bmp,cyan,Distractor2.bmp,lime,Target1.bmp,red,Distractor2.bmp,purple,Distractor1.bmp,yellow,Distractor2.bmp,,,,TrialProc,,TrainingTrialList,1,1,-999999,0,701241,0,1,676,701917,Target1.bmp,lime,1,,,,3,3,54
KW_Experiment5A,19,1,"<?xml version=""1.0""?>\n<Clock xmlns:dt=""urn:schemas-microsoft-com:datatypes""><Description dt:dt=""string"">E-Prime Primary Realtime Clock</Description><StartTime><Timestamp dt:dt=""int"">0</Timestamp><DateUtc dt:dt=""string"">2018-10-15T16:23:08Z</DateUtc></StartTime><FrequencyChanges><FrequencyChange><Frequency dt:dt=""r8"">3215292</Frequency><Timestamp dt:dt=""r8"">5285279269217</Timestamp><Current dt:dt=""r8"">0</Current><DateUtc dt:dt=""string"">2018-10-15T16:23:08Z</DateUtc></FrequencyChange></FrequencyChanges></Clock>\n",KW_Experiment5A-19-1,59.945,1.0.0.105,1,-1824826156,Professional,2.0.10.353,2.0.10.353,10/15/2018,10/15/2018 16:23,12:23:08,2.0.10.248,3,2,1,3,,,,,,,,TrainingProc,BlockList,7,1,Distractor2.bmp,2,0,,0,1,702943,500,,0,0,red,500,2,500,1,vertical,lime,Target1.bmp,red,Distractor2.bmp,purple,Distractor1.bmp,cyan,Distractor1.bmp,blue,Distractor1.bmp,yellow,Distractor1.bmp,,,,TrialProc,,TrainingTrialList,1,1,-999999,0,703443,0,1,866,704309,Target1.bmp,lime,1,,,,1,3,55
KW_Experiment5A,19,1,"<?xml version=""1.0""?>\n<Clock xmlns:dt=""urn:schemas-microsoft-com:datatypes""><Description dt:dt=""string"">E-Prime Primary Realtime Clock</Description><StartTime><Timestamp dt:dt=""int"">0</Timestamp><DateUtc dt:dt=""string"">2018-10-15T16:23:08Z</DateUtc></StartTime><FrequencyChanges><FrequencyChange><Frequency dt:dt=""r8"">3215292</Frequency><Timestamp dt:dt=""r8"">5285279269217</Timestamp><Current dt:dt=""r8"">0</Current><DateUtc dt:dt=""string"">2018-10-15T16:23:08Z</DateUtc></FrequencyChange></FrequencyChanges></Clock>\n",KW_Experiment5A-19-1,59.945,1.0.0.105,1,-1824826156,Professional,2.0.10.353,2.0.10.353,10/15/2018,10/15/2018 16:23,12:23:08,2.0.10.248,3,2,1,3,,,,,,,,TrainingProc,BlockList,8,2,Distractor2.bmp,2,0,,0,1,705328,501,,0,0,yellow,500,2,500,2,horizontal,yellow,Distractor2.bmp,red,Distractor1.bmp,cyan,Distractor1.bmp,purple,Distractor2.bmp,blue,Distractor2.bmp,lime,Target2.bmp,,,,TrialProc,,TrainingTrialList,1,2,-999999,1,705829,0,2,624,706453,Target2.bmp,lime,2,,,,6,3,56
KW_Experiment5A,19,1,"<?xml version=""1.0""?>\n<Clock xmlns:dt=""urn:schemas-microsoft-com:datatypes""><Description dt:dt=""string"">E-Prime Primary Realtime Clock</Description><StartTime><Timestamp dt:dt=""int"">0</Timestamp><DateUtc dt:dt=""string"">2018-10-15T16:23:08Z</DateUtc></StartTime><FrequencyChanges><FrequencyChange><Frequency dt:dt=""r8"">3215292</Frequency><Timestamp dt:dt=""r8"">5285279269217</Timestamp><Current dt:dt=""r8"">0</Current><DateUtc dt:dt=""string"">2018-10-15T16:23:08Z</DateUtc></FrequencyChange></FrequencyChanges></Clock>\n",KW_Experiment5A-19-1,59.945,1.0.0.105,1,-1824826156,Professional,2.0.10.353,2.0.10.353,10/15/2018,10/15/2018 16:23,12:23:08,2.0.10.248,3,2,1,3,,,,,,,,TrainingProc,BlockList,9,2,Distractor2.bmp,2,0,,0,1,707464,600,,0,0,purple,600,3,600,,horizontal,purple,Distractor1.bmp,red,Target2.bmp,blue,Distractor2.bmp,yellow,Distractor1.bmp,lime,Distractor1.bmp,cyan,Distractor2.bmp,,,,TrialProc,5,TrainingTrialList,1,2,-999999,0,708064,0,2,933,708997,Target2.bmp,red,2,,,,8,3,57
KW_Experiment5A,19,1,"<?xml version=""1.0""?>\n<Clock xmlns:dt=""urn:schemas-microsoft-com:datatypes""><Description dt:dt=""string"">E-Prime Primary Realtime Clock</Description><StartTime><Timestamp dt:dt=""int"">0</Timestamp><DateUtc dt:dt=""string"">2018-10-15T16:23:08Z</DateUtc></StartTime><FrequencyChanges><FrequencyChange><Frequency dt:dt=""r8"">3215292</Frequency><Timestamp dt:dt=""r8"">5285279269217</Timestamp><Current dt:dt=""r8"">0</Current><DateUtc dt:dt=""string"">2018-10-15T16:23:08Z</DateUtc></FrequencyChange></FrequencyChanges></Clock>\n",KW_Experiment5A-19-1,59.945,1.0.0.105,1,-1824826156,Professional,2.0.10.353,2.0.10.353,10/15/2018,10/15/2018 16:23,12:23:08,2.0.10.248,3,2,1,3,,,,,,,,TrainingProc,BlockList,10,1,Distractor2.bmp,2,0,,0,1,710016,500,,0,0,yellow,500,2,500,2,vertical,yellow,Distractor2.bmp,red,Distractor2.bmp,purple,Distractor1.bmp,blue,Distractor2.bmp,cyan,Distractor2.bmp,lime,Target1.bmp,,,,TrialProc,,TrainingTrialList,1,1,-999999,0,710516,0,1,537,711053,Target1.bmp,lime,1,,,,6,3,58
KW_Experiment5A,19,1,"<?xml version=""1.0""?>\n<Clock xmlns:dt=""urn:schemas-microsoft-com:datatypes""><Description dt:dt=""string"">E-Prime Primary Realtime Clock</Description><StartTime><Timestamp dt:dt=""int"">0</Timestamp><DateUtc dt:dt=""string"">2018-10-15T16:23:08Z</DateUtc></StartTime><FrequencyChanges><FrequencyChange><Frequency dt:dt=""r8"">3215292</Frequency><Timestamp dt:dt=""r8"">5285279269217</Timestamp><Current dt:dt=""r8"">0</Current><DateUtc dt:dt=""string"">2018-10-15T16:23:08Z</DateUtc></FrequencyChange></FrequencyChanges></Clock>\n",KW_Experiment5A-19-1,59.945,1.0.0.105,1,-1824826156,Professional,2.0.10.353,2.0.10.353,10/15/2018,10/15/2018 16:23,12:23:08,2.0.10.248,3,2,1,3,,,,,,,,TrainingProc,BlockList,11,2,Distractor1.bmp,1,0,,0,1,712068,400,,0,0,red,400,1,400,1,horizontal,red,Distractor1.bmp,purple,Distractor1.bmp,yellow,Distractor2.bmp,blue,Distractor1.bmp,cyan,Distractor1.bmp,lime,Target2.bmp,,,,TrialProc,,TrainingTrialList,1,2,-999999,0,712468,0,2,585,713053,Target2.bmp,lime,2,,,,6,3,59
KW_Experiment5A,19,1,"<?xml version=""1.0""?>\n<Clock xmlns:dt=""urn:schemas-microsoft-com:datatypes""><Description dt:dt=""string"">E-Prime Primary Realtime Clock</Description><StartTime><Timestamp dt:dt=""int"">0</Timestamp><DateUtc dt:dt=""string"">2018-10-15T16:23:08Z</DateUtc></StartTime><FrequencyChanges><FrequencyChange><Frequency dt:dt=""r8"">3215292</Frequency><Timestamp dt:dt=""r8"">5285279269217</Timestamp><Current dt:dt=""r8"">0</Current><DateUtc dt:dt=""string"">2018-10-15T16:23:08Z</DateUtc></FrequencyChange></FrequencyChanges></Clock>\n",KW_Experiment5A-19-1,59.945,1.0.0.105,1,-1824826156,Professional,2.0.10.353,2.0.10.353,10/15/2018,10/15/2018 16:23,12:23:08,2.0.10.248,3,2,1,3,,,,,,,,TrainingProc,BlockList,12,2,Distractor1.bmp,1,0,,0,1,714070,600,,0,0,cyan,600,3,600,4,horizontal,cyan,Distractor1.bmp,yellow,Distractor1.bmp,blue,Distractor1.bmp,lime,Target2.bmp,purple,Distractor1.bmp,red,Distractor1.bmp,,,,TrialProc,,TrainingTrialList,1,2,-999999,0,714670,0,2,759,715429,Target2.bmp,lime,2,,,,4,3,60
KW_Experiment5A,19,1,"<?xml version=""1.0""?>\n<Clock xmlns:dt=""urn:schemas-microsoft-com:datatypes""><Description dt:dt=""string"">E-Prime Primary Realtime Clock</Description><StartTime><Timestamp dt:dt=""int"">0</Timestamp><DateUtc dt:dt=""string"">2018-10-15T16:23:08Z</DateUtc></StartTime><FrequencyChanges><FrequencyChange><Frequency dt:dt=""r8"">3215292</Frequency><Timestamp dt:dt=""r8"">5285279269217</Timestamp><Current dt:dt=""r8"">0</Current><DateUtc dt:dt=""string"">2018-10-15T16:23:08Z</DateUtc></FrequencyChange></FrequencyChanges></Clock>\n",KW_Experiment5A-19-1,59.945,1.0.0.105,1,-1824826156,Professional,2.0.10.353,2.0.10.353,10/15/2018,10/15/2018 16:23,12:23:08,2.0.10.248,3,2,1,3,,,,,,,,TrainingProc,BlockList,13,2,Distractor2.bmp,2,0,,0,1,716439,400,,0,0,purple,400,1,400,,horizontal,red,Target2.bmp,cyan,Distractor2.bmp,yellow,Distractor1.bmp,blue,Distractor2.bmp,lime,Distractor2.bmp,purple,Distractor2.bmp,,,,TrialProc,5,TrainingTrialList,1,2,-999999,0,716839,0,2,598,717437,Target2.bmp,red,2,,,,7,3,61
KW_Experiment5A,19,1,"<?xml version=""1.0""?>\n<Clock xmlns:dt=""urn:schemas-microsoft-com:datatypes""><Description dt:dt=""string"">E-Prime Primary Realtime Clock</Description><StartTime><Timestamp dt:dt=""int"">0</Timestamp><DateUtc dt:dt=""string"">2018-10-15T16:23:08Z</DateUtc></StartTime><FrequencyChanges><FrequencyChange><Frequency dt:dt=""r8"">3215292</Frequency><Timestamp dt:dt=""r8"">5285279269217</Timestamp><Current dt:dt=""r8"">0</Current><DateUtc dt:dt=""string"">2018-10-15T16:23:08Z</DateUtc></FrequencyChange></FrequencyChanges></Clock>\n",KW_Experiment5A-19-1,59.945,1.0.0.105,1,-1824826156,Professional,2.0.10.353,2.0.10.353,10/15/2018,10/15/2018 16:23,12:23:08,2.0.10.248,3,2,1,3,,,,,,,,TrainingProc,BlockList,14,2,Distractor1.bmp,1,0,,0,1,718457,400,,0,0,yellow,400,1,400,2,horizontal,yellow,Distractor2.bmp,blue,Distractor1.bmp,purple,Distractor2.bmp,lime,Target2.bmp,red,Distractor1.bmp,cyan,Distractor1.bmp,,,,TrialProc,,TrainingTrialList,1,2,-999999,0,718857,0,2,884,719741,Target2.bmp,lime,2,,,,4,3,62
KW_Experiment5A,19,1,"<?xml version=""1.0""?>\n<Clock xmlns:dt=""urn:schemas-microsoft-com:datatypes""><Description dt:dt=""string"">E-Prime Primary Realtime Clock</Description><StartTime><Timestamp dt:dt=""int"">0</Timestamp><DateUtc dt:dt=""string"">2018-10-15T16:23:08Z</DateUtc></StartTime><FrequencyChanges><FrequencyChange><Frequency dt:dt=""r8"">3215292</Frequency><Timestamp dt:dt=""r8"">5285279269217</Timestamp><Current dt:dt=""r8"">0</Current><DateUtc dt:dt=""string"">2018-10-15T16:23:08Z</DateUtc></FrequencyChange></FrequencyChanges></Clock>\n",KW_Experiment5A-19-1,59.945,1.0.0.105,1,-1824826156,Professional,2.0.10.353,2.0.10.353,10/15/2018,10/15/2018 16:23,12:23:08,2.0.10.248,3,2,1,3,,,,,,,,TrainingProc,BlockList,15,1,Distractor1.bmp,1,0,,0,1,720759,501,,0,0,yellow,500,2,500,2,vertical,yellow,Distractor2.bmp,lime,Target1.bmp,red,Distractor1.bmp,blue,Distractor1.bmp,cyan,Distractor2.bmp,purple,Distractor1.bmp,,,,TrialProc,,TrainingTrialList,1,1,-999999,1,721260,0,1,921,722181,Target1.bmp,lime,1,,,,2,3,63
KW_Experiment5A,19,1,"<?xml version=""1.0""?>\n<Clock xmlns:dt=""urn:schemas-microsoft-com:datatypes""><Description dt:dt=""string"">E-Prime Primary Realtime Clock</Description><StartTime><Timestamp dt:dt=""int"">0</Timestamp><DateUtc dt:dt=""string"">2018-10-15T16:23:08Z</DateUtc></StartTime><FrequencyChanges><FrequencyChange><Frequency dt:dt=""r8"">3215292</Frequency><Timestamp dt:dt=""r8"">5285279269217</Timestamp><Current dt:dt=""r8"">0</Current><DateUtc dt:dt=""string"">2018-10-15T16:23:08Z</DateUtc></FrequencyChange></FrequencyChanges></Clock>\n",KW_Experiment5A-19-1,59.945,1.0.0.105,1,-1824826156,Professional,2.0.10.353,2.0.10.353,10/15/2018,10/15/2018 16:23,12:23:08,2.0.10.248,3,2,1,3,,,,,,,,TrainingProc,BlockList,16,1,Distractor1.bmp,1,0,,0,1,723195,500,,0,0,purple,500,2,500,5,vertical,purple,Distractor1.bmp,yellow,Distractor1.bmp,blue,Distractor2.bmp,cyan,Distractor1.bmp,lime,Target1.bmp,red,Distractor1.bmp,,,,TrialProc,,TrainingTrialList,1,1,-999999,0,723695,0,1,486,724181,Target1.bmp,lime,1,,,,5,3,64
KW_Experiment5A,19,1,"<?xml version=""1.0""?>\n<Clock xmlns:dt=""urn:schemas-microsoft-com:datatypes""><Description dt:dt=""string"">E-Prime Primary Realtime Clock</Description><StartTime><Timestamp dt:dt=""int"">0</Timestamp><DateUtc dt:dt=""string"">2018-10-15T16:23:08Z</DateUtc></StartTime><FrequencyChanges><FrequencyChange><Frequency dt:dt=""r8"">3215292</Frequency><Timestamp dt:dt=""r8"">5285279269217</Timestamp><Current dt:dt=""r8"">0</Current><DateUtc dt:dt=""string"">2018-10-15T16:23:08Z</DateUtc></FrequencyChange></FrequencyChanges></Clock>\n",KW_Experiment5A-19-1,59.945,1.0.0.105,1,-1824826156,Professional,2.0.10.353,2.0.10.353,10/15/2018,10/15/2018 16:23,12:23:08,2.0.10.248,3,2,1,3,,,,,,,,TrainingProc,BlockList,17,2,Distractor1.bmp,1,0,,0,0,725196,401,,0,0,blue,400,1,400,3,horizontal,blue,Distractor2.bmp,lime,Target2.bmp,purple,Distractor1.bmp,yellow,Distractor1.bmp,cyan,Distractor1.bmp,red,Distractor1.bmp,,,,TrialProc,,TrainingTrialList,1,2,-999999,1,725597,0,2,496,726093,Target2.bmp,lime,2,,,,2,3,65
KW_Experiment5A,19,1,"<?xml version=""1.0""?>\n<Clock xmlns:dt=""urn:schemas-microsoft-com:datatypes""><Description dt:dt=""string"">E-Prime Primary Realtime Clock</Description><StartTime><Timestamp dt:dt=""int"">0</Timestamp><DateUtc dt:dt=""string"">2018-10-15T16:23:08Z</DateUtc></StartTime><FrequencyChanges><FrequencyChange><Frequency dt:dt=""r8"">3215292</Frequency><Timestamp dt:dt=""r8"">5285279269217</Timestamp><Current dt:dt=""r8"">0</Current><DateUtc dt:dt=""string"">2018-10-15T16:23:08Z</DateUtc></FrequencyChange></FrequencyChanges></Clock>\n",KW_Experiment5A-19-1,59.945,1.0.0.105,1,-1824826156,Professional,2.0.10.353,2.0.10.353,10/15/2018,10/15/2018 16:23,12:23:08,2.0.10.248,3,2,1,3,,,,,,,,TrainingProc,BlockList,18,1,Distractor1.bmp,1,0,,0,1,727115,400,,0,0,purple,400,1,400,5,vertical,purple,Distractor2.bmp,red,Distractor2.bmp,cyan,Distractor1.bmp,lime,Target1.bmp,yellow,Distractor1.bmp,blue,Distractor2.bmp,,,,TrialProc,,TrainingTrialList,1,1,-999999,0,727515,0,1,514,728029,Target1.bmp,lime,1,,,,4,3,66
KW_Experiment5A,19,1,"<?xml version=""1.0""?>\n<Clock xmlns:dt=""urn:schemas-microsoft-com:datatypes""><Description dt:dt=""string"">E-Prime Primary Realtime Clock</Description><StartTime><Timestamp dt:dt=""int"">0</Timestamp><DateUtc dt:dt=""string"">2018-10-15T16:23:08Z</DateUtc></StartTime><FrequencyChanges><FrequencyChange><Frequency dt:dt=""r8"">3215292</Frequency><Timestamp dt:dt=""r8"">5285279269217</Timestamp><Current dt:dt=""r8"">0</Current><DateUtc dt:dt=""string"">2018-10-15T16:23:08Z</DateUtc></FrequencyChange></FrequencyChanges></Clock>\n",KW_Experiment5A-19-1,59.945,1.0.0.105,1,-1824826156,Professional,2.0.10.353,2.0.10.353,10/15/2018,10/15/2018 16:23,12:23:08,2.0.10.248,3,2,1,3,,,,,,,,TrainingProc,BlockList,19,1,Distractor2.bmp,2,0,,0,1,729050,400,,0,0,cyan,400,1,400,4,vertical,cyan,Distractor1.bmp,yellow,Distractor2.bmp,lime,Target1.bmp,blue,Distractor2.bmp,red,Distractor2.bmp,purple,Distractor1.bmp,,,,TrialProc,,TrainingTrialList,0,1,-999999,0,729450,0,2,683,730133,Target1.bmp,lime,1,,,,3,3,67
KW_Experiment5A,19,1,"<?xml version=""1.0""?>\n<Clock xmlns:dt=""urn:schemas-microsoft-com:datatypes""><Description dt:dt=""string"">E-Prime Primary Realtime Clock</Description><StartTime><Timestamp dt:dt=""int"">0</Timestamp><DateUtc dt:dt=""string"">2018-10-15T16:23:08Z</DateUtc></StartTime><FrequencyChanges><FrequencyChange><Frequency dt:dt=""r8"">3215292</Frequency><Timestamp dt:dt=""r8"">5285279269217</Timestamp><Current dt:dt=""r8"">0</Current><DateUtc dt:dt=""string"">2018-10-15T16:23:08Z</DateUtc></FrequencyChange></FrequencyChanges></Clock>\n",KW_Experiment5A-19-1,59.945,1.0.0.105,1,-1824826156,Professional,2.0.10.353,2.0.10.353,10/15/2018,10/15/2018 16:23,12:23:08,2.0.10.248,3,2,1,3,,,,,,,,TrainingProc,BlockList,20,2,Distractor1.bmp,1,0,,0,1,731152,400,,0,0,red,400,1,400,1,horizontal,red,Distractor1.bmp,blue,Distractor2.bmp,lime,Target2.bmp,yellow,Distractor1.bmp,cyan,Distractor1.bmp,purple,Distractor1.bmp,,,,TrialProc,,TrainingTrialList,1,2,-999999,0,731552,0,2,557,732109,Target2.bmp,lime,2,,,,3,3,68
KW_Experiment5A,19,1,"<?xml version=""1.0""?>\n<Clock xmlns:dt=""urn:schemas-microsoft-com:datatypes""><Description dt:dt=""string"">E-Prime Primary Realtime Clock</Description><StartTime><Timestamp dt:dt=""int"">0</Timestamp><DateUtc dt:dt=""string"">2018-10-15T16:23:08Z</DateUtc></StartTime><FrequencyChanges><FrequencyChange><Frequency dt:dt=""r8"">3215292</Frequency><Timestamp dt:dt=""r8"">5285279269217</Timestamp><Current dt:dt=""r8"">0</Current><DateUtc dt:dt=""string"">2018-10-15T16:23:08Z</DateUtc></FrequencyChange></FrequencyChanges></Clock>\n",KW_Experiment5A-19-1,59.945,1.0.0.105,1,-1824826156,Professional,2.0.10.353,2.0.10.353,10/15/2018,10/15/2018 16:23,12:23:08,2.0.10.248,3,2,1,3,,,,,,,,TrainingProc,BlockList,21,2,Distractor1.bmp,1,0,,0,1,733120,501,,0,0,yellow,500,2,500,,horizontal,yellow,Distractor2.bmp,lime,Distractor2.bmp,red,Target2.bmp,purple,Distractor1.bmp,cyan,Distractor1.bmp,blue,Distractor2.bmp,,,,TrialProc,2,TrainingTrialList,1,2,-999999,1,733621,0,2,536,734157,Target2.bmp,red,2,,,,9,3,69
KW_Experiment5A,19,1,"<?xml version=""1.0""?>\n<Clock xmlns:dt=""urn:schemas-microsoft-com:datatypes""><Description dt:dt=""string"">E-Prime Primary Realtime Clock</Description><StartTime><Timestamp dt:dt=""int"">0</Timestamp><DateUtc dt:dt=""string"">2018-10-15T16:23:08Z</DateUtc></StartTime><FrequencyChanges><FrequencyChange><Frequency dt:dt=""r8"">3215292</Frequency><Timestamp dt:dt=""r8"">5285279269217</Timestamp><Current dt:dt=""r8"">0</Current><DateUtc dt:dt=""string"">2018-10-15T16:23:08Z</DateUtc></FrequencyChange></FrequencyChanges></Clock>\n",KW_Experiment5A-19-1,59.945,1.0.0.105,1,-1824826156,Professional,2.0.10.353,2.0.10.353,10/15/2018,10/15/2018 16:23,12:23:08,2.0.10.248,3,2,1,3,,,,,,,,TrainingProc,BlockList,22,2,Distractor2.bmp,2,0,,0,1,735172,401,,0,0,blue,400,1,400,,horizontal,blue,Distractor2.bmp,yellow,Distractor2.bmp,purple,Distractor2.bmp,lime,Distractor2.bmp,cyan,Distractor1.bmp,red,Target2.bmp,,,,TrialProc,3,TrainingTrialList,1,2,-999999,1,735573,0,2,831,736404,Target2.bmp,red,2,,,,12,3,70
KW_Experiment5A,19,1,"<?xml version=""1.0""?>\n<Clock xmlns:dt=""urn:schemas-microsoft-com:datatypes""><Description dt:dt=""string"">E-Prime Primary Realtime Clock</Description><StartTime><Timestamp dt:dt=""int"">0</Timestamp><DateUtc dt:dt=""string"">2018-10-15T16:23:08Z</DateUtc></StartTime><FrequencyChanges><FrequencyChange><Frequency dt:dt=""r8"">3215292</Frequency><Timestamp dt:dt=""r8"">5285279269217</Timestamp><Current dt:dt=""r8"">0</Current><DateUtc dt:dt=""string"">2018-10-15T16:23:08Z</DateUtc></FrequencyChange></FrequencyChanges></Clock>\n",KW_Experiment5A-19-1,59.945,1.0.0.105,1,-1824826156,Professional,2.0.10.353,2.0.10.353,10/15/2018,10/15/2018 16:23,12:23:08,2.0.10.248,3,2,1,3,,,,,,,,TrainingProc,BlockList,23,2,Distractor2.bmp,2,0,,0,1,737424,401,,0,0,blue,400,1,400,3,horizontal,blue,Distractor1.bmp,lime,Target2.bmp,cyan,Distractor2.bmp,purple,Distractor1.bmp,red,Distractor1.bmp,yellow,Distractor1.bmp,,,,TrialProc,,TrainingTrialList,1,2,-999999,1,737825,0,2,707,738532,Target2.bmp,lime,2,,,,2,3,71
KW_Experiment5A,19,1,"<?xml version=""1.0""?>\n<Clock xmlns:dt=""urn:schemas-microsoft-com:datatypes""><Description dt:dt=""string"">E-Prime Primary Realtime Clock</Description><StartTime><Timestamp dt:dt=""int"">0</Timestamp><DateUtc dt:dt=""string"">2018-10-15T16:23:08Z</DateUtc></StartTime><FrequencyChanges><FrequencyChange><Frequency dt:dt=""r8"">3215292</Frequency><Timestamp dt:dt=""r8"">5285279269217</Timestamp><Current dt:dt=""r8"">0</Current><DateUtc dt:dt=""string"">2018-10-15T16:23:08Z</DateUtc></FrequencyChange></FrequencyChanges></Clock>\n",KW_Experiment5A-19-1,59.945,1.0.0.105,1,-1824826156,Professional,2.0.10.353,2.0.10.353,10/15/2018,10/15/2018 16:23,12:23:08,2.0.10.248,3,2,1,3,,,,,,,,TrainingProc,BlockList,24,1,Distractor2.bmp,2,0,,0,1,739543,400,,0,0,blue,400,1,400,3,vertical,blue,Distractor2.bmp,purple,Distractor2.bmp,yellow,Distractor1.bmp,red,Distractor2.bmp,lime,Target1.bmp,cyan,Distractor2.bmp,,,,TrialProc,,TrainingTrialList,1,1,-999999,0,739943,0,1,453,740396,Target1.bmp,lime,1,,,,5,3,72
KW_Experiment5A,19,1,"<?xml version=""1.0""?>\n<Clock xmlns:dt=""urn:schemas-microsoft-com:datatypes""><Description dt:dt=""string"">E-Prime Primary Realtime Clock</Description><StartTime><Timestamp dt:dt=""int"">0</Timestamp><DateUtc dt:dt=""string"">2018-10-15T16:23:08Z</DateUtc></StartTime><FrequencyChanges><FrequencyChange><Frequency dt:dt=""r8"">3215292</Frequency><Timestamp dt:dt=""r8"">5285279269217</Timestamp><Current dt:dt=""r8"">0</Current><DateUtc dt:dt=""string"">2018-10-15T16:23:08Z</DateUtc></FrequencyChange></FrequencyChanges></Clock>\n",KW_Experiment5A-19-1,59.945,1.0.0.105,1,-1824826156,Professional,2.0.10.353,2.0.10.353,10/15/2018,10/15/2018 16:23,12:23:08,2.0.10.248,3,2,1,3,,,,,,,,TrainingProc,BlockList,25,1,Distractor1.bmp,1,0,,0,1,741411,401,,0,0,purple,400,1,400,5,vertical,purple,Distractor2.bmp,blue,Distractor1.bmp,red,Distractor1.bmp,lime,Target1.bmp,yellow,Distractor1.bmp,cyan,Distractor1.bmp,,,,TrialProc,,TrainingTrialList,1,1,-999999,1,741812,0,1,600,742412,Target1.bmp,lime,1,,,,4,4,73
KW_Experiment5A,19,1,"<?xml version=""1.0""?>\n<Clock xmlns:dt=""urn:schemas-microsoft-com:datatypes""><Description dt:dt=""string"">E-Prime Primary Realtime Clock</Description><StartTime><Timestamp dt:dt=""int"">0</Timestamp><DateUtc dt:dt=""string"">2018-10-15T16:23:08Z</DateUtc></StartTime><FrequencyChanges><FrequencyChange><Frequency dt:dt=""r8"">3215292</Frequency><Timestamp dt:dt=""r8"">5285279269217</Timestamp><Current dt:dt=""r8"">0</Current><DateUtc dt:dt=""string"">2018-10-15T16:23:08Z</DateUtc></FrequencyChange></FrequencyChanges></Clock>\n",KW_Experiment5A-19-1,59.945,1.0.0.105,1,-1824826156,Professional,2.0.10.353,2.0.10.353,10/15/2018,10/15/2018 16:23,12:23:08,2.0.10.248,3,2,1,3,,,,,,,,TrainingProc,BlockList,26,2,Distractor2.bmp,2,0,,0,1,743430,400,,0,0,lime,400,1,400,,horizontal,lime,Distractor2.bmp,purple,Distractor2.bmp,yellow,Distractor1.bmp,blue,Distractor1.bmp,cyan,Distractor2.bmp,red,Target2.bmp,,,,TrialProc,6,TrainingTrialList,1,2,-999999,0,743830,0,2,566,744396,Target2.bmp,red,2,,,,12,4,74
KW_Experiment5A,19,1,"<?xml version=""1.0""?>\n<Clock xmlns:dt=""urn:schemas-microsoft-com:datatypes""><Description dt:dt=""string"">E-Prime Primary Realtime Clock</Description><StartTime><Timestamp dt:dt=""int"">0</Timestamp><DateUtc dt:dt=""string"">2018-10-15T16:23:08Z</DateUtc></StartTime><FrequencyChanges><FrequencyChange><Frequency dt:dt=""r8"">3215292</Frequency><Timestamp dt:dt=""r8"">5285279269217</Timestamp><Current dt:dt=""r8"">0</Current><DateUtc dt:dt=""string"">2018-10-15T16:23:08Z</DateUtc></FrequencyChange></FrequencyChanges></Clock>\n",KW_Experiment5A-19-1,59.945,1.0.0.105,1,-1824826156,Professional,2.0.10.353,2.0.10.353,10/15/2018,10/15/2018 16:23,12:23:08,2.0.10.248,3,2,1,3,,,,,,,,TrainingProc,BlockList,27,1,Distractor2.bmp,2,0,,0,1,745415,500,,0,0,purple,500,2,500,5,vertical,purple,Distractor2.bmp,cyan,Distractor2.bmp,blue,Distractor2.bmp,yellow,Distractor2.bmp,red,Distractor1.bmp,lime,Target1.bmp,,,,TrialProc,,TrainingTrialList,1,1,-999999,0,745915,0,1,641,746556,Target1.bmp,lime,1,,,,6,4,75
KW_Experiment5A,19,1,"<?xml version=""1.0""?>\n<Clock xmlns:dt=""urn:schemas-microsoft-com:datatypes""><Description dt:dt=""string"">E-Prime Primary Realtime Clock</Description><StartTime><Timestamp dt:dt=""int"">0</Timestamp><DateUtc dt:dt=""string"">2018-10-15T16:23:08Z</DateUtc></StartTime><FrequencyChanges><FrequencyChange><Frequency dt:dt=""r8"">3215292</Frequency><Timestamp dt:dt=""r8"">5285279269217</Timestamp><Current dt:dt=""r8"">0</Current><DateUtc dt:dt=""string"">2018-10-15T16:23:08Z</DateUtc></FrequencyChange></FrequencyChanges></Clock>\n",KW_Experiment5A-19-1,59.945,1.0.0.105,1,-1824826156,Professional,2.0.10.353,2.0.10.353,10/15/2018,10/15/2018 16:23,12:23:08,2.0.10.248,3,2,1,3,,,,,,,,TrainingProc,BlockList,28,2,Distractor1.bmp,1,0,,0,1,747567,500,,0,0,cyan,500,2,500,,horizontal,cyan,Distractor1.bmp,yellow,Distractor1.bmp,purple,Distractor1.bmp,blue,Distractor1.bmp,red,Target2.bmp,lime,Distractor1.bmp,,,,TrialProc,4,TrainingTrialList,1,2,-999999,0,748067,0,2,697,748764,Target2.bmp,red,2,,,,11,4,76
KW_Experiment5A,19,1,"<?xml version=""1.0""?>\n<Clock xmlns:dt=""urn:schemas-microsoft-com:datatypes""><Description dt:dt=""string"">E-Prime Primary Realtime Clock</Description><StartTime><Timestamp dt:dt=""int"">0</Timestamp><DateUtc dt:dt=""string"">2018-10-15T16:23:08Z</DateUtc></StartTime><FrequencyChanges><FrequencyChange><Frequency dt:dt=""r8"">3215292</Frequency><Timestamp dt:dt=""r8"">5285279269217</Timestamp><Current dt:dt=""r8"">0</Current><DateUtc dt:dt=""string"">2018-10-15T16:23:08Z</DateUtc></FrequencyChange></FrequencyChanges></Clock>\n",KW_Experiment5A-19-1,59.945,1.0.0.105,1,-1824826156,Professional,2.0.10.353,2.0.10.353,10/15/2018,10/15/2018 16:23,12:23:08,2.0.10.248,3,2,1,3,,,,,,,,TrainingProc,BlockList,29,2,Distractor2.bmp,2,0,,1,0,749785,501,,0,0,cyan,500,2,500,4,horizontal,cyan,Distractor2.bmp,blue,Distractor1.bmp,lime,Target2.bmp,purple,Distractor2.bmp,yellow,Distractor1.bmp,red,Distractor2.bmp,,,,TrialProc,,TrainingTrialList,1,2,-999999,1,750286,0,2,838,751124,Target2.bmp,lime,2,,,,3,4,77
KW_Experiment5A,19,1,"<?xml version=""1.0""?>\n<Clock xmlns:dt=""urn:schemas-microsoft-com:datatypes""><Description dt:dt=""string"">E-Prime Primary Realtime Clock</Description><StartTime><Timestamp dt:dt=""int"">0</Timestamp><DateUtc dt:dt=""string"">2018-10-15T16:23:08Z</DateUtc></StartTime><FrequencyChanges><FrequencyChange><Frequency dt:dt=""r8"">3215292</Frequency><Timestamp dt:dt=""r8"">5285279269217</Timestamp><Current dt:dt=""r8"">0</Current><DateUtc dt:dt=""string"">2018-10-15T16:23:08Z</DateUtc></FrequencyChange></FrequencyChanges></Clock>\n",KW_Experiment5A-19-1,59.945,1.0.0.105,1,-1824826156,Professional,2.0.10.353,2.0.10.353,10/15/2018,10/15/2018 16:23,12:23:08,2.0.10.248,3,2,1,3,,,,,,,,TrainingProc,BlockList,30,2,Distractor1.bmp,1,0,,0,1,752138,600,,0,0,blue,600,3,600,,horizontal,blue,Distractor1.bmp,purple,Distractor1.bmp,lime,Distractor2.bmp,red,Target2.bmp,yellow,Distractor1.bmp,cyan,Distractor1.bmp,,,,TrialProc,3,TrainingTrialList,1,2,-999999,0,752738,0,2,666,753404,Target2.bmp,red,2,,,,10,4,78
KW_Experiment5A,19,1,"<?xml version=""1.0""?>\n<Clock xmlns:dt=""urn:schemas-microsoft-com:datatypes""><Description dt:dt=""string"">E-Prime Primary Realtime Clock</Description><StartTime><Timestamp dt:dt=""int"">0</Timestamp><DateUtc dt:dt=""string"">2018-10-15T16:23:08Z</DateUtc></StartTime><FrequencyChanges><FrequencyChange><Frequency dt:dt=""r8"">3215292</Frequency><Timestamp dt:dt=""r8"">5285279269217</Timestamp><Current dt:dt=""r8"">0</Current><DateUtc dt:dt=""string"">2018-10-15T16:23:08Z</DateUtc></FrequencyChange></FrequencyChanges></Clock>\n",KW_Experiment5A-19-1,59.945,1.0.0.105,1,-1824826156,Professional,2.0.10.353,2.0.10.353,10/15/2018,10/15/2018 16:23,12:23:08,2.0.10.248,3,2,1,3,,,,,,,,TrainingProc,BlockList,31,2,Distractor2.bmp,2,0,,0,1,754423,601,,0,0,purple,600,3,600,5,horizontal,purple,Distractor2.bmp,lime,Target2.bmp,blue,Distractor2.bmp,cyan,Distractor1.bmp,red,Distractor1.bmp,yellow,Distractor1.bmp,,,,TrialProc,,TrainingTrialList,1,2,-999999,1,755024,0,2,772,755796,Target2.bmp,lime,2,,,,2,4,79
KW_Experiment5A,19,1,"<?xml version=""1.0""?>\n<Clock xmlns:dt=""urn:schemas-microsoft-com:datatypes""><Description dt:dt=""string"">E-Prime Primary Realtime Clock</Description><StartTime><Timestamp dt:dt=""int"">0</Timestamp><DateUtc dt:dt=""string"">2018-10-15T16:23:08Z</DateUtc></StartTime><FrequencyChanges><FrequencyChange><Frequency dt:dt=""r8"">3215292</Frequency><Timestamp dt:dt=""r8"">5285279269217</Timestamp><Current dt:dt=""r8"">0</Current><DateUtc dt:dt=""string"">2018-10-15T16:23:08Z</DateUtc></FrequencyChange></FrequencyChanges></Clock>\n",KW_Experiment5A-19-1,59.945,1.0.0.105,1,-1824826156,Professional,2.0.10.353,2.0.10.353,10/15/2018,10/15/2018 16:23,12:23:08,2.0.10.248,3,2,1,3,,,,,,,,TrainingProc,BlockList,32,2,Distractor1.bmp,1,0,,0,1,756809,400,,0,0,cyan,400,1,400,4,horizontal,cyan,Distractor1.bmp,lime,Target2.bmp,red,Distractor1.bmp,purple,Distractor1.bmp,blue,Distractor2.bmp,yellow,Distractor2.bmp,,,,TrialProc,,TrainingTrialList,1,2,-999999,0,757209,0,2,403,757612,Target2.bmp,lime,2,,,,2,4,80
KW_Experiment5A,19,1,"<?xml version=""1.0""?>\n<Clock xmlns:dt=""urn:schemas-microsoft-com:datatypes""><Description dt:dt=""string"">E-Prime Primary Realtime Clock</Description><StartTime><Timestamp dt:dt=""int"">0</Timestamp><DateUtc dt:dt=""string"">2018-10-15T16:23:08Z</DateUtc></StartTime><FrequencyChanges><FrequencyChange><Frequency dt:dt=""r8"">3215292</Frequency><Timestamp dt:dt=""r8"">5285279269217</Timestamp><Current dt:dt=""r8"">0</Current><DateUtc dt:dt=""string"">2018-10-15T16:23:08Z</DateUtc></FrequencyChange></FrequencyChanges></Clock>\n",KW_Experiment5A-19-1,59.945,1.0.0.105,1,-1824826156,Professional,2.0.10.353,2.0.10.353,10/15/2018,10/15/2018 16:23,12:23:08,2.0.10.248,3,2,1,3,,,,,,,,TrainingProc,BlockList,33,2,Distractor2.bmp,2,0,,0,1,758627,500,,0,0,purple,500,2,500,5,horizontal,purple,Distractor2.bmp,yellow,Distractor1.bmp,blue,Distractor2.bmp,lime,Target2.bmp,cyan,Distractor2.bmp,red,Distractor1.bmp,,,,TrialProc,,TrainingTrialList,1,2,-999999,0,759127,0,2,605,759732,Target2.bmp,lime,2,,,,4,4,81
KW_Experiment5A,19,1,"<?xml version=""1.0""?>\n<Clock xmlns:dt=""urn:schemas-microsoft-com:datatypes""><Description dt:dt=""string"">E-Prime Primary Realtime Clock</Description><StartTime><Timestamp dt:dt=""int"">0</Timestamp><DateUtc dt:dt=""string"">2018-10-15T16:23:08Z</DateUtc></StartTime><FrequencyChanges><FrequencyChange><Frequency dt:dt=""r8"">3215292</Frequency><Timestamp dt:dt=""r8"">5285279269217</Timestamp><Current dt:dt=""r8"">0</Current><DateUtc dt:dt=""string"">2018-10-15T16:23:08Z</DateUtc></FrequencyChange></FrequencyChanges></Clock>\n",KW_Experiment5A-19-1,59.945,1.0.0.105,1,-1824826156,Professional,2.0.10.353,2.0.10.353,10/15/2018,10/15/2018 16:23,12:23:08,2.0.10.248,3,2,1,3,,,,,,,,TrainingProc,BlockList,34,1,Distractor1.bmp,1,0,,0,1,760745,601,,0,0,cyan,600,3,600,4,vertical,lime,Target1.bmp,cyan,Distractor1.bmp,purple,Distractor1.bmp,red,Distractor2.bmp,blue,Distractor1.bmp,yellow,Distractor2.bmp,,,,TrialProc,,TrainingTrialList,1,1,-999999,1,761346,0,1,762,762108,Target1.bmp,lime,1,,,,1,4,82
KW_Experiment5A,19,1,"<?xml version=""1.0""?>\n<Clock xmlns:dt=""urn:schemas-microsoft-com:datatypes""><Description dt:dt=""string"">E-Prime Primary Realtime Clock</Description><StartTime><Timestamp dt:dt=""int"">0</Timestamp><DateUtc dt:dt=""string"">2018-10-15T16:23:08Z</DateUtc></StartTime><FrequencyChanges><FrequencyChange><Frequency dt:dt=""r8"">3215292</Frequency><Timestamp dt:dt=""r8"">5285279269217</Timestamp><Current dt:dt=""r8"">0</Current><DateUtc dt:dt=""string"">2018-10-15T16:23:08Z</DateUtc></FrequencyChange></FrequencyChanges></Clock>\n",KW_Experiment5A-19-1,59.945,1.0.0.105,1,-1824826156,Professional,2.0.10.353,2.0.10.353,10/15/2018,10/15/2018 16:23,12:23:08,2.0.10.248,3,2,1,3,,,,,,,,TrainingProc,BlockList,35,1,Distractor2.bmp,2,0,,0,1,763131,600,,0,0,purple,600,3,600,5,vertical,purple,Distractor2.bmp,red,Distractor1.bmp,blue,Distractor1.bmp,yellow,Distractor1.bmp,lime,Target1.bmp,cyan,Distractor2.bmp,,,,TrialProc,,TrainingTrialList,1,1,-999999,0,763731,0,1,625,764356,Target1.bmp,lime,1,,,,5,4,83
KW_Experiment5A,19,1,"<?xml version=""1.0""?>\n<Clock xmlns:dt=""urn:schemas-microsoft-com:datatypes""><Description dt:dt=""string"">E-Prime Primary Realtime Clock</Description><StartTime><Timestamp dt:dt=""int"">0</Timestamp><DateUtc dt:dt=""string"">2018-10-15T16:23:08Z</DateUtc></StartTime><FrequencyChanges><FrequencyChange><Frequency dt:dt=""r8"">3215292</Frequency><Timestamp dt:dt=""r8"">5285279269217</Timestamp><Current dt:dt=""r8"">0</Current><DateUtc dt:dt=""string"">2018-10-15T16:23:08Z</DateUtc></FrequencyChange></FrequencyChanges></Clock>\n",KW_Experiment5A-19-1,59.945,1.0.0.105,1,-1824826156,Professional,2.0.10.353,2.0.10.353,10/15/2018,10/15/2018 16:23,12:23:08,2.0.10.248,3,2,1,3,,,,,,,,TrainingProc,BlockList,36,2,Distractor1.bmp,1,0,,0,1,765366,501,,0,0,blue,500,2,500,3,horizontal,blue,Distractor2.bmp,cyan,Distractor1.bmp,lime,Target2.bmp,red,Distractor1.bmp,purple,Distractor1.bmp,yellow,Distractor1.bmp,,,,TrialProc,,TrainingTrialList,1,2,-999999,1,765867,0,2,473,766340,Target2.bmp,lime,2,,,,3,4,84
KW_Experiment5A,19,1,"<?xml version=""1.0""?>\n<Clock xmlns:dt=""urn:schemas-microsoft-com:datatypes""><Description dt:dt=""string"">E-Prime Primary Realtime Clock</Description><StartTime><Timestamp dt:dt=""int"">0</Timestamp><DateUtc dt:dt=""string"">2018-10-15T16:23:08Z</DateUtc></StartTime><FrequencyChanges><FrequencyChange><Frequency dt:dt=""r8"">3215292</Frequency><Timestamp dt:dt=""r8"">5285279269217</Timestamp><Current dt:dt=""r8"">0</Current><DateUtc dt:dt=""string"">2018-10-15T16:23:08Z</DateUtc></FrequencyChange></FrequencyChanges></Clock>\n",KW_Experiment5A-19-1,59.945,1.0.0.105,1,-1824826156,Professional,2.0.10.353,2.0.10.353,10/15/2018,10/15/2018 16:23,12:23:08,2.0.10.248,3,2,1,3,,,,,,,,TrainingProc,BlockList,37,2,Distractor1.bmp,1,0,,0,0,767351,401,,0,0,blue,400,1,400,3,horizontal,blue,Distractor1.bmp,red,Distractor1.bmp,purple,Distractor2.bmp,cyan,Distractor2.bmp,lime,Target2.bmp,yellow,Distractor1.bmp,,,,TrialProc,,TrainingTrialList,1,2,-999999,1,767752,0,2,484,768236,Target2.bmp,lime,2,,,,5,4,85
KW_Experiment5A,19,1,"<?xml version=""1.0""?>\n<Clock xmlns:dt=""urn:schemas-microsoft-com:datatypes""><Description dt:dt=""string"">E-Prime Primary Realtime Clock</Description><StartTime><Timestamp dt:dt=""int"">0</Timestamp><DateUtc dt:dt=""string"">2018-10-15T16:23:08Z</DateUtc></StartTime><FrequencyChanges><FrequencyChange><Frequency dt:dt=""r8"">3215292</Frequency><Timestamp dt:dt=""r8"">5285279269217</Timestamp><Current dt:dt=""r8"">0</Current><DateUtc dt:dt=""string"">2018-10-15T16:23:08Z</DateUtc></FrequencyChange></FrequencyChanges></Clock>\n",KW_Experiment5A-19-1,59.945,1.0.0.105,1,-1824826156,Professional,2.0.10.353,2.0.10.353,10/15/2018,10/15/2018 16:23,12:23:08,2.0.10.248,3,2,1,3,,,,,,,,TrainingProc,BlockList,38,1,Distractor1.bmp,1,0,,0,1,769253,601,,0,0,purple,600,3,600,5,vertical,purple,Distractor2.bmp,red,Distractor1.bmp,lime,Target1.bmp,yellow,Distractor1.bmp,blue,Distractor1.bmp,cyan,Distractor1.bmp,,,,TrialProc,,TrainingTrialList,1,1,-999999,1,769854,0,1,534,770388,Target1.bmp,lime,1,,,,3,4,86
KW_Experiment5A,19,1,"<?xml version=""1.0""?>\n<Clock xmlns:dt=""urn:schemas-microsoft-com:datatypes""><Description dt:dt=""string"">E-Prime Primary Realtime Clock</Description><StartTime><Timestamp dt:dt=""int"">0</Timestamp><DateUtc dt:dt=""string"">2018-10-15T16:23:08Z</DateUtc></StartTime><FrequencyChanges><FrequencyChange><Frequency dt:dt=""r8"">3215292</Frequency><Timestamp dt:dt=""r8"">5285279269217</Timestamp><Current dt:dt=""r8"">0</Current><DateUtc dt:dt=""string"">2018-10-15T16:23:08Z</DateUtc></FrequencyChange></FrequencyChanges></Clock>\n",KW_Experiment5A-19-1,59.945,1.0.0.105,1,-1824826156,Professional,2.0.10.353,2.0.10.353,10/15/2018,10/15/2018 16:23,12:23:08,2.0.10.248,3,2,1,3,,,,,,,,TrainingProc,BlockList,39,2,Distractor2.bmp,2,0,,0,1,771405,501,,0,0,blue,500,2,500,3,horizontal,blue,Distractor2.bmp,purple,Distractor1.bmp,yellow,Distractor1.bmp,lime,Target2.bmp,cyan,Distractor2.bmp,red,Distractor1.bmp,,,,TrialProc,,TrainingTrialList,1,2,-999999,1,771906,0,2,474,772380,Target2.bmp,lime,2,,,,4,4,87
KW_Experiment5A,19,1,"<?xml version=""1.0""?>\n<Clock xmlns:dt=""urn:schemas-microsoft-com:datatypes""><Description dt:dt=""string"">E-Prime Primary Realtime Clock</Description><StartTime><Timestamp dt:dt=""int"">0</Timestamp><DateUtc dt:dt=""string"">2018-10-15T16:23:08Z</DateUtc></StartTime><FrequencyChanges><FrequencyChange><Frequency dt:dt=""r8"">3215292</Frequency><Timestamp dt:dt=""r8"">5285279269217</Timestamp><Current dt:dt=""r8"">0</Current><DateUtc dt:dt=""string"">2018-10-15T16:23:08Z</DateUtc></FrequencyChange></FrequencyChanges></Clock>\n",KW_Experiment5A-19-1,59.945,1.0.0.105,1,-1824826156,Professional,2.0.10.353,2.0.10.353,10/15/2018,10/15/2018 16:23,12:23:08,2.0.10.248,3,2,1,3,,,,,,,,TrainingProc,BlockList,40,1,Distractor1.bmp,1,0,,0,1,773390,401,,0,0,purple,400,1,400,,vertical,purple,Distractor1.bmp,cyan,Distractor1.bmp,red,Target1.bmp,lime,Distractor1.bmp,blue,Distractor1.bmp,yellow,Distractor1.bmp,,,,TrialProc,5,TrainingTrialList,1,1,-999999,1,773791,0,1,620,774411,Target1.bmp,red,1,,,,9,4,88
KW_Experiment5A,19,1,"<?xml version=""1.0""?>\n<Clock xmlns:dt=""urn:schemas-microsoft-com:datatypes""><Description dt:dt=""string"">E-Prime Primary Realtime Clock</Description><StartTime><Timestamp dt:dt=""int"">0</Timestamp><DateUtc dt:dt=""string"">2018-10-15T16:23:08Z</DateUtc></StartTime><FrequencyChanges><FrequencyChange><Frequency dt:dt=""r8"">3215292</Frequency><Timestamp dt:dt=""r8"">5285279269217</Timestamp><Current dt:dt=""r8"">0</Current><DateUtc dt:dt=""string"">2018-10-15T16:23:08Z</DateUtc></FrequencyChange></FrequencyChanges></Clock>\n",KW_Experiment5A-19-1,59.945,1.0.0.105,1,-1824826156,Professional,2.0.10.353,2.0.10.353,10/15/2018,10/15/2018 16:23,12:23:08,2.0.10.248,3,2,1,3,,,,,,,,TrainingProc,BlockList,41,2,Distractor1.bmp,1,0,,1,1,775425,501,,0,0,purple,500,2,500,,horizontal,purple,Distractor1.bmp,red,Target2.bmp,blue,Distractor1.bmp,lime,Distractor2.bmp,yellow,Distractor1.bmp,cyan,Distractor1.bmp,,,,TrialProc,5,TrainingTrialList,1,2,-999999,1,775926,0,2,517,776443,Target2.bmp,red,2,,,,8,4,89
KW_Experiment5A,19,1,"<?xml version=""1.0""?>\n<Clock xmlns:dt=""urn:schemas-microsoft-com:datatypes""><Description dt:dt=""string"">E-Prime Primary Realtime Clock</Description><StartTime><Timestamp dt:dt=""int"">0</Timestamp><DateUtc dt:dt=""string"">2018-10-15T16:23:08Z</DateUtc></StartTime><FrequencyChanges><FrequencyChange><Frequency dt:dt=""r8"">3215292</Frequency><Timestamp dt:dt=""r8"">5285279269217</Timestamp><Current dt:dt=""r8"">0</Current><DateUtc dt:dt=""string"">2018-10-15T16:23:08Z</DateUtc></FrequencyChange></FrequencyChanges></Clock>\n",KW_Experiment5A-19-1,59.945,1.0.0.105,1,-1824826156,Professional,2.0.10.353,2.0.10.353,10/15/2018,10/15/2018 16:23,12:23:08,2.0.10.248,3,2,1,3,,,,,,,,TrainingProc,BlockList,42,1,Distractor2.bmp,2,0,,0,1,777461,500,,0,0,blue,500,2,500,,vertical,red,Target1.bmp,cyan,Distractor2.bmp,yellow,Distractor2.bmp,lime,Distractor2.bmp,purple,Distractor1.bmp,blue,Distractor2.bmp,,,,TrialProc,3,TrainingTrialList,1,1,-999999,0,777961,0,1,466,778427,Target1.bmp,red,1,,,,7,4,90
