ExperimentName,Subject,Session,Clock.Information,DataFile.Basename,Display.RefreshRate,ExperimentVersion,Group,RandomSeed,RuntimeCapabilities,RuntimeVersion,RuntimeVersionExpected,SessionDate,SessionStartDateTimeUtc,SessionTime,StudioVersion,Block,BlockList,BlockList.Cycle,BlockList.Sample,PostTestQ1.RESP,PostTestQ1CJ.RESP,PostTestQ2.RESP,PostTestQ2CJ.RESP,PostTestQ3.RESP,PostTestQ3CJ.RESP,PostTestSlide.RESP,Procedure[Block],Running[Block],Trial,CorrectResponse,Distractor,DistractorList,Fixation.ACC,Fixation.CRESP,Fixation.DurationError,Fixation.OnsetDelay,Fixation.OnsetTime,Fixation.OnsetToOnsetTime,Fixation.RESP,Fixation.RT,Fixation.RTTime,ItemColor,Jitter,JitterList,JitterTime,Lime0List,Orientation,Pos1Color,Pos1Item,Pos2Color,Pos2Item,Pos3Color,Pos3Item,Pos4Color,Pos4Item,Pos5Color,Pos5Item,Pos6Color,Pos6Item,PracticeTrialList,PracticeTrialList.Cycle,PracticeTrialList.Sample,Procedure[Trial],Red0List,Running[Trial],Stimulus.ACC,Stimulus.CRESP,Stimulus.DurationError,Stimulus.OnsetDelay,Stimulus.OnsetTime,Stimulus.OnsetToOnsetTime,Stimulus.RESP,Stimulus.RT,Stimulus.RTTime,Target,TargetColor,TargetList,TestTrialList,TestTrialList.Cycle,TestTrialList.Sample,TrainingTrialList,TrainingTrialList.Cycle,TrainingTrialList.Sample
KW_Experiment5A,13,1,"<?xml version=""1.0""?>\n<Clock xmlns:dt=""urn:schemas-microsoft-com:datatypes""><Description dt:dt=""string"">E-Prime Primary Realtime Clock</Description><StartTime><Timestamp dt:dt=""int"">0</Timestamp><DateUtc dt:dt=""string"">2018-10-11T19:00:19Z</DateUtc></StartTime><FrequencyChanges><FrequencyChange><Frequency dt:dt=""r8"">3215292</Frequency><Timestamp dt:dt=""r8"">4204431975041</Timestamp><Current dt:dt=""r8"">0</Current><DateUtc dt:dt=""string"">2018-10-11T19:00:19Z</DateUtc></FrequencyChange></FrequencyChanges></Clock>\n",KW_Experiment5A-13-1,59.946,1.0.0.105,1,-340355726,Professional,2.0.10.353,2.0.10.353,10/11/2018,10/11/2018 19:00,15:00:19,2.0.10.248,1,1,1,1,,,,,,,,PracticeProc,BlockList,1,2,Distractor2.bmp,2,0,,1,48,226030,501,,0,0,purple,500,2,500,,horizontal,purple,Distractor2.bmp,red,Target2.bmp,lime,Distractor2.bmp,cyan,Distractor2.bmp,blue,Distractor2.bmp,yellow,Distractor2.bmp,2,1,1,TrialProc,5,PracticeTrialList,1,2,-999999,1,226531,0,2,1163,227694,Target2.bmp,red,2,,,,,,
KW_Experiment5A,13,1,"<?xml version=""1.0""?>\n<Clock xmlns:dt=""urn:schemas-microsoft-com:datatypes""><Description dt:dt=""string"">E-Prime Primary Realtime Clock</Description><StartTime><Timestamp dt:dt=""int"">0</Timestamp><DateUtc dt:dt=""string"">2018-10-11T19:00:19Z</DateUtc></StartTime><FrequencyChanges><FrequencyChange><Frequency dt:dt=""r8"">3215292</Frequency><Timestamp dt:dt=""r8"">4204431975041</Timestamp><Current dt:dt=""r8"">0</Current><DateUtc dt:dt=""string"">2018-10-11T19:00:19Z</DateUtc></FrequencyChange></FrequencyChanges></Clock>\n",KW_Experiment5A-13-1,59.946,1.0.0.105,1,-340355726,Professional,2.0.10.353,2.0.10.353,10/11/2018,10/11/2018 19:00,15:00:19,2.0.10.248,1,1,1,1,,,,,,,,PracticeProc,BlockList,2,1,Distractor2.bmp,2,0,,0,1,228716,501,,0,0,red,500,2,500,1,vertical,purple,Distractor1.bmp,yellow,Distractor1.bmp,cyan,Distractor2.bmp,red,Distractor1.bmp,lime,Target1.bmp,blue,Distractor2.bmp,5,1,2,TrialProc,,PracticeTrialList,1,1,-999999,1,229217,0,1,949,230166,Target1.bmp,lime,1,,,,,,
KW_Experiment5A,13,1,"<?xml version=""1.0""?>\n<Clock xmlns:dt=""urn:schemas-microsoft-com:datatypes""><Description dt:dt=""string"">E-Prime Primary Realtime Clock</Description><StartTime><Timestamp dt:dt=""int"">0</Timestamp><DateUtc dt:dt=""string"">2018-10-11T19:00:19Z</DateUtc></StartTime><FrequencyChanges><FrequencyChange><Frequency dt:dt=""r8"">3215292</Frequency><Timestamp dt:dt=""r8"">4204431975041</Timestamp><Current dt:dt=""r8"">0</Current><DateUtc dt:dt=""string"">2018-10-11T19:00:19Z</DateUtc></FrequencyChange></FrequencyChanges></Clock>\n",KW_Experiment5A-13-1,59.946,1.0.0.105,1,-340355726,Professional,2.0.10.353,2.0.10.353,10/11/2018,10/11/2018 19:00,15:00:19,2.0.10.248,1,1,1,1,,,,,,,,PracticeProc,BlockList,3,1,Distractor1.bmp,1,0,,0,1,231185,601,,0,0,cyan,600,3,600,,vertical,blue,Distractor1.bmp,purple,Distractor1.bmp,cyan,Distractor2.bmp,red,Target1.bmp,yellow,Distractor1.bmp,lime,Distractor1.bmp,4,1,3,TrialProc,4,PracticeTrialList,1,1,-999999,1,231786,0,1,892,232678,Target1.bmp,red,1,,,,,,
KW_Experiment5A,13,1,"<?xml version=""1.0""?>\n<Clock xmlns:dt=""urn:schemas-microsoft-com:datatypes""><Description dt:dt=""string"">E-Prime Primary Realtime Clock</Description><StartTime><Timestamp dt:dt=""int"">0</Timestamp><DateUtc dt:dt=""string"">2018-10-11T19:00:19Z</DateUtc></StartTime><FrequencyChanges><FrequencyChange><Frequency dt:dt=""r8"">3215292</Frequency><Timestamp dt:dt=""r8"">4204431975041</Timestamp><Current dt:dt=""r8"">0</Current><DateUtc dt:dt=""string"">2018-10-11T19:00:19Z</DateUtc></FrequencyChange></FrequencyChanges></Clock>\n",KW_Experiment5A-13-1,59.946,1.0.0.105,1,-340355726,Professional,2.0.10.353,2.0.10.353,10/11/2018,10/11/2018 19:00,15:00:19,2.0.10.248,1,1,1,1,,,,,,,,PracticeProc,BlockList,4,2,Distractor1.bmp,1,0,,0,1,233704,400,,0,0,red,400,1,400,1,horizontal,lime,Target2.bmp,cyan,Distractor1.bmp,blue,Distractor2.bmp,purple,Distractor1.bmp,yellow,Distractor1.bmp,red,Distractor2.bmp,1,1,4,TrialProc,,PracticeTrialList,1,2,-999999,0,234104,0,2,542,234646,Target2.bmp,lime,2,,,,,,
KW_Experiment5A,13,1,"<?xml version=""1.0""?>\n<Clock xmlns:dt=""urn:schemas-microsoft-com:datatypes""><Description dt:dt=""string"">E-Prime Primary Realtime Clock</Description><StartTime><Timestamp dt:dt=""int"">0</Timestamp><DateUtc dt:dt=""string"">2018-10-11T19:00:19Z</DateUtc></StartTime><FrequencyChanges><FrequencyChange><Frequency dt:dt=""r8"">3215292</Frequency><Timestamp dt:dt=""r8"">4204431975041</Timestamp><Current dt:dt=""r8"">0</Current><DateUtc dt:dt=""string"">2018-10-11T19:00:19Z</DateUtc></FrequencyChange></FrequencyChanges></Clock>\n",KW_Experiment5A-13-1,59.946,1.0.0.105,1,-340355726,Professional,2.0.10.353,2.0.10.353,10/11/2018,10/11/2018 19:00,15:00:19,2.0.10.248,1,1,1,1,,,,,,,,PracticeProc,BlockList,5,1,Distractor1.bmp,1,0,,0,1,235656,400,,0,0,red,400,1,400,1,vertical,cyan,Distractor2.bmp,red,Distractor1.bmp,lime,Target1.bmp,yellow,Distractor1.bmp,blue,Distractor1.bmp,purple,Distractor1.bmp,3,1,5,TrialProc,,PracticeTrialList,1,1,-999999,0,236056,0,1,1094,237150,Target1.bmp,lime,1,,,,,,
KW_Experiment5A,13,1,"<?xml version=""1.0""?>\n<Clock xmlns:dt=""urn:schemas-microsoft-com:datatypes""><Description dt:dt=""string"">E-Prime Primary Realtime Clock</Description><StartTime><Timestamp dt:dt=""int"">0</Timestamp><DateUtc dt:dt=""string"">2018-10-11T19:00:19Z</DateUtc></StartTime><FrequencyChanges><FrequencyChange><Frequency dt:dt=""r8"">3215292</Frequency><Timestamp dt:dt=""r8"">4204431975041</Timestamp><Current dt:dt=""r8"">0</Current><DateUtc dt:dt=""string"">2018-10-11T19:00:19Z</DateUtc></FrequencyChange></FrequencyChanges></Clock>\n",KW_Experiment5A-13-1,59.946,1.0.0.105,1,-340355726,Professional,2.0.10.353,2.0.10.353,10/11/2018,10/11/2018 19:00,15:00:19,2.0.10.248,1,1,1,1,,,,,,,,PracticeProc,BlockList,6,2,Distractor1.bmp,1,0,,0,1,238175,400,,0,0,lime,400,1,400,,horizontal,purple,Distractor1.bmp,blue,Distractor2.bmp,yellow,Distractor1.bmp,cyan,Distractor1.bmp,lime,Distractor2.bmp,red,Target2.bmp,6,1,6,TrialProc,6,PracticeTrialList,0,2,-999999,0,238575,0,1,630,239205,Target2.bmp,red,2,,,,,,
KW_Experiment5A,13,1,"<?xml version=""1.0""?>\n<Clock xmlns:dt=""urn:schemas-microsoft-com:datatypes""><Description dt:dt=""string"">E-Prime Primary Realtime Clock</Description><StartTime><Timestamp dt:dt=""int"">0</Timestamp><DateUtc dt:dt=""string"">2018-10-11T19:00:19Z</DateUtc></StartTime><FrequencyChanges><FrequencyChange><Frequency dt:dt=""r8"">3215292</Frequency><Timestamp dt:dt=""r8"">4204431975041</Timestamp><Current dt:dt=""r8"">0</Current><DateUtc dt:dt=""string"">2018-10-11T19:00:19Z</DateUtc></FrequencyChange></FrequencyChanges></Clock>\n",KW_Experiment5A-13-1,59.946,1.0.0.105,1,-340355726,Professional,2.0.10.353,2.0.10.353,10/11/2018,10/11/2018 19:00,15:00:19,2.0.10.248,2,2,1,2,,,,,,,,TrainingProc,BlockList,1,1,Distractor2.bmp,2,0,,0,19,246232,501,,0,0,purple,500,2,500,5,vertical,purple,Distractor2.bmp,cyan,Distractor1.bmp,lime,Target1.bmp,red,Distractor2.bmp,yellow,Distractor1.bmp,blue,Distractor2.bmp,,,,TrialProc,,TrainingTrialList,1,1,-999999,1,246733,0,1,1296,248029,Target1.bmp,lime,1,,,,3,1,1
KW_Experiment5A,13,1,"<?xml version=""1.0""?>\n<Clock xmlns:dt=""urn:schemas-microsoft-com:datatypes""><Description dt:dt=""string"">E-Prime Primary Realtime Clock</Description><StartTime><Timestamp dt:dt=""int"">0</Timestamp><DateUtc dt:dt=""string"">2018-10-11T19:00:19Z</DateUtc></StartTime><FrequencyChanges><FrequencyChange><Frequency dt:dt=""r8"">3215292</Frequency><Timestamp dt:dt=""r8"">4204431975041</Timestamp><Current dt:dt=""r8"">0</Current><DateUtc dt:dt=""string"">2018-10-11T19:00:19Z</DateUtc></FrequencyChange></FrequencyChanges></Clock>\n",KW_Experiment5A-13-1,59.946,1.0.0.105,1,-340355726,Professional,2.0.10.353,2.0.10.353,10/11/2018,10/11/2018 19:00,15:00:19,2.0.10.248,2,2,1,2,,,,,,,,TrainingProc,BlockList,2,1,Distractor1.bmp,1,0,,0,1,249051,401,,0,0,cyan,400,1,400,4,vertical,cyan,Distractor1.bmp,blue,Distractor1.bmp,purple,Distractor1.bmp,red,Distractor1.bmp,yellow,Distractor1.bmp,lime,Target1.bmp,,,,TrialProc,,TrainingTrialList,1,1,-999999,1,249452,0,1,577,250029,Target1.bmp,lime,1,,,,6,1,2
KW_Experiment5A,13,1,"<?xml version=""1.0""?>\n<Clock xmlns:dt=""urn:schemas-microsoft-com:datatypes""><Description dt:dt=""string"">E-Prime Primary Realtime Clock</Description><StartTime><Timestamp dt:dt=""int"">0</Timestamp><DateUtc dt:dt=""string"">2018-10-11T19:00:19Z</DateUtc></StartTime><FrequencyChanges><FrequencyChange><Frequency dt:dt=""r8"">3215292</Frequency><Timestamp dt:dt=""r8"">4204431975041</Timestamp><Current dt:dt=""r8"">0</Current><DateUtc dt:dt=""string"">2018-10-11T19:00:19Z</DateUtc></FrequencyChange></FrequencyChanges></Clock>\n",KW_Experiment5A-13-1,59.946,1.0.0.105,1,-340355726,Professional,2.0.10.353,2.0.10.353,10/11/2018,10/11/2018 19:00,15:00:19,2.0.10.248,2,2,1,2,,,,,,,,TrainingProc,BlockList,3,1,Distractor2.bmp,2,0,,0,1,251053,401,,0,0,yellow,400,1,400,2,vertical,yellow,Distractor1.bmp,red,Distractor2.bmp,cyan,Distractor2.bmp,lime,Target1.bmp,purple,Distractor2.bmp,blue,Distractor1.bmp,,,,TrialProc,,TrainingTrialList,1,1,-999999,1,251454,0,1,823,252277,Target1.bmp,lime,1,,,,4,1,3
KW_Experiment5A,13,1,"<?xml version=""1.0""?>\n<Clock xmlns:dt=""urn:schemas-microsoft-com:datatypes""><Description dt:dt=""string"">E-Prime Primary Realtime Clock</Description><StartTime><Timestamp dt:dt=""int"">0</Timestamp><DateUtc dt:dt=""string"">2018-10-11T19:00:19Z</DateUtc></StartTime><FrequencyChanges><FrequencyChange><Frequency dt:dt=""r8"">3215292</Frequency><Timestamp dt:dt=""r8"">4204431975041</Timestamp><Current dt:dt=""r8"">0</Current><DateUtc dt:dt=""string"">2018-10-11T19:00:19Z</DateUtc></FrequencyChange></FrequencyChanges></Clock>\n",KW_Experiment5A-13-1,59.946,1.0.0.105,1,-340355726,Professional,2.0.10.353,2.0.10.353,10/11/2018,10/11/2018 19:00,15:00:19,2.0.10.248,2,2,1,2,,,,,,,,TrainingProc,BlockList,4,2,Distractor1.bmp,1,0,,0,1,253289,400,,0,0,red,400,1,400,1,horizontal,red,Distractor1.bmp,lime,Target2.bmp,yellow,Distractor1.bmp,blue,Distractor1.bmp,cyan,Distractor1.bmp,purple,Distractor2.bmp,,,,TrialProc,,TrainingTrialList,1,2,-999999,0,253689,0,2,764,254453,Target2.bmp,lime,2,,,,2,1,4
KW_Experiment5A,13,1,"<?xml version=""1.0""?>\n<Clock xmlns:dt=""urn:schemas-microsoft-com:datatypes""><Description dt:dt=""string"">E-Prime Primary Realtime Clock</Description><StartTime><Timestamp dt:dt=""int"">0</Timestamp><DateUtc dt:dt=""string"">2018-10-11T19:00:19Z</DateUtc></StartTime><FrequencyChanges><FrequencyChange><Frequency dt:dt=""r8"">3215292</Frequency><Timestamp dt:dt=""r8"">4204431975041</Timestamp><Current dt:dt=""r8"">0</Current><DateUtc dt:dt=""string"">2018-10-11T19:00:19Z</DateUtc></FrequencyChange></FrequencyChanges></Clock>\n",KW_Experiment5A-13-1,59.946,1.0.0.105,1,-340355726,Professional,2.0.10.353,2.0.10.353,10/11/2018,10/11/2018 19:00,15:00:19,2.0.10.248,2,2,1,2,,,,,,,,TrainingProc,BlockList,5,1,Distractor2.bmp,2,0,,0,1,255474,400,,0,0,cyan,400,1,400,,vertical,cyan,Distractor2.bmp,yellow,Distractor1.bmp,red,Target1.bmp,purple,Distractor2.bmp,lime,Distractor1.bmp,blue,Distractor1.bmp,,,,TrialProc,4,TrainingTrialList,1,1,-999999,0,255874,0,1,1011,256885,Target1.bmp,red,1,,,,9,1,5
KW_Experiment5A,13,1,"<?xml version=""1.0""?>\n<Clock xmlns:dt=""urn:schemas-microsoft-com:datatypes""><Description dt:dt=""string"">E-Prime Primary Realtime Clock</Description><StartTime><Timestamp dt:dt=""int"">0</Timestamp><DateUtc dt:dt=""string"">2018-10-11T19:00:19Z</DateUtc></StartTime><FrequencyChanges><FrequencyChange><Frequency dt:dt=""r8"">3215292</Frequency><Timestamp dt:dt=""r8"">4204431975041</Timestamp><Current dt:dt=""r8"">0</Current><DateUtc dt:dt=""string"">2018-10-11T19:00:19Z</DateUtc></FrequencyChange></FrequencyChanges></Clock>\n",KW_Experiment5A-13-1,59.946,1.0.0.105,1,-340355726,Professional,2.0.10.353,2.0.10.353,10/11/2018,10/11/2018 19:00,15:00:19,2.0.10.248,2,2,1,2,,,,,,,,TrainingProc,BlockList,6,1,Distractor2.bmp,2,0,,1,0,257909,501,,0,0,purple,500,2,500,5,vertical,purple,Distractor1.bmp,yellow,Distractor2.bmp,blue,Distractor1.bmp,cyan,Distractor1.bmp,lime,Target1.bmp,red,Distractor2.bmp,,,,TrialProc,,TrainingTrialList,1,1,-999999,1,258410,0,1,995,259405,Target1.bmp,lime,1,,,,5,1,6
KW_Experiment5A,13,1,"<?xml version=""1.0""?>\n<Clock xmlns:dt=""urn:schemas-microsoft-com:datatypes""><Description dt:dt=""string"">E-Prime Primary Realtime Clock</Description><StartTime><Timestamp dt:dt=""int"">0</Timestamp><DateUtc dt:dt=""string"">2018-10-11T19:00:19Z</DateUtc></StartTime><FrequencyChanges><FrequencyChange><Frequency dt:dt=""r8"">3215292</Frequency><Timestamp dt:dt=""r8"">4204431975041</Timestamp><Current dt:dt=""r8"">0</Current><DateUtc dt:dt=""string"">2018-10-11T19:00:19Z</DateUtc></FrequencyChange></FrequencyChanges></Clock>\n",KW_Experiment5A-13-1,59.946,1.0.0.105,1,-340355726,Professional,2.0.10.353,2.0.10.353,10/11/2018,10/11/2018 19:00,15:00:19,2.0.10.248,2,2,1,2,,,,,,,,TrainingProc,BlockList,7,2,Distractor1.bmp,1,0,,1,1,260428,401,,0,0,blue,400,1,400,,horizontal,blue,Distractor1.bmp,purple,Distractor2.bmp,cyan,Distractor1.bmp,yellow,Distractor1.bmp,lime,Distractor1.bmp,red,Target2.bmp,,,,TrialProc,3,TrainingTrialList,1,2,-999999,1,260829,0,2,552,261381,Target2.bmp,red,2,,,,12,1,7
KW_Experiment5A,13,1,"<?xml version=""1.0""?>\n<Clock xmlns:dt=""urn:schemas-microsoft-com:datatypes""><Description dt:dt=""string"">E-Prime Primary Realtime Clock</Description><StartTime><Timestamp dt:dt=""int"">0</Timestamp><DateUtc dt:dt=""string"">2018-10-11T19:00:19Z</DateUtc></StartTime><FrequencyChanges><FrequencyChange><Frequency dt:dt=""r8"">3215292</Frequency><Timestamp dt:dt=""r8"">4204431975041</Timestamp><Current dt:dt=""r8"">0</Current><DateUtc dt:dt=""string"">2018-10-11T19:00:19Z</DateUtc></FrequencyChange></FrequencyChanges></Clock>\n",KW_Experiment5A-13-1,59.946,1.0.0.105,1,-340355726,Professional,2.0.10.353,2.0.10.353,10/11/2018,10/11/2018 19:00,15:00:19,2.0.10.248,2,2,1,2,,,,,,,,TrainingProc,BlockList,8,2,Distractor2.bmp,2,0,,0,1,262397,400,,0,0,blue,400,1,400,3,horizontal,blue,Distractor1.bmp,purple,Distractor1.bmp,lime,Target2.bmp,yellow,Distractor2.bmp,cyan,Distractor1.bmp,red,Distractor1.bmp,,,,TrialProc,,TrainingTrialList,1,2,-999999,0,262797,0,2,656,263453,Target2.bmp,lime,2,,,,3,1,8
KW_Experiment5A,13,1,"<?xml version=""1.0""?>\n<Clock xmlns:dt=""urn:schemas-microsoft-com:datatypes""><Description dt:dt=""string"">E-Prime Primary Realtime Clock</Description><StartTime><Timestamp dt:dt=""int"">0</Timestamp><DateUtc dt:dt=""string"">2018-10-11T19:00:19Z</DateUtc></StartTime><FrequencyChanges><FrequencyChange><Frequency dt:dt=""r8"">3215292</Frequency><Timestamp dt:dt=""r8"">4204431975041</Timestamp><Current dt:dt=""r8"">0</Current><DateUtc dt:dt=""string"">2018-10-11T19:00:19Z</DateUtc></FrequencyChange></FrequencyChanges></Clock>\n",KW_Experiment5A-13-1,59.946,1.0.0.105,1,-340355726,Professional,2.0.10.353,2.0.10.353,10/11/2018,10/11/2018 19:00,15:00:19,2.0.10.248,2,2,1,2,,,,,,,,TrainingProc,BlockList,9,1,Distractor2.bmp,2,0,,0,0,264465,601,,0,0,cyan,600,3,600,4,vertical,lime,Target1.bmp,cyan,Distractor2.bmp,yellow,Distractor2.bmp,purple,Distractor2.bmp,red,Distractor1.bmp,blue,Distractor2.bmp,,,,TrialProc,,TrainingTrialList,1,1,-999999,1,265066,0,1,523,265589,Target1.bmp,lime,1,,,,1,1,9
KW_Experiment5A,13,1,"<?xml version=""1.0""?>\n<Clock xmlns:dt=""urn:schemas-microsoft-com:datatypes""><Description dt:dt=""string"">E-Prime Primary Realtime Clock</Description><StartTime><Timestamp dt:dt=""int"">0</Timestamp><DateUtc dt:dt=""string"">2018-10-11T19:00:19Z</DateUtc></StartTime><FrequencyChanges><FrequencyChange><Frequency dt:dt=""r8"">3215292</Frequency><Timestamp dt:dt=""r8"">4204431975041</Timestamp><Current dt:dt=""r8"">0</Current><DateUtc dt:dt=""string"">2018-10-11T19:00:19Z</DateUtc></FrequencyChange></FrequencyChanges></Clock>\n",KW_Experiment5A-13-1,59.946,1.0.0.105,1,-340355726,Professional,2.0.10.353,2.0.10.353,10/11/2018,10/11/2018 19:00,15:00:19,2.0.10.248,2,2,1,2,,,,,,,,TrainingProc,BlockList,10,2,Distractor2.bmp,2,0,,0,1,266601,500,,0,0,red,500,2,500,1,horizontal,red,Distractor1.bmp,cyan,Distractor2.bmp,purple,Distractor2.bmp,blue,Distractor1.bmp,lime,Target2.bmp,yellow,Distractor2.bmp,,,,TrialProc,,TrainingTrialList,1,2,-999999,0,267101,0,2,760,267861,Target2.bmp,lime,2,,,,5,1,10
KW_Experiment5A,13,1,"<?xml version=""1.0""?>\n<Clock xmlns:dt=""urn:schemas-microsoft-com:datatypes""><Description dt:dt=""string"">E-Prime Primary Realtime Clock</Description><StartTime><Timestamp dt:dt=""int"">0</Timestamp><DateUtc dt:dt=""string"">2018-10-11T19:00:19Z</DateUtc></StartTime><FrequencyChanges><FrequencyChange><Frequency dt:dt=""r8"">3215292</Frequency><Timestamp dt:dt=""r8"">4204431975041</Timestamp><Current dt:dt=""r8"">0</Current><DateUtc dt:dt=""string"">2018-10-11T19:00:19Z</DateUtc></FrequencyChange></FrequencyChanges></Clock>\n",KW_Experiment5A-13-1,59.946,1.0.0.105,1,-340355726,Professional,2.0.10.353,2.0.10.353,10/11/2018,10/11/2018 19:00,15:00:19,2.0.10.248,2,2,1,2,,,,,,,,TrainingProc,BlockList,11,2,Distractor2.bmp,2,0,,0,1,268886,501,,0,0,red,500,2,500,1,horizontal,red,Distractor1.bmp,yellow,Distractor1.bmp,purple,Distractor2.bmp,lime,Target2.bmp,blue,Distractor2.bmp,cyan,Distractor2.bmp,,,,TrialProc,,TrainingTrialList,1,2,-999999,1,269387,0,2,778,270165,Target2.bmp,lime,2,,,,4,1,11
KW_Experiment5A,13,1,"<?xml version=""1.0""?>\n<Clock xmlns:dt=""urn:schemas-microsoft-com:datatypes""><Description dt:dt=""string"">E-Prime Primary Realtime Clock</Description><StartTime><Timestamp dt:dt=""int"">0</Timestamp><DateUtc dt:dt=""string"">2018-10-11T19:00:19Z</DateUtc></StartTime><FrequencyChanges><FrequencyChange><Frequency dt:dt=""r8"">3215292</Frequency><Timestamp dt:dt=""r8"">4204431975041</Timestamp><Current dt:dt=""r8"">0</Current><DateUtc dt:dt=""string"">2018-10-11T19:00:19Z</DateUtc></FrequencyChange></FrequencyChanges></Clock>\n",KW_Experiment5A-13-1,59.946,1.0.0.105,1,-340355726,Professional,2.0.10.353,2.0.10.353,10/11/2018,10/11/2018 19:00,15:00:19,2.0.10.248,2,2,1,2,,,,,,,,TrainingProc,BlockList,12,1,Distractor2.bmp,2,0,,0,1,271188,601,,0,0,purple,600,3,600,,vertical,purple,Distractor1.bmp,red,Target1.bmp,lime,Distractor2.bmp,blue,Distractor1.bmp,yellow,Distractor1.bmp,cyan,Distractor1.bmp,,,,TrialProc,5,TrainingTrialList,1,1,-999999,1,271789,0,1,912,272701,Target1.bmp,red,1,,,,8,1,12
KW_Experiment5A,13,1,"<?xml version=""1.0""?>\n<Clock xmlns:dt=""urn:schemas-microsoft-com:datatypes""><Description dt:dt=""string"">E-Prime Primary Realtime Clock</Description><StartTime><Timestamp dt:dt=""int"">0</Timestamp><DateUtc dt:dt=""string"">2018-10-11T19:00:19Z</DateUtc></StartTime><FrequencyChanges><FrequencyChange><Frequency dt:dt=""r8"">3215292</Frequency><Timestamp dt:dt=""r8"">4204431975041</Timestamp><Current dt:dt=""r8"">0</Current><DateUtc dt:dt=""string"">2018-10-11T19:00:19Z</DateUtc></FrequencyChange></FrequencyChanges></Clock>\n",KW_Experiment5A-13-1,59.946,1.0.0.105,1,-340355726,Professional,2.0.10.353,2.0.10.353,10/11/2018,10/11/2018 19:00,15:00:19,2.0.10.248,2,2,1,2,,,,,,,,TrainingProc,BlockList,13,1,Distractor2.bmp,2,0,,0,1,273724,500,,0,0,purple,500,2,500,5,vertical,lime,Target1.bmp,purple,Distractor2.bmp,yellow,Distractor2.bmp,cyan,Distractor2.bmp,red,Distractor2.bmp,blue,Distractor1.bmp,,,,TrialProc,,TrainingTrialList,1,1,-999999,0,274224,0,1,581,274805,Target1.bmp,lime,1,,,,1,1,13
KW_Experiment5A,13,1,"<?xml version=""1.0""?>\n<Clock xmlns:dt=""urn:schemas-microsoft-com:datatypes""><Description dt:dt=""string"">E-Prime Primary Realtime Clock</Description><StartTime><Timestamp dt:dt=""int"">0</Timestamp><DateUtc dt:dt=""string"">2018-10-11T19:00:19Z</DateUtc></StartTime><FrequencyChanges><FrequencyChange><Frequency dt:dt=""r8"">3215292</Frequency><Timestamp dt:dt=""r8"">4204431975041</Timestamp><Current dt:dt=""r8"">0</Current><DateUtc dt:dt=""string"">2018-10-11T19:00:19Z</DateUtc></FrequencyChange></FrequencyChanges></Clock>\n",KW_Experiment5A-13-1,59.946,1.0.0.105,1,-340355726,Professional,2.0.10.353,2.0.10.353,10/11/2018,10/11/2018 19:00,15:00:19,2.0.10.248,2,2,1,2,,,,,,,,TrainingProc,BlockList,14,1,Distractor1.bmp,1,0,,0,1,275826,600,,0,0,red,600,3,600,1,vertical,lime,Target1.bmp,red,Distractor1.bmp,blue,Distractor1.bmp,yellow,Distractor2.bmp,purple,Distractor1.bmp,cyan,Distractor1.bmp,,,,TrialProc,,TrainingTrialList,1,1,-999999,0,276426,0,1,467,276893,Target1.bmp,lime,1,,,,1,1,14
KW_Experiment5A,13,1,"<?xml version=""1.0""?>\n<Clock xmlns:dt=""urn:schemas-microsoft-com:datatypes""><Description dt:dt=""string"">E-Prime Primary Realtime Clock</Description><StartTime><Timestamp dt:dt=""int"">0</Timestamp><DateUtc dt:dt=""string"">2018-10-11T19:00:19Z</DateUtc></StartTime><FrequencyChanges><FrequencyChange><Frequency dt:dt=""r8"">3215292</Frequency><Timestamp dt:dt=""r8"">4204431975041</Timestamp><Current dt:dt=""r8"">0</Current><DateUtc dt:dt=""string"">2018-10-11T19:00:19Z</DateUtc></FrequencyChange></FrequencyChanges></Clock>\n",KW_Experiment5A-13-1,59.946,1.0.0.105,1,-340355726,Professional,2.0.10.353,2.0.10.353,10/11/2018,10/11/2018 19:00,15:00:19,2.0.10.248,2,2,1,2,,,,,,,,TrainingProc,BlockList,15,2,Distractor1.bmp,1,0,,0,1,277911,400,,0,0,blue,400,1,400,,horizontal,blue,Distractor2.bmp,cyan,Distractor2.bmp,yellow,Distractor1.bmp,red,Target2.bmp,lime,Distractor1.bmp,purple,Distractor1.bmp,,,,TrialProc,3,TrainingTrialList,1,2,-999999,0,278311,0,2,997,279308,Target2.bmp,red,2,,,,10,1,15
KW_Experiment5A,13,1,"<?xml version=""1.0""?>\n<Clock xmlns:dt=""urn:schemas-microsoft-com:datatypes""><Description dt:dt=""string"">E-Prime Primary Realtime Clock</Description><StartTime><Timestamp dt:dt=""int"">0</Timestamp><DateUtc dt:dt=""string"">2018-10-11T19:00:19Z</DateUtc></StartTime><FrequencyChanges><FrequencyChange><Frequency dt:dt=""r8"">3215292</Frequency><Timestamp dt:dt=""r8"">4204431975041</Timestamp><Current dt:dt=""r8"">0</Current><DateUtc dt:dt=""string"">2018-10-11T19:00:19Z</DateUtc></FrequencyChange></FrequencyChanges></Clock>\n",KW_Experiment5A-13-1,59.946,1.0.0.105,1,-340355726,Professional,2.0.10.353,2.0.10.353,10/11/2018,10/11/2018 19:00,15:00:19,2.0.10.248,2,2,1,2,,,,,,,,TrainingProc,BlockList,16,2,Distractor1.bmp,1,0,,0,1,280330,400,,0,0,purple,400,1,400,5,horizontal,purple,Distractor2.bmp,yellow,Distractor1.bmp,lime,Target2.bmp,red,Distractor1.bmp,blue,Distractor1.bmp,cyan,Distractor2.bmp,,,,TrialProc,,TrainingTrialList,1,2,-999999,0,280730,0,2,970,281700,Target2.bmp,lime,2,,,,3,1,16
KW_Experiment5A,13,1,"<?xml version=""1.0""?>\n<Clock xmlns:dt=""urn:schemas-microsoft-com:datatypes""><Description dt:dt=""string"">E-Prime Primary Realtime Clock</Description><StartTime><Timestamp dt:dt=""int"">0</Timestamp><DateUtc dt:dt=""string"">2018-10-11T19:00:19Z</DateUtc></StartTime><FrequencyChanges><FrequencyChange><Frequency dt:dt=""r8"">3215292</Frequency><Timestamp dt:dt=""r8"">4204431975041</Timestamp><Current dt:dt=""r8"">0</Current><DateUtc dt:dt=""string"">2018-10-11T19:00:19Z</DateUtc></FrequencyChange></FrequencyChanges></Clock>\n",KW_Experiment5A-13-1,59.946,1.0.0.105,1,-340355726,Professional,2.0.10.353,2.0.10.353,10/11/2018,10/11/2018 19:00,15:00:19,2.0.10.248,2,2,1,2,,,,,,,,TrainingProc,BlockList,17,2,Distractor2.bmp,2,0,,0,1,282715,401,,0,0,yellow,400,1,400,2,horizontal,yellow,Distractor2.bmp,red,Distractor2.bmp,purple,Distractor2.bmp,blue,Distractor2.bmp,cyan,Distractor1.bmp,lime,Target2.bmp,,,,TrialProc,,TrainingTrialList,1,2,-999999,1,283116,0,2,704,283820,Target2.bmp,lime,2,,,,6,1,17
KW_Experiment5A,13,1,"<?xml version=""1.0""?>\n<Clock xmlns:dt=""urn:schemas-microsoft-com:datatypes""><Description dt:dt=""string"">E-Prime Primary Realtime Clock</Description><StartTime><Timestamp dt:dt=""int"">0</Timestamp><DateUtc dt:dt=""string"">2018-10-11T19:00:19Z</DateUtc></StartTime><FrequencyChanges><FrequencyChange><Frequency dt:dt=""r8"">3215292</Frequency><Timestamp dt:dt=""r8"">4204431975041</Timestamp><Current dt:dt=""r8"">0</Current><DateUtc dt:dt=""string"">2018-10-11T19:00:19Z</DateUtc></FrequencyChange></FrequencyChanges></Clock>\n",KW_Experiment5A-13-1,59.946,1.0.0.105,1,-340355726,Professional,2.0.10.353,2.0.10.353,10/11/2018,10/11/2018 19:00,15:00:19,2.0.10.248,2,2,1,2,,,,,,,,TrainingProc,BlockList,18,2,Distractor1.bmp,1,0,,0,1,284834,400,,0,0,red,400,1,400,1,horizontal,red,Distractor1.bmp,lime,Target2.bmp,purple,Distractor1.bmp,cyan,Distractor2.bmp,yellow,Distractor2.bmp,blue,Distractor2.bmp,,,,TrialProc,,TrainingTrialList,1,2,-999999,0,285234,0,2,842,286076,Target2.bmp,lime,2,,,,2,1,18
KW_Experiment5A,13,1,"<?xml version=""1.0""?>\n<Clock xmlns:dt=""urn:schemas-microsoft-com:datatypes""><Description dt:dt=""string"">E-Prime Primary Realtime Clock</Description><StartTime><Timestamp dt:dt=""int"">0</Timestamp><DateUtc dt:dt=""string"">2018-10-11T19:00:19Z</DateUtc></StartTime><FrequencyChanges><FrequencyChange><Frequency dt:dt=""r8"">3215292</Frequency><Timestamp dt:dt=""r8"">4204431975041</Timestamp><Current dt:dt=""r8"">0</Current><DateUtc dt:dt=""string"">2018-10-11T19:00:19Z</DateUtc></FrequencyChange></FrequencyChanges></Clock>\n",KW_Experiment5A-13-1,59.946,1.0.0.105,1,-340355726,Professional,2.0.10.353,2.0.10.353,10/11/2018,10/11/2018 19:00,15:00:19,2.0.10.248,2,2,1,2,,,,,,,,TrainingProc,BlockList,19,2,Distractor1.bmp,1,0,,0,1,287103,600,,0,0,cyan,600,3,600,4,horizontal,cyan,Distractor2.bmp,red,Distractor2.bmp,purple,Distractor2.bmp,blue,Distractor2.bmp,lime,Target2.bmp,yellow,Distractor1.bmp,,,,TrialProc,,TrainingTrialList,0,2,-999999,0,287703,0,1,1093,288796,Target2.bmp,lime,2,,,,5,1,19
KW_Experiment5A,13,1,"<?xml version=""1.0""?>\n<Clock xmlns:dt=""urn:schemas-microsoft-com:datatypes""><Description dt:dt=""string"">E-Prime Primary Realtime Clock</Description><StartTime><Timestamp dt:dt=""int"">0</Timestamp><DateUtc dt:dt=""string"">2018-10-11T19:00:19Z</DateUtc></StartTime><FrequencyChanges><FrequencyChange><Frequency dt:dt=""r8"">3215292</Frequency><Timestamp dt:dt=""r8"">4204431975041</Timestamp><Current dt:dt=""r8"">0</Current><DateUtc dt:dt=""string"">2018-10-11T19:00:19Z</DateUtc></FrequencyChange></FrequencyChanges></Clock>\n",KW_Experiment5A-13-1,59.946,1.0.0.105,1,-340355726,Professional,2.0.10.353,2.0.10.353,10/11/2018,10/11/2018 19:00,15:00:19,2.0.10.248,2,2,1,2,,,,,,,,TrainingProc,BlockList,20,1,Distractor1.bmp,1,0,,0,1,289822,500,,0,0,lime,500,2,500,,vertical,red,Target1.bmp,yellow,Distractor1.bmp,cyan,Distractor1.bmp,blue,Distractor1.bmp,purple,Distractor2.bmp,lime,Distractor1.bmp,,,,TrialProc,6,TrainingTrialList,1,1,-999999,0,290322,0,1,754,291076,Target1.bmp,red,1,,,,7,1,20
KW_Experiment5A,13,1,"<?xml version=""1.0""?>\n<Clock xmlns:dt=""urn:schemas-microsoft-com:datatypes""><Description dt:dt=""string"">E-Prime Primary Realtime Clock</Description><StartTime><Timestamp dt:dt=""int"">0</Timestamp><DateUtc dt:dt=""string"">2018-10-11T19:00:19Z</DateUtc></StartTime><FrequencyChanges><FrequencyChange><Frequency dt:dt=""r8"">3215292</Frequency><Timestamp dt:dt=""r8"">4204431975041</Timestamp><Current dt:dt=""r8"">0</Current><DateUtc dt:dt=""string"">2018-10-11T19:00:19Z</DateUtc></FrequencyChange></FrequencyChanges></Clock>\n",KW_Experiment5A-13-1,59.946,1.0.0.105,1,-340355726,Professional,2.0.10.353,2.0.10.353,10/11/2018,10/11/2018 19:00,15:00:19,2.0.10.248,2,2,1,2,,,,,,,,TrainingProc,BlockList,21,1,Distractor1.bmp,1,0,,1,0,292090,501,,0,0,cyan,500,2,500,4,vertical,cyan,Distractor1.bmp,lime,Target1.bmp,blue,Distractor1.bmp,red,Distractor1.bmp,purple,Distractor1.bmp,yellow,Distractor2.bmp,,,,TrialProc,,TrainingTrialList,1,1,-999999,1,292591,0,1,677,293268,Target1.bmp,lime,1,,,,2,1,21
KW_Experiment5A,13,1,"<?xml version=""1.0""?>\n<Clock xmlns:dt=""urn:schemas-microsoft-com:datatypes""><Description dt:dt=""string"">E-Prime Primary Realtime Clock</Description><StartTime><Timestamp dt:dt=""int"">0</Timestamp><DateUtc dt:dt=""string"">2018-10-11T19:00:19Z</DateUtc></StartTime><FrequencyChanges><FrequencyChange><Frequency dt:dt=""r8"">3215292</Frequency><Timestamp dt:dt=""r8"">4204431975041</Timestamp><Current dt:dt=""r8"">0</Current><DateUtc dt:dt=""string"">2018-10-11T19:00:19Z</DateUtc></FrequencyChange></FrequencyChanges></Clock>\n",KW_Experiment5A-13-1,59.946,1.0.0.105,1,-340355726,Professional,2.0.10.353,2.0.10.353,10/11/2018,10/11/2018 19:00,15:00:19,2.0.10.248,2,2,1,2,,,,,,,,TrainingProc,BlockList,22,2,Distractor1.bmp,1,0,,0,1,294293,600,,0,0,red,600,3,600,1,horizontal,red,Distractor2.bmp,purple,Distractor1.bmp,cyan,Distractor1.bmp,lime,Target2.bmp,yellow,Distractor1.bmp,blue,Distractor2.bmp,,,,TrialProc,,TrainingTrialList,1,2,-999999,0,294893,0,2,895,295788,Target2.bmp,lime,2,,,,4,1,22
KW_Experiment5A,13,1,"<?xml version=""1.0""?>\n<Clock xmlns:dt=""urn:schemas-microsoft-com:datatypes""><Description dt:dt=""string"">E-Prime Primary Realtime Clock</Description><StartTime><Timestamp dt:dt=""int"">0</Timestamp><DateUtc dt:dt=""string"">2018-10-11T19:00:19Z</DateUtc></StartTime><FrequencyChanges><FrequencyChange><Frequency dt:dt=""r8"">3215292</Frequency><Timestamp dt:dt=""r8"">4204431975041</Timestamp><Current dt:dt=""r8"">0</Current><DateUtc dt:dt=""string"">2018-10-11T19:00:19Z</DateUtc></FrequencyChange></FrequencyChanges></Clock>\n",KW_Experiment5A-13-1,59.946,1.0.0.105,1,-340355726,Professional,2.0.10.353,2.0.10.353,10/11/2018,10/11/2018 19:00,15:00:19,2.0.10.248,2,2,1,2,,,,,,,,TrainingProc,BlockList,23,2,Distractor2.bmp,2,0,,0,1,296812,600,,0,0,cyan,600,3,600,,horizontal,cyan,Distractor2.bmp,purple,Distractor1.bmp,blue,Distractor1.bmp,yellow,Distractor1.bmp,red,Target2.bmp,lime,Distractor2.bmp,,,,TrialProc,4,TrainingTrialList,1,2,-999999,0,297412,0,2,712,298124,Target2.bmp,red,2,,,,11,1,23
KW_Experiment5A,13,1,"<?xml version=""1.0""?>\n<Clock xmlns:dt=""urn:schemas-microsoft-com:datatypes""><Description dt:dt=""string"">E-Prime Primary Realtime Clock</Description><StartTime><Timestamp dt:dt=""int"">0</Timestamp><DateUtc dt:dt=""string"">2018-10-11T19:00:19Z</DateUtc></StartTime><FrequencyChanges><FrequencyChange><Frequency dt:dt=""r8"">3215292</Frequency><Timestamp dt:dt=""r8"">4204431975041</Timestamp><Current dt:dt=""r8"">0</Current><DateUtc dt:dt=""string"">2018-10-11T19:00:19Z</DateUtc></FrequencyChange></FrequencyChanges></Clock>\n",KW_Experiment5A-13-1,59.946,1.0.0.105,1,-340355726,Professional,2.0.10.353,2.0.10.353,10/11/2018,10/11/2018 19:00,15:00:19,2.0.10.248,2,2,1,2,,,,,,,,TrainingProc,BlockList,24,1,Distractor1.bmp,1,0,,0,1,299147,400,,0,0,red,400,1,400,1,vertical,red,Distractor1.bmp,blue,Distractor1.bmp,purple,Distractor1.bmp,cyan,Distractor2.bmp,yellow,Distractor1.bmp,lime,Target1.bmp,,,,TrialProc,,TrainingTrialList,1,1,-999999,0,299547,0,1,1905,301452,Target1.bmp,lime,1,,,,6,1,24
KW_Experiment5A,13,1,"<?xml version=""1.0""?>\n<Clock xmlns:dt=""urn:schemas-microsoft-com:datatypes""><Description dt:dt=""string"">E-Prime Primary Realtime Clock</Description><StartTime><Timestamp dt:dt=""int"">0</Timestamp><DateUtc dt:dt=""string"">2018-10-11T19:00:19Z</DateUtc></StartTime><FrequencyChanges><FrequencyChange><Frequency dt:dt=""r8"">3215292</Frequency><Timestamp dt:dt=""r8"">4204431975041</Timestamp><Current dt:dt=""r8"">0</Current><DateUtc dt:dt=""string"">2018-10-11T19:00:19Z</DateUtc></FrequencyChange></FrequencyChanges></Clock>\n",KW_Experiment5A-13-1,59.946,1.0.0.105,1,-340355726,Professional,2.0.10.353,2.0.10.353,10/11/2018,10/11/2018 19:00,15:00:19,2.0.10.248,2,2,1,2,,,,,,,,TrainingProc,BlockList,25,2,Distractor1.bmp,1,0,,0,1,302467,600,,0,0,red,600,3,600,1,horizontal,red,Distractor1.bmp,blue,Distractor1.bmp,purple,Distractor1.bmp,yellow,Distractor2.bmp,cyan,Distractor1.bmp,lime,Target2.bmp,,,,TrialProc,,TrainingTrialList,1,2,-999999,0,303067,0,2,553,303620,Target2.bmp,lime,2,,,,6,2,25
KW_Experiment5A,13,1,"<?xml version=""1.0""?>\n<Clock xmlns:dt=""urn:schemas-microsoft-com:datatypes""><Description dt:dt=""string"">E-Prime Primary Realtime Clock</Description><StartTime><Timestamp dt:dt=""int"">0</Timestamp><DateUtc dt:dt=""string"">2018-10-11T19:00:19Z</DateUtc></StartTime><FrequencyChanges><FrequencyChange><Frequency dt:dt=""r8"">3215292</Frequency><Timestamp dt:dt=""r8"">4204431975041</Timestamp><Current dt:dt=""r8"">0</Current><DateUtc dt:dt=""string"">2018-10-11T19:00:19Z</DateUtc></FrequencyChange></FrequencyChanges></Clock>\n",KW_Experiment5A-13-1,59.946,1.0.0.105,1,-340355726,Professional,2.0.10.353,2.0.10.353,10/11/2018,10/11/2018 19:00,15:00:19,2.0.10.248,2,2,1,2,,,,,,,,TrainingProc,BlockList,26,1,Distractor2.bmp,2,0,,0,1,304635,601,,0,0,cyan,600,3,600,4,vertical,lime,Target1.bmp,cyan,Distractor2.bmp,yellow,Distractor2.bmp,purple,Distractor1.bmp,red,Distractor2.bmp,blue,Distractor2.bmp,,,,TrialProc,,TrainingTrialList,1,1,-999999,1,305236,0,1,704,305940,Target1.bmp,lime,1,,,,1,2,26
KW_Experiment5A,13,1,"<?xml version=""1.0""?>\n<Clock xmlns:dt=""urn:schemas-microsoft-com:datatypes""><Description dt:dt=""string"">E-Prime Primary Realtime Clock</Description><StartTime><Timestamp dt:dt=""int"">0</Timestamp><DateUtc dt:dt=""string"">2018-10-11T19:00:19Z</DateUtc></StartTime><FrequencyChanges><FrequencyChange><Frequency dt:dt=""r8"">3215292</Frequency><Timestamp dt:dt=""r8"">4204431975041</Timestamp><Current dt:dt=""r8"">0</Current><DateUtc dt:dt=""string"">2018-10-11T19:00:19Z</DateUtc></FrequencyChange></FrequencyChanges></Clock>\n",KW_Experiment5A-13-1,59.946,1.0.0.105,1,-340355726,Professional,2.0.10.353,2.0.10.353,10/11/2018,10/11/2018 19:00,15:00:19,2.0.10.248,2,2,1,2,,,,,,,,TrainingProc,BlockList,27,1,Distractor2.bmp,2,0,,0,1,306954,501,,0,0,blue,500,2,500,3,vertical,blue,Distractor1.bmp,purple,Distractor1.bmp,cyan,Distractor2.bmp,red,Distractor1.bmp,lime,Target1.bmp,yellow,Distractor2.bmp,,,,TrialProc,,TrainingTrialList,1,1,-999999,1,307455,0,1,717,308172,Target1.bmp,lime,1,,,,5,2,27
KW_Experiment5A,13,1,"<?xml version=""1.0""?>\n<Clock xmlns:dt=""urn:schemas-microsoft-com:datatypes""><Description dt:dt=""string"">E-Prime Primary Realtime Clock</Description><StartTime><Timestamp dt:dt=""int"">0</Timestamp><DateUtc dt:dt=""string"">2018-10-11T19:00:19Z</DateUtc></StartTime><FrequencyChanges><FrequencyChange><Frequency dt:dt=""r8"">3215292</Frequency><Timestamp dt:dt=""r8"">4204431975041</Timestamp><Current dt:dt=""r8"">0</Current><DateUtc dt:dt=""string"">2018-10-11T19:00:19Z</DateUtc></FrequencyChange></FrequencyChanges></Clock>\n",KW_Experiment5A-13-1,59.946,1.0.0.105,1,-340355726,Professional,2.0.10.353,2.0.10.353,10/11/2018,10/11/2018 19:00,15:00:19,2.0.10.248,2,2,1,2,,,,,,,,TrainingProc,BlockList,28,2,Distractor2.bmp,2,0,,0,0,309189,501,,0,0,blue,500,2,500,,horizontal,blue,Distractor1.bmp,red,Target2.bmp,lime,Distractor2.bmp,cyan,Distractor2.bmp,yellow,Distractor1.bmp,purple,Distractor2.bmp,,,,TrialProc,3,TrainingTrialList,1,2,-999999,1,309690,0,2,674,310364,Target2.bmp,red,2,,,,8,2,28
KW_Experiment5A,13,1,"<?xml version=""1.0""?>\n<Clock xmlns:dt=""urn:schemas-microsoft-com:datatypes""><Description dt:dt=""string"">E-Prime Primary Realtime Clock</Description><StartTime><Timestamp dt:dt=""int"">0</Timestamp><DateUtc dt:dt=""string"">2018-10-11T19:00:19Z</DateUtc></StartTime><FrequencyChanges><FrequencyChange><Frequency dt:dt=""r8"">3215292</Frequency><Timestamp dt:dt=""r8"">4204431975041</Timestamp><Current dt:dt=""r8"">0</Current><DateUtc dt:dt=""string"">2018-10-11T19:00:19Z</DateUtc></FrequencyChange></FrequencyChanges></Clock>\n",KW_Experiment5A-13-1,59.946,1.0.0.105,1,-340355726,Professional,2.0.10.353,2.0.10.353,10/11/2018,10/11/2018 19:00,15:00:19,2.0.10.248,2,2,1,2,,,,,,,,TrainingProc,BlockList,29,2,Distractor2.bmp,2,0,,0,1,311375,500,,0,0,purple,500,2,500,5,horizontal,purple,Distractor1.bmp,blue,Distractor1.bmp,yellow,Distractor2.bmp,cyan,Distractor2.bmp,lime,Target2.bmp,red,Distractor2.bmp,,,,TrialProc,,TrainingTrialList,1,2,-999999,0,311875,0,2,697,312572,Target2.bmp,lime,2,,,,5,2,29
KW_Experiment5A,13,1,"<?xml version=""1.0""?>\n<Clock xmlns:dt=""urn:schemas-microsoft-com:datatypes""><Description dt:dt=""string"">E-Prime Primary Realtime Clock</Description><StartTime><Timestamp dt:dt=""int"">0</Timestamp><DateUtc dt:dt=""string"">2018-10-11T19:00:19Z</DateUtc></StartTime><FrequencyChanges><FrequencyChange><Frequency dt:dt=""r8"">3215292</Frequency><Timestamp dt:dt=""r8"">4204431975041</Timestamp><Current dt:dt=""r8"">0</Current><DateUtc dt:dt=""string"">2018-10-11T19:00:19Z</DateUtc></FrequencyChange></FrequencyChanges></Clock>\n",KW_Experiment5A-13-1,59.946,1.0.0.105,1,-340355726,Professional,2.0.10.353,2.0.10.353,10/11/2018,10/11/2018 19:00,15:00:19,2.0.10.248,2,2,1,2,,,,,,,,TrainingProc,BlockList,30,2,Distractor1.bmp,1,0,,0,0,313593,501,,0,0,cyan,500,2,500,4,horizontal,cyan,Distractor1.bmp,red,Distractor1.bmp,lime,Target2.bmp,yellow,Distractor1.bmp,blue,Distractor1.bmp,purple,Distractor1.bmp,,,,TrialProc,,TrainingTrialList,1,2,-999999,1,314094,0,2,974,315068,Target2.bmp,lime,2,,,,3,2,30
KW_Experiment5A,13,1,"<?xml version=""1.0""?>\n<Clock xmlns:dt=""urn:schemas-microsoft-com:datatypes""><Description dt:dt=""string"">E-Prime Primary Realtime Clock</Description><StartTime><Timestamp dt:dt=""int"">0</Timestamp><DateUtc dt:dt=""string"">2018-10-11T19:00:19Z</DateUtc></StartTime><FrequencyChanges><FrequencyChange><Frequency dt:dt=""r8"">3215292</Frequency><Timestamp dt:dt=""r8"">4204431975041</Timestamp><Current dt:dt=""r8"">0</Current><DateUtc dt:dt=""string"">2018-10-11T19:00:19Z</DateUtc></FrequencyChange></FrequencyChanges></Clock>\n",KW_Experiment5A-13-1,59.946,1.0.0.105,1,-340355726,Professional,2.0.10.353,2.0.10.353,10/11/2018,10/11/2018 19:00,15:00:19,2.0.10.248,2,2,1,2,,,,,,,,TrainingProc,BlockList,31,1,Distractor2.bmp,2,0,,0,1,316079,500,,0,0,red,500,2,500,1,vertical,red,Distractor1.bmp,yellow,Distractor2.bmp,lime,Target1.bmp,cyan,Distractor2.bmp,blue,Distractor1.bmp,purple,Distractor2.bmp,,,,TrialProc,,TrainingTrialList,1,1,-999999,0,316579,0,1,769,317348,Target1.bmp,lime,1,,,,3,2,31
KW_Experiment5A,13,1,"<?xml version=""1.0""?>\n<Clock xmlns:dt=""urn:schemas-microsoft-com:datatypes""><Description dt:dt=""string"">E-Prime Primary Realtime Clock</Description><StartTime><Timestamp dt:dt=""int"">0</Timestamp><DateUtc dt:dt=""string"">2018-10-11T19:00:19Z</DateUtc></StartTime><FrequencyChanges><FrequencyChange><Frequency dt:dt=""r8"">3215292</Frequency><Timestamp dt:dt=""r8"">4204431975041</Timestamp><Current dt:dt=""r8"">0</Current><DateUtc dt:dt=""string"">2018-10-11T19:00:19Z</DateUtc></FrequencyChange></FrequencyChanges></Clock>\n",KW_Experiment5A-13-1,59.946,1.0.0.105,1,-340355726,Professional,2.0.10.353,2.0.10.353,10/11/2018,10/11/2018 19:00,15:00:19,2.0.10.248,2,2,1,2,,,,,,,,TrainingProc,BlockList,32,2,Distractor2.bmp,2,0,,0,1,318364,601,,0,0,purple,600,3,600,,horizontal,purple,Distractor2.bmp,yellow,Distractor1.bmp,blue,Distractor1.bmp,red,Target2.bmp,cyan,Distractor2.bmp,lime,Distractor1.bmp,,,,TrialProc,5,TrainingTrialList,1,2,-999999,1,318965,0,2,918,319883,Target2.bmp,red,2,,,,10,2,32
KW_Experiment5A,13,1,"<?xml version=""1.0""?>\n<Clock xmlns:dt=""urn:schemas-microsoft-com:datatypes""><Description dt:dt=""string"">E-Prime Primary Realtime Clock</Description><StartTime><Timestamp dt:dt=""int"">0</Timestamp><DateUtc dt:dt=""string"">2018-10-11T19:00:19Z</DateUtc></StartTime><FrequencyChanges><FrequencyChange><Frequency dt:dt=""r8"">3215292</Frequency><Timestamp dt:dt=""r8"">4204431975041</Timestamp><Current dt:dt=""r8"">0</Current><DateUtc dt:dt=""string"">2018-10-11T19:00:19Z</DateUtc></FrequencyChange></FrequencyChanges></Clock>\n",KW_Experiment5A-13-1,59.946,1.0.0.105,1,-340355726,Professional,2.0.10.353,2.0.10.353,10/11/2018,10/11/2018 19:00,15:00:19,2.0.10.248,2,2,1,2,,,,,,,,TrainingProc,BlockList,33,1,Distractor1.bmp,1,0,,0,1,320900,400,,0,0,cyan,400,1,400,4,vertical,lime,Target1.bmp,cyan,Distractor1.bmp,blue,Distractor2.bmp,purple,Distractor2.bmp,red,Distractor2.bmp,yellow,Distractor1.bmp,,,,TrialProc,,TrainingTrialList,1,1,-999999,0,321300,0,1,711,322011,Target1.bmp,lime,1,,,,1,2,33
KW_Experiment5A,13,1,"<?xml version=""1.0""?>\n<Clock xmlns:dt=""urn:schemas-microsoft-com:datatypes""><Description dt:dt=""string"">E-Prime Primary Realtime Clock</Description><StartTime><Timestamp dt:dt=""int"">0</Timestamp><DateUtc dt:dt=""string"">2018-10-11T19:00:19Z</DateUtc></StartTime><FrequencyChanges><FrequencyChange><Frequency dt:dt=""r8"">3215292</Frequency><Timestamp dt:dt=""r8"">4204431975041</Timestamp><Current dt:dt=""r8"">0</Current><DateUtc dt:dt=""string"">2018-10-11T19:00:19Z</DateUtc></FrequencyChange></FrequencyChanges></Clock>\n",KW_Experiment5A-13-1,59.946,1.0.0.105,1,-340355726,Professional,2.0.10.353,2.0.10.353,10/11/2018,10/11/2018 19:00,15:00:19,2.0.10.248,2,2,1,2,,,,,,,,TrainingProc,BlockList,34,1,Distractor2.bmp,2,0,,0,1,323035,501,,0,0,red,500,2,500,1,vertical,red,Distractor1.bmp,cyan,Distractor1.bmp,purple,Distractor2.bmp,lime,Target1.bmp,blue,Distractor2.bmp,yellow,Distractor2.bmp,,,,TrialProc,,TrainingTrialList,1,1,-999999,1,323536,0,1,643,324179,Target1.bmp,lime,1,,,,4,2,34
KW_Experiment5A,13,1,"<?xml version=""1.0""?>\n<Clock xmlns:dt=""urn:schemas-microsoft-com:datatypes""><Description dt:dt=""string"">E-Prime Primary Realtime Clock</Description><StartTime><Timestamp dt:dt=""int"">0</Timestamp><DateUtc dt:dt=""string"">2018-10-11T19:00:19Z</DateUtc></StartTime><FrequencyChanges><FrequencyChange><Frequency dt:dt=""r8"">3215292</Frequency><Timestamp dt:dt=""r8"">4204431975041</Timestamp><Current dt:dt=""r8"">0</Current><DateUtc dt:dt=""string"">2018-10-11T19:00:19Z</DateUtc></FrequencyChange></FrequencyChanges></Clock>\n",KW_Experiment5A-13-1,59.946,1.0.0.105,1,-340355726,Professional,2.0.10.353,2.0.10.353,10/11/2018,10/11/2018 19:00,15:00:19,2.0.10.248,2,2,1,2,,,,,,,,TrainingProc,BlockList,35,1,Distractor1.bmp,1,0,,0,1,325204,500,,0,0,blue,500,2,500,,vertical,blue,Distractor1.bmp,lime,Distractor1.bmp,red,Target1.bmp,purple,Distractor1.bmp,cyan,Distractor2.bmp,yellow,Distractor2.bmp,,,,TrialProc,3,TrainingTrialList,1,1,-999999,0,325704,0,1,963,326667,Target1.bmp,red,1,,,,9,2,35
KW_Experiment5A,13,1,"<?xml version=""1.0""?>\n<Clock xmlns:dt=""urn:schemas-microsoft-com:datatypes""><Description dt:dt=""string"">E-Prime Primary Realtime Clock</Description><StartTime><Timestamp dt:dt=""int"">0</Timestamp><DateUtc dt:dt=""string"">2018-10-11T19:00:19Z</DateUtc></StartTime><FrequencyChanges><FrequencyChange><Frequency dt:dt=""r8"">3215292</Frequency><Timestamp dt:dt=""r8"">4204431975041</Timestamp><Current dt:dt=""r8"">0</Current><DateUtc dt:dt=""string"">2018-10-11T19:00:19Z</DateUtc></FrequencyChange></FrequencyChanges></Clock>\n",KW_Experiment5A-13-1,59.946,1.0.0.105,1,-340355726,Professional,2.0.10.353,2.0.10.353,10/11/2018,10/11/2018 19:00,15:00:19,2.0.10.248,2,2,1,2,,,,,,,,TrainingProc,BlockList,36,1,Distractor2.bmp,2,0,,0,1,327690,400,,0,0,purple,400,1,400,5,vertical,purple,Distractor1.bmp,red,Distractor1.bmp,yellow,Distractor1.bmp,blue,Distractor2.bmp,lime,Target1.bmp,cyan,Distractor2.bmp,,,,TrialProc,,TrainingTrialList,1,1,-999999,0,328090,0,1,913,329003,Target1.bmp,lime,1,,,,5,2,36
KW_Experiment5A,13,1,"<?xml version=""1.0""?>\n<Clock xmlns:dt=""urn:schemas-microsoft-com:datatypes""><Description dt:dt=""string"">E-Prime Primary Realtime Clock</Description><StartTime><Timestamp dt:dt=""int"">0</Timestamp><DateUtc dt:dt=""string"">2018-10-11T19:00:19Z</DateUtc></StartTime><FrequencyChanges><FrequencyChange><Frequency dt:dt=""r8"">3215292</Frequency><Timestamp dt:dt=""r8"">4204431975041</Timestamp><Current dt:dt=""r8"">0</Current><DateUtc dt:dt=""string"">2018-10-11T19:00:19Z</DateUtc></FrequencyChange></FrequencyChanges></Clock>\n",KW_Experiment5A-13-1,59.946,1.0.0.105,1,-340355726,Professional,2.0.10.353,2.0.10.353,10/11/2018,10/11/2018 19:00,15:00:19,2.0.10.248,2,2,1,2,,,,,,,,TrainingProc,BlockList,37,1,Distractor2.bmp,2,0,,0,1,330025,500,,0,0,purple,500,2,500,5,vertical,lime,Target1.bmp,purple,Distractor2.bmp,red,Distractor2.bmp,cyan,Distractor2.bmp,blue,Distractor2.bmp,yellow,Distractor1.bmp,,,,TrialProc,,TrainingTrialList,0,1,-999999,0,330525,0,2,1318,331843,Target1.bmp,lime,1,,,,1,2,37
KW_Experiment5A,13,1,"<?xml version=""1.0""?>\n<Clock xmlns:dt=""urn:schemas-microsoft-com:datatypes""><Description dt:dt=""string"">E-Prime Primary Realtime Clock</Description><StartTime><Timestamp dt:dt=""int"">0</Timestamp><DateUtc dt:dt=""string"">2018-10-11T19:00:19Z</DateUtc></StartTime><FrequencyChanges><FrequencyChange><Frequency dt:dt=""r8"">3215292</Frequency><Timestamp dt:dt=""r8"">4204431975041</Timestamp><Current dt:dt=""r8"">0</Current><DateUtc dt:dt=""string"">2018-10-11T19:00:19Z</DateUtc></FrequencyChange></FrequencyChanges></Clock>\n",KW_Experiment5A-13-1,59.946,1.0.0.105,1,-340355726,Professional,2.0.10.353,2.0.10.353,10/11/2018,10/11/2018 19:00,15:00:19,2.0.10.248,2,2,1,2,,,,,,,,TrainingProc,BlockList,38,1,Distractor1.bmp,1,0,,0,1,332861,400,,0,0,purple,400,1,400,5,vertical,purple,Distractor1.bmp,blue,Distractor1.bmp,yellow,Distractor2.bmp,red,Distractor1.bmp,cyan,Distractor1.bmp,lime,Target1.bmp,,,,TrialProc,,TrainingTrialList,1,1,-999999,0,333261,0,1,622,333883,Target1.bmp,lime,1,,,,6,2,38
KW_Experiment5A,13,1,"<?xml version=""1.0""?>\n<Clock xmlns:dt=""urn:schemas-microsoft-com:datatypes""><Description dt:dt=""string"">E-Prime Primary Realtime Clock</Description><StartTime><Timestamp dt:dt=""int"">0</Timestamp><DateUtc dt:dt=""string"">2018-10-11T19:00:19Z</DateUtc></StartTime><FrequencyChanges><FrequencyChange><Frequency dt:dt=""r8"">3215292</Frequency><Timestamp dt:dt=""r8"">4204431975041</Timestamp><Current dt:dt=""r8"">0</Current><DateUtc dt:dt=""string"">2018-10-11T19:00:19Z</DateUtc></FrequencyChange></FrequencyChanges></Clock>\n",KW_Experiment5A-13-1,59.946,1.0.0.105,1,-340355726,Professional,2.0.10.353,2.0.10.353,10/11/2018,10/11/2018 19:00,15:00:19,2.0.10.248,2,2,1,2,,,,,,,,TrainingProc,BlockList,39,1,Distractor1.bmp,1,0,,0,1,334896,601,,0,0,yellow,600,3,600,2,vertical,yellow,Distractor1.bmp,blue,Distractor1.bmp,lime,Target1.bmp,cyan,Distractor1.bmp,purple,Distractor1.bmp,red,Distractor1.bmp,,,,TrialProc,,TrainingTrialList,1,1,-999999,1,335497,0,1,1018,336515,Target1.bmp,lime,1,,,,3,2,39
KW_Experiment5A,13,1,"<?xml version=""1.0""?>\n<Clock xmlns:dt=""urn:schemas-microsoft-com:datatypes""><Description dt:dt=""string"">E-Prime Primary Realtime Clock</Description><StartTime><Timestamp dt:dt=""int"">0</Timestamp><DateUtc dt:dt=""string"">2018-10-11T19:00:19Z</DateUtc></StartTime><FrequencyChanges><FrequencyChange><Frequency dt:dt=""r8"">3215292</Frequency><Timestamp dt:dt=""r8"">4204431975041</Timestamp><Current dt:dt=""r8"">0</Current><DateUtc dt:dt=""string"">2018-10-11T19:00:19Z</DateUtc></FrequencyChange></FrequencyChanges></Clock>\n",KW_Experiment5A-13-1,59.946,1.0.0.105,1,-340355726,Professional,2.0.10.353,2.0.10.353,10/11/2018,10/11/2018 19:00,15:00:19,2.0.10.248,2,2,1,2,,,,,,,,TrainingProc,BlockList,40,1,Distractor2.bmp,2,0,,0,1,337532,400,,0,0,purple,400,1,400,5,vertical,purple,Distractor1.bmp,lime,Target1.bmp,red,Distractor2.bmp,yellow,Distractor2.bmp,cyan,Distractor2.bmp,blue,Distractor1.bmp,,,,TrialProc,,TrainingTrialList,1,1,-999999,0,337932,0,1,767,338699,Target1.bmp,lime,1,,,,2,2,40
KW_Experiment5A,13,1,"<?xml version=""1.0""?>\n<Clock xmlns:dt=""urn:schemas-microsoft-com:datatypes""><Description dt:dt=""string"">E-Prime Primary Realtime Clock</Description><StartTime><Timestamp dt:dt=""int"">0</Timestamp><DateUtc dt:dt=""string"">2018-10-11T19:00:19Z</DateUtc></StartTime><FrequencyChanges><FrequencyChange><Frequency dt:dt=""r8"">3215292</Frequency><Timestamp dt:dt=""r8"">4204431975041</Timestamp><Current dt:dt=""r8"">0</Current><DateUtc dt:dt=""string"">2018-10-11T19:00:19Z</DateUtc></FrequencyChange></FrequencyChanges></Clock>\n",KW_Experiment5A-13-1,59.946,1.0.0.105,1,-340355726,Professional,2.0.10.353,2.0.10.353,10/11/2018,10/11/2018 19:00,15:00:19,2.0.10.248,2,2,1,2,,,,,,,,TrainingProc,BlockList,41,1,Distractor2.bmp,2,0,,0,1,339717,401,,0,0,blue,400,1,400,3,vertical,blue,Distractor1.bmp,red,Distractor1.bmp,cyan,Distractor1.bmp,lime,Target1.bmp,purple,Distractor2.bmp,yellow,Distractor1.bmp,,,,TrialProc,,TrainingTrialList,1,1,-999999,1,340118,0,1,781,340899,Target1.bmp,lime,1,,,,4,2,41
KW_Experiment5A,13,1,"<?xml version=""1.0""?>\n<Clock xmlns:dt=""urn:schemas-microsoft-com:datatypes""><Description dt:dt=""string"">E-Prime Primary Realtime Clock</Description><StartTime><Timestamp dt:dt=""int"">0</Timestamp><DateUtc dt:dt=""string"">2018-10-11T19:00:19Z</DateUtc></StartTime><FrequencyChanges><FrequencyChange><Frequency dt:dt=""r8"">3215292</Frequency><Timestamp dt:dt=""r8"">4204431975041</Timestamp><Current dt:dt=""r8"">0</Current><DateUtc dt:dt=""string"">2018-10-11T19:00:19Z</DateUtc></FrequencyChange></FrequencyChanges></Clock>\n",KW_Experiment5A-13-1,59.946,1.0.0.105,1,-340355726,Professional,2.0.10.353,2.0.10.353,10/11/2018,10/11/2018 19:00,15:00:19,2.0.10.248,2,2,1,2,,,,,,,,TrainingProc,BlockList,42,1,Distractor1.bmp,1,0,,0,1,341919,401,,0,0,blue,400,1,400,3,vertical,blue,Distractor2.bmp,lime,Target1.bmp,yellow,Distractor1.bmp,cyan,Distractor1.bmp,purple,Distractor2.bmp,red,Distractor1.bmp,,,,TrialProc,,TrainingTrialList,1,1,-999999,1,342320,0,1,579,342899,Target1.bmp,lime,1,,,,2,2,42
KW_Experiment5A,13,1,"<?xml version=""1.0""?>\n<Clock xmlns:dt=""urn:schemas-microsoft-com:datatypes""><Description dt:dt=""string"">E-Prime Primary Realtime Clock</Description><StartTime><Timestamp dt:dt=""int"">0</Timestamp><DateUtc dt:dt=""string"">2018-10-11T19:00:19Z</DateUtc></StartTime><FrequencyChanges><FrequencyChange><Frequency dt:dt=""r8"">3215292</Frequency><Timestamp dt:dt=""r8"">4204431975041</Timestamp><Current dt:dt=""r8"">0</Current><DateUtc dt:dt=""string"">2018-10-11T19:00:19Z</DateUtc></FrequencyChange></FrequencyChanges></Clock>\n",KW_Experiment5A-13-1,59.946,1.0.0.105,1,-340355726,Professional,2.0.10.353,2.0.10.353,10/11/2018,10/11/2018 19:00,15:00:19,2.0.10.248,2,2,1,2,,,,,,,,TrainingProc,BlockList,43,1,Distractor2.bmp,2,0,,0,1,343921,500,,0,0,cyan,500,2,500,,vertical,cyan,Distractor1.bmp,purple,Distractor1.bmp,yellow,Distractor1.bmp,lime,Distractor1.bmp,red,Target1.bmp,blue,Distractor2.bmp,,,,TrialProc,4,TrainingTrialList,1,1,-999999,0,344421,0,1,774,345195,Target1.bmp,red,1,,,,11,2,43
KW_Experiment5A,13,1,"<?xml version=""1.0""?>\n<Clock xmlns:dt=""urn:schemas-microsoft-com:datatypes""><Description dt:dt=""string"">E-Prime Primary Realtime Clock</Description><StartTime><Timestamp dt:dt=""int"">0</Timestamp><DateUtc dt:dt=""string"">2018-10-11T19:00:19Z</DateUtc></StartTime><FrequencyChanges><FrequencyChange><Frequency dt:dt=""r8"">3215292</Frequency><Timestamp dt:dt=""r8"">4204431975041</Timestamp><Current dt:dt=""r8"">0</Current><DateUtc dt:dt=""string"">2018-10-11T19:00:19Z</DateUtc></FrequencyChange></FrequencyChanges></Clock>\n",KW_Experiment5A-13-1,59.946,1.0.0.105,1,-340355726,Professional,2.0.10.353,2.0.10.353,10/11/2018,10/11/2018 19:00,15:00:19,2.0.10.248,2,2,1,2,,,,,,,,TrainingProc,BlockList,44,2,Distractor2.bmp,2,0,,0,1,346206,501,,0,0,red,500,2,500,1,horizontal,red,Distractor1.bmp,cyan,Distractor2.bmp,yellow,Distractor1.bmp,lime,Target2.bmp,blue,Distractor2.bmp,purple,Distractor2.bmp,,,,TrialProc,,TrainingTrialList,1,2,-999999,1,346707,0,2,872,347579,Target2.bmp,lime,2,,,,4,2,44
KW_Experiment5A,13,1,"<?xml version=""1.0""?>\n<Clock xmlns:dt=""urn:schemas-microsoft-com:datatypes""><Description dt:dt=""string"">E-Prime Primary Realtime Clock</Description><StartTime><Timestamp dt:dt=""int"">0</Timestamp><DateUtc dt:dt=""string"">2018-10-11T19:00:19Z</DateUtc></StartTime><FrequencyChanges><FrequencyChange><Frequency dt:dt=""r8"">3215292</Frequency><Timestamp dt:dt=""r8"">4204431975041</Timestamp><Current dt:dt=""r8"">0</Current><DateUtc dt:dt=""string"">2018-10-11T19:00:19Z</DateUtc></FrequencyChange></FrequencyChanges></Clock>\n",KW_Experiment5A-13-1,59.946,1.0.0.105,1,-340355726,Professional,2.0.10.353,2.0.10.353,10/11/2018,10/11/2018 19:00,15:00:19,2.0.10.248,2,2,1,2,,,,,,,,TrainingProc,BlockList,45,2,Distractor1.bmp,1,0,,0,1,348592,600,,0,0,purple,600,3,600,5,horizontal,purple,Distractor2.bmp,lime,Target2.bmp,blue,Distractor1.bmp,cyan,Distractor1.bmp,yellow,Distractor2.bmp,red,Distractor1.bmp,,,,TrialProc,,TrainingTrialList,1,2,-999999,0,349192,0,2,1083,350275,Target2.bmp,lime,2,,,,2,2,45
KW_Experiment5A,13,1,"<?xml version=""1.0""?>\n<Clock xmlns:dt=""urn:schemas-microsoft-com:datatypes""><Description dt:dt=""string"">E-Prime Primary Realtime Clock</Description><StartTime><Timestamp dt:dt=""int"">0</Timestamp><DateUtc dt:dt=""string"">2018-10-11T19:00:19Z</DateUtc></StartTime><FrequencyChanges><FrequencyChange><Frequency dt:dt=""r8"">3215292</Frequency><Timestamp dt:dt=""r8"">4204431975041</Timestamp><Current dt:dt=""r8"">0</Current><DateUtc dt:dt=""string"">2018-10-11T19:00:19Z</DateUtc></FrequencyChange></FrequencyChanges></Clock>\n",KW_Experiment5A-13-1,59.946,1.0.0.105,1,-340355726,Professional,2.0.10.353,2.0.10.353,10/11/2018,10/11/2018 19:00,15:00:19,2.0.10.248,2,2,1,2,,,,,,,,TrainingProc,BlockList,46,2,Distractor2.bmp,2,0,,0,1,351294,401,,0,0,yellow,400,1,400,,horizontal,red,Target2.bmp,cyan,Distractor2.bmp,lime,Distractor1.bmp,purple,Distractor1.bmp,blue,Distractor2.bmp,yellow,Distractor1.bmp,,,,TrialProc,2,TrainingTrialList,1,2,-999999,1,351695,0,2,932,352627,Target2.bmp,red,2,,,,7,2,46
KW_Experiment5A,13,1,"<?xml version=""1.0""?>\n<Clock xmlns:dt=""urn:schemas-microsoft-com:datatypes""><Description dt:dt=""string"">E-Prime Primary Realtime Clock</Description><StartTime><Timestamp dt:dt=""int"">0</Timestamp><DateUtc dt:dt=""string"">2018-10-11T19:00:19Z</DateUtc></StartTime><FrequencyChanges><FrequencyChange><Frequency dt:dt=""r8"">3215292</Frequency><Timestamp dt:dt=""r8"">4204431975041</Timestamp><Current dt:dt=""r8"">0</Current><DateUtc dt:dt=""string"">2018-10-11T19:00:19Z</DateUtc></FrequencyChange></FrequencyChanges></Clock>\n",KW_Experiment5A-13-1,59.946,1.0.0.105,1,-340355726,Professional,2.0.10.353,2.0.10.353,10/11/2018,10/11/2018 19:00,15:00:19,2.0.10.248,2,2,1,2,,,,,,,,TrainingProc,BlockList,47,2,Distractor2.bmp,2,0,,1,0,353646,601,,0,0,cyan,600,3,600,,horizontal,cyan,Distractor2.bmp,purple,Distractor1.bmp,yellow,Distractor2.bmp,lime,Distractor2.bmp,blue,Distractor1.bmp,red,Target2.bmp,,,,TrialProc,4,TrainingTrialList,1,2,-999999,1,354247,0,2,580,354827,Target2.bmp,red,2,,,,12,2,47
KW_Experiment5A,13,1,"<?xml version=""1.0""?>\n<Clock xmlns:dt=""urn:schemas-microsoft-com:datatypes""><Description dt:dt=""string"">E-Prime Primary Realtime Clock</Description><StartTime><Timestamp dt:dt=""int"">0</Timestamp><DateUtc dt:dt=""string"">2018-10-11T19:00:19Z</DateUtc></StartTime><FrequencyChanges><FrequencyChange><Frequency dt:dt=""r8"">3215292</Frequency><Timestamp dt:dt=""r8"">4204431975041</Timestamp><Current dt:dt=""r8"">0</Current><DateUtc dt:dt=""string"">2018-10-11T19:00:19Z</DateUtc></FrequencyChange></FrequencyChanges></Clock>\n",KW_Experiment5A-13-1,59.946,1.0.0.105,1,-340355726,Professional,2.0.10.353,2.0.10.353,10/11/2018,10/11/2018 19:00,15:00:19,2.0.10.248,2,2,1,2,,,,,,,,TrainingProc,BlockList,48,1,Distractor2.bmp,2,0,,1,0,355848,501,,0,0,yellow,500,2,500,2,vertical,yellow,Distractor2.bmp,cyan,Distractor1.bmp,purple,Distractor2.bmp,red,Distractor1.bmp,blue,Distractor2.bmp,lime,Target1.bmp,,,,TrialProc,,TrainingTrialList,1,1,-999999,1,356349,0,1,606,356955,Target1.bmp,lime,1,,,,6,2,48
KW_Experiment5A,13,1,"<?xml version=""1.0""?>\n<Clock xmlns:dt=""urn:schemas-microsoft-com:datatypes""><Description dt:dt=""string"">E-Prime Primary Realtime Clock</Description><StartTime><Timestamp dt:dt=""int"">0</Timestamp><DateUtc dt:dt=""string"">2018-10-11T19:00:19Z</DateUtc></StartTime><FrequencyChanges><FrequencyChange><Frequency dt:dt=""r8"">3215292</Frequency><Timestamp dt:dt=""r8"">4204431975041</Timestamp><Current dt:dt=""r8"">0</Current><DateUtc dt:dt=""string"">2018-10-11T19:00:19Z</DateUtc></FrequencyChange></FrequencyChanges></Clock>\n",KW_Experiment5A-13-1,59.946,1.0.0.105,1,-340355726,Professional,2.0.10.353,2.0.10.353,10/11/2018,10/11/2018 19:00,15:00:19,2.0.10.248,3,2,1,3,,,,,,,,TrainingProc,BlockList,1,1,Distractor1.bmp,1,0,,0,19,363389,500,,0,0,cyan,500,2,500,4,vertical,cyan,Distractor1.bmp,blue,Distractor1.bmp,purple,Distractor1.bmp,yellow,Distractor1.bmp,lime,Target1.bmp,red,Distractor1.bmp,,,,TrialProc,,TrainingTrialList,1,1,-999999,0,363889,0,1,761,364650,Target1.bmp,lime,1,,,,5,3,49
KW_Experiment5A,13,1,"<?xml version=""1.0""?>\n<Clock xmlns:dt=""urn:schemas-microsoft-com:datatypes""><Description dt:dt=""string"">E-Prime Primary Realtime Clock</Description><StartTime><Timestamp dt:dt=""int"">0</Timestamp><DateUtc dt:dt=""string"">2018-10-11T19:00:19Z</DateUtc></StartTime><FrequencyChanges><FrequencyChange><Frequency dt:dt=""r8"">3215292</Frequency><Timestamp dt:dt=""r8"">4204431975041</Timestamp><Current dt:dt=""r8"">0</Current><DateUtc dt:dt=""string"">2018-10-11T19:00:19Z</DateUtc></FrequencyChange></FrequencyChanges></Clock>\n",KW_Experiment5A-13-1,59.946,1.0.0.105,1,-340355726,Professional,2.0.10.353,2.0.10.353,10/11/2018,10/11/2018 19:00,15:00:19,2.0.10.248,3,2,1,3,,,,,,,,TrainingProc,BlockList,2,1,Distractor1.bmp,1,0,,0,1,365674,400,,0,0,yellow,400,1,400,,vertical,yellow,Distractor1.bmp,cyan,Distractor2.bmp,purple,Distractor2.bmp,blue,Distractor2.bmp,lime,Distractor1.bmp,red,Target1.bmp,,,,TrialProc,2,TrainingTrialList,0,1,-999999,0,366074,0,2,1440,367514,Target1.bmp,red,1,,,,12,3,50
KW_Experiment5A,13,1,"<?xml version=""1.0""?>\n<Clock xmlns:dt=""urn:schemas-microsoft-com:datatypes""><Description dt:dt=""string"">E-Prime Primary Realtime Clock</Description><StartTime><Timestamp dt:dt=""int"">0</Timestamp><DateUtc dt:dt=""string"">2018-10-11T19:00:19Z</DateUtc></StartTime><FrequencyChanges><FrequencyChange><Frequency dt:dt=""r8"">3215292</Frequency><Timestamp dt:dt=""r8"">4204431975041</Timestamp><Current dt:dt=""r8"">0</Current><DateUtc dt:dt=""string"">2018-10-11T19:00:19Z</DateUtc></FrequencyChange></FrequencyChanges></Clock>\n",KW_Experiment5A-13-1,59.946,1.0.0.105,1,-340355726,Professional,2.0.10.353,2.0.10.353,10/11/2018,10/11/2018 19:00,15:00:19,2.0.10.248,3,2,1,3,,,,,,,,TrainingProc,BlockList,3,1,Distractor1.bmp,1,0,,0,1,368527,400,,0,0,purple,400,1,400,5,vertical,purple,Distractor1.bmp,lime,Target1.bmp,cyan,Distractor1.bmp,yellow,Distractor1.bmp,red,Distractor1.bmp,blue,Distractor1.bmp,,,,TrialProc,,TrainingTrialList,1,1,-999999,0,368927,0,1,651,369578,Target1.bmp,lime,1,,,,2,3,51
KW_Experiment5A,13,1,"<?xml version=""1.0""?>\n<Clock xmlns:dt=""urn:schemas-microsoft-com:datatypes""><Description dt:dt=""string"">E-Prime Primary Realtime Clock</Description><StartTime><Timestamp dt:dt=""int"">0</Timestamp><DateUtc dt:dt=""string"">2018-10-11T19:00:19Z</DateUtc></StartTime><FrequencyChanges><FrequencyChange><Frequency dt:dt=""r8"">3215292</Frequency><Timestamp dt:dt=""r8"">4204431975041</Timestamp><Current dt:dt=""r8"">0</Current><DateUtc dt:dt=""string"">2018-10-11T19:00:19Z</DateUtc></FrequencyChange></FrequencyChanges></Clock>\n",KW_Experiment5A-13-1,59.946,1.0.0.105,1,-340355726,Professional,2.0.10.353,2.0.10.353,10/11/2018,10/11/2018 19:00,15:00:19,2.0.10.248,3,2,1,3,,,,,,,,TrainingProc,BlockList,4,2,Distractor1.bmp,1,0,,0,1,370595,601,,0,0,yellow,600,3,600,2,horizontal,yellow,Distractor2.bmp,purple,Distractor2.bmp,lime,Target2.bmp,red,Distractor1.bmp,cyan,Distractor1.bmp,blue,Distractor1.bmp,,,,TrialProc,,TrainingTrialList,1,2,-999999,1,371196,0,2,798,371994,Target2.bmp,lime,2,,,,3,3,52
KW_Experiment5A,13,1,"<?xml version=""1.0""?>\n<Clock xmlns:dt=""urn:schemas-microsoft-com:datatypes""><Description dt:dt=""string"">E-Prime Primary Realtime Clock</Description><StartTime><Timestamp dt:dt=""int"">0</Timestamp><DateUtc dt:dt=""string"">2018-10-11T19:00:19Z</DateUtc></StartTime><FrequencyChanges><FrequencyChange><Frequency dt:dt=""r8"">3215292</Frequency><Timestamp dt:dt=""r8"">4204431975041</Timestamp><Current dt:dt=""r8"">0</Current><DateUtc dt:dt=""string"">2018-10-11T19:00:19Z</DateUtc></FrequencyChange></FrequencyChanges></Clock>\n",KW_Experiment5A-13-1,59.946,1.0.0.105,1,-340355726,Professional,2.0.10.353,2.0.10.353,10/11/2018,10/11/2018 19:00,15:00:19,2.0.10.248,3,2,1,3,,,,,,,,TrainingProc,BlockList,5,2,Distractor2.bmp,2,0,,0,1,373014,400,,0,0,lime,400,1,400,,horizontal,lime,Distractor1.bmp,purple,Distractor1.bmp,red,Target2.bmp,yellow,Distractor2.bmp,blue,Distractor1.bmp,cyan,Distractor2.bmp,,,,TrialProc,6,TrainingTrialList,1,2,-999999,0,373414,0,2,708,374122,Target2.bmp,red,2,,,,9,3,53
KW_Experiment5A,13,1,"<?xml version=""1.0""?>\n<Clock xmlns:dt=""urn:schemas-microsoft-com:datatypes""><Description dt:dt=""string"">E-Prime Primary Realtime Clock</Description><StartTime><Timestamp dt:dt=""int"">0</Timestamp><DateUtc dt:dt=""string"">2018-10-11T19:00:19Z</DateUtc></StartTime><FrequencyChanges><FrequencyChange><Frequency dt:dt=""r8"">3215292</Frequency><Timestamp dt:dt=""r8"">4204431975041</Timestamp><Current dt:dt=""r8"">0</Current><DateUtc dt:dt=""string"">2018-10-11T19:00:19Z</DateUtc></FrequencyChange></FrequencyChanges></Clock>\n",KW_Experiment5A-13-1,59.946,1.0.0.105,1,-340355726,Professional,2.0.10.353,2.0.10.353,10/11/2018,10/11/2018 19:00,15:00:19,2.0.10.248,3,2,1,3,,,,,,,,TrainingProc,BlockList,6,1,Distractor2.bmp,2,0,,0,1,375133,600,,0,0,yellow,600,3,600,2,vertical,yellow,Distractor1.bmp,red,Distractor1.bmp,purple,Distractor2.bmp,cyan,Distractor1.bmp,lime,Target1.bmp,blue,Distractor2.bmp,,,,TrialProc,,TrainingTrialList,1,1,-999999,0,375733,0,1,1253,376986,Target1.bmp,lime,1,,,,5,3,54
KW_Experiment5A,13,1,"<?xml version=""1.0""?>\n<Clock xmlns:dt=""urn:schemas-microsoft-com:datatypes""><Description dt:dt=""string"">E-Prime Primary Realtime Clock</Description><StartTime><Timestamp dt:dt=""int"">0</Timestamp><DateUtc dt:dt=""string"">2018-10-11T19:00:19Z</DateUtc></StartTime><FrequencyChanges><FrequencyChange><Frequency dt:dt=""r8"">3215292</Frequency><Timestamp dt:dt=""r8"">4204431975041</Timestamp><Current dt:dt=""r8"">0</Current><DateUtc dt:dt=""string"">2018-10-11T19:00:19Z</DateUtc></FrequencyChange></FrequencyChanges></Clock>\n",KW_Experiment5A-13-1,59.946,1.0.0.105,1,-340355726,Professional,2.0.10.353,2.0.10.353,10/11/2018,10/11/2018 19:00,15:00:19,2.0.10.248,3,2,1,3,,,,,,,,TrainingProc,BlockList,7,2,Distractor1.bmp,1,0,,0,1,378002,400,,0,0,yellow,400,1,400,2,horizontal,yellow,Distractor1.bmp,blue,Distractor1.bmp,lime,Target2.bmp,cyan,Distractor1.bmp,red,Distractor1.bmp,purple,Distractor1.bmp,,,,TrialProc,,TrainingTrialList,1,2,-999999,0,378402,0,2,760,379162,Target2.bmp,lime,2,,,,3,3,55
KW_Experiment5A,13,1,"<?xml version=""1.0""?>\n<Clock xmlns:dt=""urn:schemas-microsoft-com:datatypes""><Description dt:dt=""string"">E-Prime Primary Realtime Clock</Description><StartTime><Timestamp dt:dt=""int"">0</Timestamp><DateUtc dt:dt=""string"">2018-10-11T19:00:19Z</DateUtc></StartTime><FrequencyChanges><FrequencyChange><Frequency dt:dt=""r8"">3215292</Frequency><Timestamp dt:dt=""r8"">4204431975041</Timestamp><Current dt:dt=""r8"">0</Current><DateUtc dt:dt=""string"">2018-10-11T19:00:19Z</DateUtc></FrequencyChange></FrequencyChanges></Clock>\n",KW_Experiment5A-13-1,59.946,1.0.0.105,1,-340355726,Professional,2.0.10.353,2.0.10.353,10/11/2018,10/11/2018 19:00,15:00:19,2.0.10.248,3,2,1,3,,,,,,,,TrainingProc,BlockList,8,2,Distractor1.bmp,1,0,,0,1,380187,401,,0,0,cyan,400,1,400,4,horizontal,lime,Target2.bmp,cyan,Distractor1.bmp,red,Distractor2.bmp,blue,Distractor2.bmp,yellow,Distractor2.bmp,purple,Distractor2.bmp,,,,TrialProc,,TrainingTrialList,1,2,-999999,1,380588,0,2,566,381154,Target2.bmp,lime,2,,,,1,3,56
KW_Experiment5A,13,1,"<?xml version=""1.0""?>\n<Clock xmlns:dt=""urn:schemas-microsoft-com:datatypes""><Description dt:dt=""string"">E-Prime Primary Realtime Clock</Description><StartTime><Timestamp dt:dt=""int"">0</Timestamp><DateUtc dt:dt=""string"">2018-10-11T19:00:19Z</DateUtc></StartTime><FrequencyChanges><FrequencyChange><Frequency dt:dt=""r8"">3215292</Frequency><Timestamp dt:dt=""r8"">4204431975041</Timestamp><Current dt:dt=""r8"">0</Current><DateUtc dt:dt=""string"">2018-10-11T19:00:19Z</DateUtc></FrequencyChange></FrequencyChanges></Clock>\n",KW_Experiment5A-13-1,59.946,1.0.0.105,1,-340355726,Professional,2.0.10.353,2.0.10.353,10/11/2018,10/11/2018 19:00,15:00:19,2.0.10.248,3,2,1,3,,,,,,,,TrainingProc,BlockList,9,2,Distractor1.bmp,1,0,,0,1,382172,601,,0,0,blue,600,3,600,3,horizontal,lime,Target2.bmp,blue,Distractor1.bmp,red,Distractor2.bmp,cyan,Distractor2.bmp,yellow,Distractor1.bmp,purple,Distractor2.bmp,,,,TrialProc,,TrainingTrialList,1,2,-999999,1,382773,0,2,469,383242,Target2.bmp,lime,2,,,,1,3,57
KW_Experiment5A,13,1,"<?xml version=""1.0""?>\n<Clock xmlns:dt=""urn:schemas-microsoft-com:datatypes""><Description dt:dt=""string"">E-Prime Primary Realtime Clock</Description><StartTime><Timestamp dt:dt=""int"">0</Timestamp><DateUtc dt:dt=""string"">2018-10-11T19:00:19Z</DateUtc></StartTime><FrequencyChanges><FrequencyChange><Frequency dt:dt=""r8"">3215292</Frequency><Timestamp dt:dt=""r8"">4204431975041</Timestamp><Current dt:dt=""r8"">0</Current><DateUtc dt:dt=""string"">2018-10-11T19:00:19Z</DateUtc></FrequencyChange></FrequencyChanges></Clock>\n",KW_Experiment5A-13-1,59.946,1.0.0.105,1,-340355726,Professional,2.0.10.353,2.0.10.353,10/11/2018,10/11/2018 19:00,15:00:19,2.0.10.248,3,2,1,3,,,,,,,,TrainingProc,BlockList,10,1,Distractor1.bmp,1,0,,0,1,384258,500,,0,0,blue,500,2,500,3,vertical,blue,Distractor1.bmp,cyan,Distractor1.bmp,red,Distractor2.bmp,yellow,Distractor2.bmp,purple,Distractor1.bmp,lime,Target1.bmp,,,,TrialProc,,TrainingTrialList,1,1,-999999,0,384758,0,1,812,385570,Target1.bmp,lime,1,,,,6,3,58
KW_Experiment5A,13,1,"<?xml version=""1.0""?>\n<Clock xmlns:dt=""urn:schemas-microsoft-com:datatypes""><Description dt:dt=""string"">E-Prime Primary Realtime Clock</Description><StartTime><Timestamp dt:dt=""int"">0</Timestamp><DateUtc dt:dt=""string"">2018-10-11T19:00:19Z</DateUtc></StartTime><FrequencyChanges><FrequencyChange><Frequency dt:dt=""r8"">3215292</Frequency><Timestamp dt:dt=""r8"">4204431975041</Timestamp><Current dt:dt=""r8"">0</Current><DateUtc dt:dt=""string"">2018-10-11T19:00:19Z</DateUtc></FrequencyChange></FrequencyChanges></Clock>\n",KW_Experiment5A-13-1,59.946,1.0.0.105,1,-340355726,Professional,2.0.10.353,2.0.10.353,10/11/2018,10/11/2018 19:00,15:00:19,2.0.10.248,3,2,1,3,,,,,,,,TrainingProc,BlockList,11,1,Distractor1.bmp,1,0,,0,1,386593,501,,0,0,cyan,500,2,500,,vertical,cyan,Distractor2.bmp,red,Target1.bmp,lime,Distractor1.bmp,purple,Distractor1.bmp,blue,Distractor2.bmp,yellow,Distractor2.bmp,,,,TrialProc,4,TrainingTrialList,1,1,-999999,1,387094,0,1,620,387714,Target1.bmp,red,1,,,,8,3,59
KW_Experiment5A,13,1,"<?xml version=""1.0""?>\n<Clock xmlns:dt=""urn:schemas-microsoft-com:datatypes""><Description dt:dt=""string"">E-Prime Primary Realtime Clock</Description><StartTime><Timestamp dt:dt=""int"">0</Timestamp><DateUtc dt:dt=""string"">2018-10-11T19:00:19Z</DateUtc></StartTime><FrequencyChanges><FrequencyChange><Frequency dt:dt=""r8"">3215292</Frequency><Timestamp dt:dt=""r8"">4204431975041</Timestamp><Current dt:dt=""r8"">0</Current><DateUtc dt:dt=""string"">2018-10-11T19:00:19Z</DateUtc></FrequencyChange></FrequencyChanges></Clock>\n",KW_Experiment5A-13-1,59.946,1.0.0.105,1,-340355726,Professional,2.0.10.353,2.0.10.353,10/11/2018,10/11/2018 19:00,15:00:19,2.0.10.248,3,2,1,3,,,,,,,,TrainingProc,BlockList,12,2,Distractor1.bmp,1,0,,0,1,388728,501,,0,0,purple,500,2,500,5,horizontal,purple,Distractor1.bmp,cyan,Distractor1.bmp,lime,Target2.bmp,red,Distractor1.bmp,yellow,Distractor1.bmp,blue,Distractor1.bmp,,,,TrialProc,,TrainingTrialList,1,2,-999999,1,389229,0,2,845,390074,Target2.bmp,lime,2,,,,3,3,60
KW_Experiment5A,13,1,"<?xml version=""1.0""?>\n<Clock xmlns:dt=""urn:schemas-microsoft-com:datatypes""><Description dt:dt=""string"">E-Prime Primary Realtime Clock</Description><StartTime><Timestamp dt:dt=""int"">0</Timestamp><DateUtc dt:dt=""string"">2018-10-11T19:00:19Z</DateUtc></StartTime><FrequencyChanges><FrequencyChange><Frequency dt:dt=""r8"">3215292</Frequency><Timestamp dt:dt=""r8"">4204431975041</Timestamp><Current dt:dt=""r8"">0</Current><DateUtc dt:dt=""string"">2018-10-11T19:00:19Z</DateUtc></FrequencyChange></FrequencyChanges></Clock>\n",KW_Experiment5A-13-1,59.946,1.0.0.105,1,-340355726,Professional,2.0.10.353,2.0.10.353,10/11/2018,10/11/2018 19:00,15:00:19,2.0.10.248,3,2,1,3,,,,,,,,TrainingProc,BlockList,13,2,Distractor2.bmp,2,0,,0,1,391097,401,,0,0,blue,400,1,400,3,horizontal,blue,Distractor1.bmp,lime,Target2.bmp,purple,Distractor2.bmp,yellow,Distractor2.bmp,cyan,Distractor1.bmp,red,Distractor2.bmp,,,,TrialProc,,TrainingTrialList,1,2,-999999,1,391498,0,2,600,392098,Target2.bmp,lime,2,,,,2,3,61
KW_Experiment5A,13,1,"<?xml version=""1.0""?>\n<Clock xmlns:dt=""urn:schemas-microsoft-com:datatypes""><Description dt:dt=""string"">E-Prime Primary Realtime Clock</Description><StartTime><Timestamp dt:dt=""int"">0</Timestamp><DateUtc dt:dt=""string"">2018-10-11T19:00:19Z</DateUtc></StartTime><FrequencyChanges><FrequencyChange><Frequency dt:dt=""r8"">3215292</Frequency><Timestamp dt:dt=""r8"">4204431975041</Timestamp><Current dt:dt=""r8"">0</Current><DateUtc dt:dt=""string"">2018-10-11T19:00:19Z</DateUtc></FrequencyChange></FrequencyChanges></Clock>\n",KW_Experiment5A-13-1,59.946,1.0.0.105,1,-340355726,Professional,2.0.10.353,2.0.10.353,10/11/2018,10/11/2018 19:00,15:00:19,2.0.10.248,3,2,1,3,,,,,,,,TrainingProc,BlockList,14,2,Distractor1.bmp,1,0,,0,1,393116,500,,0,0,cyan,500,2,500,,horizontal,cyan,Distractor1.bmp,blue,Distractor1.bmp,yellow,Distractor2.bmp,red,Target2.bmp,purple,Distractor1.bmp,lime,Distractor1.bmp,,,,TrialProc,4,TrainingTrialList,1,2,-999999,0,393616,0,2,898,394514,Target2.bmp,red,2,,,,10,3,62
KW_Experiment5A,13,1,"<?xml version=""1.0""?>\n<Clock xmlns:dt=""urn:schemas-microsoft-com:datatypes""><Description dt:dt=""string"">E-Prime Primary Realtime Clock</Description><StartTime><Timestamp dt:dt=""int"">0</Timestamp><DateUtc dt:dt=""string"">2018-10-11T19:00:19Z</DateUtc></StartTime><FrequencyChanges><FrequencyChange><Frequency dt:dt=""r8"">3215292</Frequency><Timestamp dt:dt=""r8"">4204431975041</Timestamp><Current dt:dt=""r8"">0</Current><DateUtc dt:dt=""string"">2018-10-11T19:00:19Z</DateUtc></FrequencyChange></FrequencyChanges></Clock>\n",KW_Experiment5A-13-1,59.946,1.0.0.105,1,-340355726,Professional,2.0.10.353,2.0.10.353,10/11/2018,10/11/2018 19:00,15:00:19,2.0.10.248,3,2,1,3,,,,,,,,TrainingProc,BlockList,15,1,Distractor1.bmp,1,0,,0,1,395535,500,,0,0,purple,500,2,500,5,vertical,purple,Distractor1.bmp,lime,Target1.bmp,cyan,Distractor1.bmp,blue,Distractor2.bmp,red,Distractor1.bmp,yellow,Distractor1.bmp,,,,TrialProc,,TrainingTrialList,0,1,-999999,0,396035,0,2,751,396786,Target1.bmp,lime,1,,,,2,3,63
KW_Experiment5A,13,1,"<?xml version=""1.0""?>\n<Clock xmlns:dt=""urn:schemas-microsoft-com:datatypes""><Description dt:dt=""string"">E-Prime Primary Realtime Clock</Description><StartTime><Timestamp dt:dt=""int"">0</Timestamp><DateUtc dt:dt=""string"">2018-10-11T19:00:19Z</DateUtc></StartTime><FrequencyChanges><FrequencyChange><Frequency dt:dt=""r8"">3215292</Frequency><Timestamp dt:dt=""r8"">4204431975041</Timestamp><Current dt:dt=""r8"">0</Current><DateUtc dt:dt=""string"">2018-10-11T19:00:19Z</DateUtc></FrequencyChange></FrequencyChanges></Clock>\n",KW_Experiment5A-13-1,59.946,1.0.0.105,1,-340355726,Professional,2.0.10.353,2.0.10.353,10/11/2018,10/11/2018 19:00,15:00:19,2.0.10.248,3,2,1,3,,,,,,,,TrainingProc,BlockList,16,2,Distractor1.bmp,1,0,,0,1,397803,401,,0,0,red,400,1,400,1,horizontal,lime,Target2.bmp,red,Distractor1.bmp,cyan,Distractor1.bmp,blue,Distractor1.bmp,yellow,Distractor1.bmp,purple,Distractor1.bmp,,,,TrialProc,,TrainingTrialList,1,2,-999999,1,398204,0,2,510,398714,Target2.bmp,lime,2,,,,1,3,64
KW_Experiment5A,13,1,"<?xml version=""1.0""?>\n<Clock xmlns:dt=""urn:schemas-microsoft-com:datatypes""><Description dt:dt=""string"">E-Prime Primary Realtime Clock</Description><StartTime><Timestamp dt:dt=""int"">0</Timestamp><DateUtc dt:dt=""string"">2018-10-11T19:00:19Z</DateUtc></StartTime><FrequencyChanges><FrequencyChange><Frequency dt:dt=""r8"">3215292</Frequency><Timestamp dt:dt=""r8"">4204431975041</Timestamp><Current dt:dt=""r8"">0</Current><DateUtc dt:dt=""string"">2018-10-11T19:00:19Z</DateUtc></FrequencyChange></FrequencyChanges></Clock>\n",KW_Experiment5A-13-1,59.946,1.0.0.105,1,-340355726,Professional,2.0.10.353,2.0.10.353,10/11/2018,10/11/2018 19:00,15:00:19,2.0.10.248,3,2,1,3,,,,,,,,TrainingProc,BlockList,17,1,Distractor2.bmp,2,0,,0,1,399738,401,,0,0,cyan,400,1,400,4,vertical,cyan,Distractor2.bmp,purple,Distractor1.bmp,red,Distractor1.bmp,blue,Distractor1.bmp,yellow,Distractor2.bmp,lime,Target1.bmp,,,,TrialProc,,TrainingTrialList,1,1,-999999,1,400139,0,1,607,400746,Target1.bmp,lime,1,,,,6,3,65
KW_Experiment5A,13,1,"<?xml version=""1.0""?>\n<Clock xmlns:dt=""urn:schemas-microsoft-com:datatypes""><Description dt:dt=""string"">E-Prime Primary Realtime Clock</Description><StartTime><Timestamp dt:dt=""int"">0</Timestamp><DateUtc dt:dt=""string"">2018-10-11T19:00:19Z</DateUtc></StartTime><FrequencyChanges><FrequencyChange><Frequency dt:dt=""r8"">3215292</Frequency><Timestamp dt:dt=""r8"">4204431975041</Timestamp><Current dt:dt=""r8"">0</Current><DateUtc dt:dt=""string"">2018-10-11T19:00:19Z</DateUtc></FrequencyChange></FrequencyChanges></Clock>\n",KW_Experiment5A-13-1,59.946,1.0.0.105,1,-340355726,Professional,2.0.10.353,2.0.10.353,10/11/2018,10/11/2018 19:00,15:00:19,2.0.10.248,3,2,1,3,,,,,,,,TrainingProc,BlockList,18,1,Distractor1.bmp,1,0,,0,1,401757,500,,0,0,blue,500,2,500,,vertical,blue,Distractor1.bmp,cyan,Distractor2.bmp,lime,Distractor1.bmp,purple,Distractor1.bmp,red,Target1.bmp,yellow,Distractor1.bmp,,,,TrialProc,3,TrainingTrialList,1,1,-999999,0,402257,0,1,1024,403281,Target1.bmp,red,1,,,,11,3,66
KW_Experiment5A,13,1,"<?xml version=""1.0""?>\n<Clock xmlns:dt=""urn:schemas-microsoft-com:datatypes""><Description dt:dt=""string"">E-Prime Primary Realtime Clock</Description><StartTime><Timestamp dt:dt=""int"">0</Timestamp><DateUtc dt:dt=""string"">2018-10-11T19:00:19Z</DateUtc></StartTime><FrequencyChanges><FrequencyChange><Frequency dt:dt=""r8"">3215292</Frequency><Timestamp dt:dt=""r8"">4204431975041</Timestamp><Current dt:dt=""r8"">0</Current><DateUtc dt:dt=""string"">2018-10-11T19:00:19Z</DateUtc></FrequencyChange></FrequencyChanges></Clock>\n",KW_Experiment5A-13-1,59.946,1.0.0.105,1,-340355726,Professional,2.0.10.353,2.0.10.353,10/11/2018,10/11/2018 19:00,15:00:19,2.0.10.248,3,2,1,3,,,,,,,,TrainingProc,BlockList,19,2,Distractor1.bmp,1,0,,0,1,404293,400,,0,0,yellow,400,1,400,2,horizontal,yellow,Distractor1.bmp,purple,Distractor2.bmp,cyan,Distractor2.bmp,lime,Target2.bmp,red,Distractor1.bmp,blue,Distractor2.bmp,,,,TrialProc,,TrainingTrialList,0,2,-999999,0,404693,0,1,844,405537,Target2.bmp,lime,2,,,,4,3,67
KW_Experiment5A,13,1,"<?xml version=""1.0""?>\n<Clock xmlns:dt=""urn:schemas-microsoft-com:datatypes""><Description dt:dt=""string"">E-Prime Primary Realtime Clock</Description><StartTime><Timestamp dt:dt=""int"">0</Timestamp><DateUtc dt:dt=""string"">2018-10-11T19:00:19Z</DateUtc></StartTime><FrequencyChanges><FrequencyChange><Frequency dt:dt=""r8"">3215292</Frequency><Timestamp dt:dt=""r8"">4204431975041</Timestamp><Current dt:dt=""r8"">0</Current><DateUtc dt:dt=""string"">2018-10-11T19:00:19Z</DateUtc></FrequencyChange></FrequencyChanges></Clock>\n",KW_Experiment5A-13-1,59.946,1.0.0.105,1,-340355726,Professional,2.0.10.353,2.0.10.353,10/11/2018,10/11/2018 19:00,15:00:19,2.0.10.248,3,2,1,3,,,,,,,,TrainingProc,BlockList,20,1,Distractor2.bmp,2,0,,0,1,406561,501,,0,0,cyan,500,2,500,4,vertical,cyan,Distractor2.bmp,purple,Distractor1.bmp,red,Distractor1.bmp,lime,Target1.bmp,yellow,Distractor2.bmp,blue,Distractor2.bmp,,,,TrialProc,,TrainingTrialList,1,1,-999999,1,407062,0,1,627,407689,Target1.bmp,lime,1,,,,4,3,68
KW_Experiment5A,13,1,"<?xml version=""1.0""?>\n<Clock xmlns:dt=""urn:schemas-microsoft-com:datatypes""><Description dt:dt=""string"">E-Prime Primary Realtime Clock</Description><StartTime><Timestamp dt:dt=""int"">0</Timestamp><DateUtc dt:dt=""string"">2018-10-11T19:00:19Z</DateUtc></StartTime><FrequencyChanges><FrequencyChange><Frequency dt:dt=""r8"">3215292</Frequency><Timestamp dt:dt=""r8"">4204431975041</Timestamp><Current dt:dt=""r8"">0</Current><DateUtc dt:dt=""string"">2018-10-11T19:00:19Z</DateUtc></FrequencyChange></FrequencyChanges></Clock>\n",KW_Experiment5A-13-1,59.946,1.0.0.105,1,-340355726,Professional,2.0.10.353,2.0.10.353,10/11/2018,10/11/2018 19:00,15:00:19,2.0.10.248,3,2,1,3,,,,,,,,TrainingProc,BlockList,21,1,Distractor1.bmp,1,0,,0,1,408713,501,,0,0,yellow,500,2,500,,vertical,red,Target1.bmp,blue,Distractor1.bmp,purple,Distractor1.bmp,cyan,Distractor1.bmp,lime,Distractor1.bmp,yellow,Distractor2.bmp,,,,TrialProc,2,TrainingTrialList,1,1,-999999,1,409214,0,1,763,409977,Target1.bmp,red,1,,,,7,3,69
KW_Experiment5A,13,1,"<?xml version=""1.0""?>\n<Clock xmlns:dt=""urn:schemas-microsoft-com:datatypes""><Description dt:dt=""string"">E-Prime Primary Realtime Clock</Description><StartTime><Timestamp dt:dt=""int"">0</Timestamp><DateUtc dt:dt=""string"">2018-10-11T19:00:19Z</DateUtc></StartTime><FrequencyChanges><FrequencyChange><Frequency dt:dt=""r8"">3215292</Frequency><Timestamp dt:dt=""r8"">4204431975041</Timestamp><Current dt:dt=""r8"">0</Current><DateUtc dt:dt=""string"">2018-10-11T19:00:19Z</DateUtc></FrequencyChange></FrequencyChanges></Clock>\n",KW_Experiment5A-13-1,59.946,1.0.0.105,1,-340355726,Professional,2.0.10.353,2.0.10.353,10/11/2018,10/11/2018 19:00,15:00:19,2.0.10.248,3,2,1,3,,,,,,,,TrainingProc,BlockList,22,2,Distractor1.bmp,1,0,,0,1,410999,600,,0,0,purple,600,3,600,5,horizontal,purple,Distractor1.bmp,cyan,Distractor1.bmp,blue,Distractor2.bmp,yellow,Distractor2.bmp,red,Distractor2.bmp,lime,Target2.bmp,,,,TrialProc,,TrainingTrialList,1,2,-999999,0,411599,0,2,514,412113,Target2.bmp,lime,2,,,,6,3,70
KW_Experiment5A,13,1,"<?xml version=""1.0""?>\n<Clock xmlns:dt=""urn:schemas-microsoft-com:datatypes""><Description dt:dt=""string"">E-Prime Primary Realtime Clock</Description><StartTime><Timestamp dt:dt=""int"">0</Timestamp><DateUtc dt:dt=""string"">2018-10-11T19:00:19Z</DateUtc></StartTime><FrequencyChanges><FrequencyChange><Frequency dt:dt=""r8"">3215292</Frequency><Timestamp dt:dt=""r8"">4204431975041</Timestamp><Current dt:dt=""r8"">0</Current><DateUtc dt:dt=""string"">2018-10-11T19:00:19Z</DateUtc></FrequencyChange></FrequencyChanges></Clock>\n",KW_Experiment5A-13-1,59.946,1.0.0.105,1,-340355726,Professional,2.0.10.353,2.0.10.353,10/11/2018,10/11/2018 19:00,15:00:19,2.0.10.248,3,2,1,3,,,,,,,,TrainingProc,BlockList,23,2,Distractor1.bmp,1,0,,0,1,413134,500,,0,0,red,500,2,500,1,horizontal,red,Distractor2.bmp,blue,Distractor1.bmp,yellow,Distractor2.bmp,lime,Target2.bmp,cyan,Distractor1.bmp,purple,Distractor2.bmp,,,,TrialProc,,TrainingTrialList,1,2,-999999,0,413634,0,2,823,414457,Target2.bmp,lime,2,,,,4,3,71
KW_Experiment5A,13,1,"<?xml version=""1.0""?>\n<Clock xmlns:dt=""urn:schemas-microsoft-com:datatypes""><Description dt:dt=""string"">E-Prime Primary Realtime Clock</Description><StartTime><Timestamp dt:dt=""int"">0</Timestamp><DateUtc dt:dt=""string"">2018-10-11T19:00:19Z</DateUtc></StartTime><FrequencyChanges><FrequencyChange><Frequency dt:dt=""r8"">3215292</Frequency><Timestamp dt:dt=""r8"">4204431975041</Timestamp><Current dt:dt=""r8"">0</Current><DateUtc dt:dt=""string"">2018-10-11T19:00:19Z</DateUtc></FrequencyChange></FrequencyChanges></Clock>\n",KW_Experiment5A-13-1,59.946,1.0.0.105,1,-340355726,Professional,2.0.10.353,2.0.10.353,10/11/2018,10/11/2018 19:00,15:00:19,2.0.10.248,3,2,1,3,,,,,,,,TrainingProc,BlockList,24,2,Distractor2.bmp,2,0,,0,1,415469,601,,0,0,purple,600,3,600,5,horizontal,purple,Distractor1.bmp,blue,Distractor2.bmp,yellow,Distractor2.bmp,red,Distractor1.bmp,lime,Target2.bmp,cyan,Distractor2.bmp,,,,TrialProc,,TrainingTrialList,1,2,-999999,1,416070,0,2,763,416833,Target2.bmp,lime,2,,,,5,3,72
KW_Experiment5A,13,1,"<?xml version=""1.0""?>\n<Clock xmlns:dt=""urn:schemas-microsoft-com:datatypes""><Description dt:dt=""string"">E-Prime Primary Realtime Clock</Description><StartTime><Timestamp dt:dt=""int"">0</Timestamp><DateUtc dt:dt=""string"">2018-10-11T19:00:19Z</DateUtc></StartTime><FrequencyChanges><FrequencyChange><Frequency dt:dt=""r8"">3215292</Frequency><Timestamp dt:dt=""r8"">4204431975041</Timestamp><Current dt:dt=""r8"">0</Current><DateUtc dt:dt=""string"">2018-10-11T19:00:19Z</DateUtc></FrequencyChange></FrequencyChanges></Clock>\n",KW_Experiment5A-13-1,59.946,1.0.0.105,1,-340355726,Professional,2.0.10.353,2.0.10.353,10/11/2018,10/11/2018 19:00,15:00:19,2.0.10.248,3,2,1,3,,,,,,,,TrainingProc,BlockList,25,1,Distractor1.bmp,1,0,,0,1,417855,600,,0,0,purple,600,3,600,,vertical,purple,Distractor2.bmp,blue,Distractor2.bmp,red,Target1.bmp,yellow,Distractor1.bmp,cyan,Distractor1.bmp,lime,Distractor1.bmp,,,,TrialProc,5,TrainingTrialList,1,1,-999999,0,418455,0,1,666,419121,Target1.bmp,red,1,,,,9,4,73
KW_Experiment5A,13,1,"<?xml version=""1.0""?>\n<Clock xmlns:dt=""urn:schemas-microsoft-com:datatypes""><Description dt:dt=""string"">E-Prime Primary Realtime Clock</Description><StartTime><Timestamp dt:dt=""int"">0</Timestamp><DateUtc dt:dt=""string"">2018-10-11T19:00:19Z</DateUtc></StartTime><FrequencyChanges><FrequencyChange><Frequency dt:dt=""r8"">3215292</Frequency><Timestamp dt:dt=""r8"">4204431975041</Timestamp><Current dt:dt=""r8"">0</Current><DateUtc dt:dt=""string"">2018-10-11T19:00:19Z</DateUtc></FrequencyChange></FrequencyChanges></Clock>\n",KW_Experiment5A-13-1,59.946,1.0.0.105,1,-340355726,Professional,2.0.10.353,2.0.10.353,10/11/2018,10/11/2018 19:00,15:00:19,2.0.10.248,3,2,1,3,,,,,,,,TrainingProc,BlockList,26,2,Distractor2.bmp,2,0,,0,1,420140,501,,0,0,lime,500,2,500,,horizontal,lime,Distractor2.bmp,yellow,Distractor1.bmp,cyan,Distractor1.bmp,purple,Distractor2.bmp,blue,Distractor2.bmp,red,Target2.bmp,,,,TrialProc,6,TrainingTrialList,1,2,-999999,1,420641,0,2,512,421153,Target2.bmp,red,2,,,,12,4,74
KW_Experiment5A,13,1,"<?xml version=""1.0""?>\n<Clock xmlns:dt=""urn:schemas-microsoft-com:datatypes""><Description dt:dt=""string"">E-Prime Primary Realtime Clock</Description><StartTime><Timestamp dt:dt=""int"">0</Timestamp><DateUtc dt:dt=""string"">2018-10-11T19:00:19Z</DateUtc></StartTime><FrequencyChanges><FrequencyChange><Frequency dt:dt=""r8"">3215292</Frequency><Timestamp dt:dt=""r8"">4204431975041</Timestamp><Current dt:dt=""r8"">0</Current><DateUtc dt:dt=""string"">2018-10-11T19:00:19Z</DateUtc></FrequencyChange></FrequencyChanges></Clock>\n",KW_Experiment5A-13-1,59.946,1.0.0.105,1,-340355726,Professional,2.0.10.353,2.0.10.353,10/11/2018,10/11/2018 19:00,15:00:19,2.0.10.248,3,2,1,3,,,,,,,,TrainingProc,BlockList,27,1,Distractor1.bmp,1,0,,0,1,422175,501,,0,0,cyan,500,2,500,4,vertical,cyan,Distractor2.bmp,blue,Distractor1.bmp,red,Distractor1.bmp,yellow,Distractor2.bmp,lime,Target1.bmp,purple,Distractor1.bmp,,,,TrialProc,,TrainingTrialList,1,1,-999999,1,422676,0,1,581,423257,Target1.bmp,lime,1,,,,5,4,75
KW_Experiment5A,13,1,"<?xml version=""1.0""?>\n<Clock xmlns:dt=""urn:schemas-microsoft-com:datatypes""><Description dt:dt=""string"">E-Prime Primary Realtime Clock</Description><StartTime><Timestamp dt:dt=""int"">0</Timestamp><DateUtc dt:dt=""string"">2018-10-11T19:00:19Z</DateUtc></StartTime><FrequencyChanges><FrequencyChange><Frequency dt:dt=""r8"">3215292</Frequency><Timestamp dt:dt=""r8"">4204431975041</Timestamp><Current dt:dt=""r8"">0</Current><DateUtc dt:dt=""string"">2018-10-11T19:00:19Z</DateUtc></FrequencyChange></FrequencyChanges></Clock>\n",KW_Experiment5A-13-1,59.946,1.0.0.105,1,-340355726,Professional,2.0.10.353,2.0.10.353,10/11/2018,10/11/2018 19:00,15:00:19,2.0.10.248,3,2,1,3,,,,,,,,TrainingProc,BlockList,28,2,Distractor1.bmp,1,0,,0,1,424277,501,,0,0,blue,500,2,500,3,horizontal,blue,Distractor2.bmp,yellow,Distractor2.bmp,purple,Distractor1.bmp,lime,Target2.bmp,cyan,Distractor1.bmp,red,Distractor1.bmp,,,,TrialProc,,TrainingTrialList,1,2,-999999,1,424778,0,2,751,425529,Target2.bmp,lime,2,,,,4,4,76
KW_Experiment5A,13,1,"<?xml version=""1.0""?>\n<Clock xmlns:dt=""urn:schemas-microsoft-com:datatypes""><Description dt:dt=""string"">E-Prime Primary Realtime Clock</Description><StartTime><Timestamp dt:dt=""int"">0</Timestamp><DateUtc dt:dt=""string"">2018-10-11T19:00:19Z</DateUtc></StartTime><FrequencyChanges><FrequencyChange><Frequency dt:dt=""r8"">3215292</Frequency><Timestamp dt:dt=""r8"">4204431975041</Timestamp><Current dt:dt=""r8"">0</Current><DateUtc dt:dt=""string"">2018-10-11T19:00:19Z</DateUtc></FrequencyChange></FrequencyChanges></Clock>\n",KW_Experiment5A-13-1,59.946,1.0.0.105,1,-340355726,Professional,2.0.10.353,2.0.10.353,10/11/2018,10/11/2018 19:00,15:00:19,2.0.10.248,3,2,1,3,,,,,,,,TrainingProc,BlockList,29,1,Distractor1.bmp,1,0,,0,1,426546,400,,0,0,blue,400,1,400,3,vertical,blue,Distractor2.bmp,lime,Target1.bmp,red,Distractor1.bmp,yellow,Distractor2.bmp,purple,Distractor1.bmp,cyan,Distractor1.bmp,,,,TrialProc,,TrainingTrialList,1,1,-999999,0,426946,0,1,671,427617,Target1.bmp,lime,1,,,,2,4,77
KW_Experiment5A,13,1,"<?xml version=""1.0""?>\n<Clock xmlns:dt=""urn:schemas-microsoft-com:datatypes""><Description dt:dt=""string"">E-Prime Primary Realtime Clock</Description><StartTime><Timestamp dt:dt=""int"">0</Timestamp><DateUtc dt:dt=""string"">2018-10-11T19:00:19Z</DateUtc></StartTime><FrequencyChanges><FrequencyChange><Frequency dt:dt=""r8"">3215292</Frequency><Timestamp dt:dt=""r8"">4204431975041</Timestamp><Current dt:dt=""r8"">0</Current><DateUtc dt:dt=""string"">2018-10-11T19:00:19Z</DateUtc></FrequencyChange></FrequencyChanges></Clock>\n",KW_Experiment5A-13-1,59.946,1.0.0.105,1,-340355726,Professional,2.0.10.353,2.0.10.353,10/11/2018,10/11/2018 19:00,15:00:19,2.0.10.248,3,2,1,3,,,,,,,,TrainingProc,BlockList,30,1,Distractor2.bmp,2,0,,0,1,428631,401,,0,0,cyan,400,1,400,,vertical,cyan,Distractor1.bmp,blue,Distractor1.bmp,purple,Distractor1.bmp,yellow,Distractor2.bmp,red,Target1.bmp,lime,Distractor2.bmp,,,,TrialProc,4,TrainingTrialList,1,1,-999999,1,429032,0,1,529,429561,Target1.bmp,red,1,,,,11,4,78
KW_Experiment5A,13,1,"<?xml version=""1.0""?>\n<Clock xmlns:dt=""urn:schemas-microsoft-com:datatypes""><Description dt:dt=""string"">E-Prime Primary Realtime Clock</Description><StartTime><Timestamp dt:dt=""int"">0</Timestamp><DateUtc dt:dt=""string"">2018-10-11T19:00:19Z</DateUtc></StartTime><FrequencyChanges><FrequencyChange><Frequency dt:dt=""r8"">3215292</Frequency><Timestamp dt:dt=""r8"">4204431975041</Timestamp><Current dt:dt=""r8"">0</Current><DateUtc dt:dt=""string"">2018-10-11T19:00:19Z</DateUtc></FrequencyChange></FrequencyChanges></Clock>\n",KW_Experiment5A-13-1,59.946,1.0.0.105,1,-340355726,Professional,2.0.10.353,2.0.10.353,10/11/2018,10/11/2018 19:00,15:00:19,2.0.10.248,3,2,1,3,,,,,,,,TrainingProc,BlockList,31,1,Distractor2.bmp,2,0,,0,1,430583,601,,0,0,purple,600,3,600,,vertical,red,Target1.bmp,cyan,Distractor2.bmp,blue,Distractor2.bmp,lime,Distractor2.bmp,yellow,Distractor1.bmp,purple,Distractor1.bmp,,,,TrialProc,5,TrainingTrialList,1,1,-999999,1,431184,0,1,633,431817,Target1.bmp,red,1,,,,7,4,79
KW_Experiment5A,13,1,"<?xml version=""1.0""?>\n<Clock xmlns:dt=""urn:schemas-microsoft-com:datatypes""><Description dt:dt=""string"">E-Prime Primary Realtime Clock</Description><StartTime><Timestamp dt:dt=""int"">0</Timestamp><DateUtc dt:dt=""string"">2018-10-11T19:00:19Z</DateUtc></StartTime><FrequencyChanges><FrequencyChange><Frequency dt:dt=""r8"">3215292</Frequency><Timestamp dt:dt=""r8"">4204431975041</Timestamp><Current dt:dt=""r8"">0</Current><DateUtc dt:dt=""string"">2018-10-11T19:00:19Z</DateUtc></FrequencyChange></FrequencyChanges></Clock>\n",KW_Experiment5A-13-1,59.946,1.0.0.105,1,-340355726,Professional,2.0.10.353,2.0.10.353,10/11/2018,10/11/2018 19:00,15:00:19,2.0.10.248,3,2,1,3,,,,,,,,TrainingProc,BlockList,32,2,Distractor2.bmp,2,0,,0,1,432835,501,,0,0,purple,500,2,500,5,horizontal,lime,Target2.bmp,purple,Distractor2.bmp,yellow,Distractor2.bmp,red,Distractor1.bmp,cyan,Distractor1.bmp,blue,Distractor2.bmp,,,,TrialProc,,TrainingTrialList,1,2,-999999,1,433336,0,2,633,433969,Target2.bmp,lime,2,,,,1,4,80
KW_Experiment5A,13,1,"<?xml version=""1.0""?>\n<Clock xmlns:dt=""urn:schemas-microsoft-com:datatypes""><Description dt:dt=""string"">E-Prime Primary Realtime Clock</Description><StartTime><Timestamp dt:dt=""int"">0</Timestamp><DateUtc dt:dt=""string"">2018-10-11T19:00:19Z</DateUtc></StartTime><FrequencyChanges><FrequencyChange><Frequency dt:dt=""r8"">3215292</Frequency><Timestamp dt:dt=""r8"">4204431975041</Timestamp><Current dt:dt=""r8"">0</Current><DateUtc dt:dt=""string"">2018-10-11T19:00:19Z</DateUtc></FrequencyChange></FrequencyChanges></Clock>\n",KW_Experiment5A-13-1,59.946,1.0.0.105,1,-340355726,Professional,2.0.10.353,2.0.10.353,10/11/2018,10/11/2018 19:00,15:00:19,2.0.10.248,3,2,1,3,,,,,,,,TrainingProc,BlockList,33,2,Distractor2.bmp,2,0,,0,1,434987,501,,0,0,yellow,500,2,500,2,horizontal,yellow,Distractor1.bmp,cyan,Distractor1.bmp,blue,Distractor1.bmp,red,Distractor2.bmp,lime,Target2.bmp,purple,Distractor2.bmp,,,,TrialProc,,TrainingTrialList,1,2,-999999,1,435488,0,2,601,436089,Target2.bmp,lime,2,,,,5,4,81
KW_Experiment5A,13,1,"<?xml version=""1.0""?>\n<Clock xmlns:dt=""urn:schemas-microsoft-com:datatypes""><Description dt:dt=""string"">E-Prime Primary Realtime Clock</Description><StartTime><Timestamp dt:dt=""int"">0</Timestamp><DateUtc dt:dt=""string"">2018-10-11T19:00:19Z</DateUtc></StartTime><FrequencyChanges><FrequencyChange><Frequency dt:dt=""r8"">3215292</Frequency><Timestamp dt:dt=""r8"">4204431975041</Timestamp><Current dt:dt=""r8"">0</Current><DateUtc dt:dt=""string"">2018-10-11T19:00:19Z</DateUtc></FrequencyChange></FrequencyChanges></Clock>\n",KW_Experiment5A-13-1,59.946,1.0.0.105,1,-340355726,Professional,2.0.10.353,2.0.10.353,10/11/2018,10/11/2018 19:00,15:00:19,2.0.10.248,3,2,1,3,,,,,,,,TrainingProc,BlockList,34,2,Distractor1.bmp,1,0,,0,1,437106,500,,0,0,purple,500,2,500,5,horizontal,purple,Distractor1.bmp,blue,Distractor2.bmp,red,Distractor1.bmp,cyan,Distractor1.bmp,lime,Target2.bmp,yellow,Distractor1.bmp,,,,TrialProc,,TrainingTrialList,1,2,-999999,0,437606,0,2,507,438113,Target2.bmp,lime,2,,,,5,4,82
KW_Experiment5A,13,1,"<?xml version=""1.0""?>\n<Clock xmlns:dt=""urn:schemas-microsoft-com:datatypes""><Description dt:dt=""string"">E-Prime Primary Realtime Clock</Description><StartTime><Timestamp dt:dt=""int"">0</Timestamp><DateUtc dt:dt=""string"">2018-10-11T19:00:19Z</DateUtc></StartTime><FrequencyChanges><FrequencyChange><Frequency dt:dt=""r8"">3215292</Frequency><Timestamp dt:dt=""r8"">4204431975041</Timestamp><Current dt:dt=""r8"">0</Current><DateUtc dt:dt=""string"">2018-10-11T19:00:19Z</DateUtc></FrequencyChange></FrequencyChanges></Clock>\n",KW_Experiment5A-13-1,59.946,1.0.0.105,1,-340355726,Professional,2.0.10.353,2.0.10.353,10/11/2018,10/11/2018 19:00,15:00:19,2.0.10.248,3,2,1,3,,,,,,,,TrainingProc,BlockList,35,1,Distractor1.bmp,1,0,,0,1,439124,401,,0,0,red,400,1,400,1,vertical,red,Distractor2.bmp,purple,Distractor2.bmp,yellow,Distractor2.bmp,lime,Target1.bmp,cyan,Distractor1.bmp,blue,Distractor1.bmp,,,,TrialProc,,TrainingTrialList,1,1,-999999,1,439525,0,1,796,440321,Target1.bmp,lime,1,,,,4,4,83
KW_Experiment5A,13,1,"<?xml version=""1.0""?>\n<Clock xmlns:dt=""urn:schemas-microsoft-com:datatypes""><Description dt:dt=""string"">E-Prime Primary Realtime Clock</Description><StartTime><Timestamp dt:dt=""int"">0</Timestamp><DateUtc dt:dt=""string"">2018-10-11T19:00:19Z</DateUtc></StartTime><FrequencyChanges><FrequencyChange><Frequency dt:dt=""r8"">3215292</Frequency><Timestamp dt:dt=""r8"">4204431975041</Timestamp><Current dt:dt=""r8"">0</Current><DateUtc dt:dt=""string"">2018-10-11T19:00:19Z</DateUtc></FrequencyChange></FrequencyChanges></Clock>\n",KW_Experiment5A-13-1,59.946,1.0.0.105,1,-340355726,Professional,2.0.10.353,2.0.10.353,10/11/2018,10/11/2018 19:00,15:00:19,2.0.10.248,3,2,1,3,,,,,,,,TrainingProc,BlockList,36,1,Distractor2.bmp,2,0,,0,1,441343,600,,0,0,purple,600,3,600,5,vertical,purple,Distractor2.bmp,blue,Distractor2.bmp,red,Distractor2.bmp,lime,Target1.bmp,yellow,Distractor2.bmp,cyan,Distractor2.bmp,,,,TrialProc,,TrainingTrialList,1,1,-999999,0,441943,0,1,610,442553,Target1.bmp,lime,1,,,,4,4,84
KW_Experiment5A,13,1,"<?xml version=""1.0""?>\n<Clock xmlns:dt=""urn:schemas-microsoft-com:datatypes""><Description dt:dt=""string"">E-Prime Primary Realtime Clock</Description><StartTime><Timestamp dt:dt=""int"">0</Timestamp><DateUtc dt:dt=""string"">2018-10-11T19:00:19Z</DateUtc></StartTime><FrequencyChanges><FrequencyChange><Frequency dt:dt=""r8"">3215292</Frequency><Timestamp dt:dt=""r8"">4204431975041</Timestamp><Current dt:dt=""r8"">0</Current><DateUtc dt:dt=""string"">2018-10-11T19:00:19Z</DateUtc></FrequencyChange></FrequencyChanges></Clock>\n",KW_Experiment5A-13-1,59.946,1.0.0.105,1,-340355726,Professional,2.0.10.353,2.0.10.353,10/11/2018,10/11/2018 19:00,15:00:19,2.0.10.248,3,2,1,3,,,,,,,,TrainingProc,BlockList,37,2,Distractor2.bmp,2,0,,0,1,443578,601,,0,0,blue,600,3,600,3,horizontal,blue,Distractor1.bmp,cyan,Distractor2.bmp,lime,Target2.bmp,yellow,Distractor2.bmp,purple,Distractor1.bmp,red,Distractor2.bmp,,,,TrialProc,,TrainingTrialList,1,2,-999999,1,444179,0,2,917,445096,Target2.bmp,lime,2,,,,3,4,85
KW_Experiment5A,13,1,"<?xml version=""1.0""?>\n<Clock xmlns:dt=""urn:schemas-microsoft-com:datatypes""><Description dt:dt=""string"">E-Prime Primary Realtime Clock</Description><StartTime><Timestamp dt:dt=""int"">0</Timestamp><DateUtc dt:dt=""string"">2018-10-11T19:00:19Z</DateUtc></StartTime><FrequencyChanges><FrequencyChange><Frequency dt:dt=""r8"">3215292</Frequency><Timestamp dt:dt=""r8"">4204431975041</Timestamp><Current dt:dt=""r8"">0</Current><DateUtc dt:dt=""string"">2018-10-11T19:00:19Z</DateUtc></FrequencyChange></FrequencyChanges></Clock>\n",KW_Experiment5A-13-1,59.946,1.0.0.105,1,-340355726,Professional,2.0.10.353,2.0.10.353,10/11/2018,10/11/2018 19:00,15:00:19,2.0.10.248,3,2,1,3,,,,,,,,TrainingProc,BlockList,38,2,Distractor1.bmp,1,0,,0,1,446114,500,,0,0,blue,500,2,500,3,horizontal,lime,Target2.bmp,blue,Distractor1.bmp,red,Distractor1.bmp,yellow,Distractor2.bmp,purple,Distractor1.bmp,cyan,Distractor1.bmp,,,,TrialProc,,TrainingTrialList,1,2,-999999,0,446614,0,2,514,447128,Target2.bmp,lime,2,,,,1,4,86
KW_Experiment5A,13,1,"<?xml version=""1.0""?>\n<Clock xmlns:dt=""urn:schemas-microsoft-com:datatypes""><Description dt:dt=""string"">E-Prime Primary Realtime Clock</Description><StartTime><Timestamp dt:dt=""int"">0</Timestamp><DateUtc dt:dt=""string"">2018-10-11T19:00:19Z</DateUtc></StartTime><FrequencyChanges><FrequencyChange><Frequency dt:dt=""r8"">3215292</Frequency><Timestamp dt:dt=""r8"">4204431975041</Timestamp><Current dt:dt=""r8"">0</Current><DateUtc dt:dt=""string"">2018-10-11T19:00:19Z</DateUtc></FrequencyChange></FrequencyChanges></Clock>\n",KW_Experiment5A-13-1,59.946,1.0.0.105,1,-340355726,Professional,2.0.10.353,2.0.10.353,10/11/2018,10/11/2018 19:00,15:00:19,2.0.10.248,3,2,1,3,,,,,,,,TrainingProc,BlockList,39,2,Distractor2.bmp,2,0,,0,1,448149,601,,0,0,yellow,600,3,600,2,horizontal,yellow,Distractor1.bmp,red,Distractor2.bmp,lime,Target2.bmp,cyan,Distractor2.bmp,purple,Distractor2.bmp,blue,Distractor1.bmp,,,,TrialProc,,TrainingTrialList,1,2,-999999,1,448750,0,2,874,449624,Target2.bmp,lime,2,,,,3,4,87
KW_Experiment5A,13,1,"<?xml version=""1.0""?>\n<Clock xmlns:dt=""urn:schemas-microsoft-com:datatypes""><Description dt:dt=""string"">E-Prime Primary Realtime Clock</Description><StartTime><Timestamp dt:dt=""int"">0</Timestamp><DateUtc dt:dt=""string"">2018-10-11T19:00:19Z</DateUtc></StartTime><FrequencyChanges><FrequencyChange><Frequency dt:dt=""r8"">3215292</Frequency><Timestamp dt:dt=""r8"">4204431975041</Timestamp><Current dt:dt=""r8"">0</Current><DateUtc dt:dt=""string"">2018-10-11T19:00:19Z</DateUtc></FrequencyChange></FrequencyChanges></Clock>\n",KW_Experiment5A-13-1,59.946,1.0.0.105,1,-340355726,Professional,2.0.10.353,2.0.10.353,10/11/2018,10/11/2018 19:00,15:00:19,2.0.10.248,3,2,1,3,,,,,,,,TrainingProc,BlockList,40,1,Distractor2.bmp,2,0,,0,1,450635,600,,0,0,purple,600,3,600,5,vertical,lime,Target1.bmp,purple,Distractor2.bmp,blue,Distractor1.bmp,red,Distractor1.bmp,cyan,Distractor1.bmp,yellow,Distractor2.bmp,,,,TrialProc,,TrainingTrialList,1,1,-999999,0,451235,0,1,589,451824,Target1.bmp,lime,1,,,,1,4,88
KW_Experiment5A,13,1,"<?xml version=""1.0""?>\n<Clock xmlns:dt=""urn:schemas-microsoft-com:datatypes""><Description dt:dt=""string"">E-Prime Primary Realtime Clock</Description><StartTime><Timestamp dt:dt=""int"">0</Timestamp><DateUtc dt:dt=""string"">2018-10-11T19:00:19Z</DateUtc></StartTime><FrequencyChanges><FrequencyChange><Frequency dt:dt=""r8"">3215292</Frequency><Timestamp dt:dt=""r8"">4204431975041</Timestamp><Current dt:dt=""r8"">0</Current><DateUtc dt:dt=""string"">2018-10-11T19:00:19Z</DateUtc></FrequencyChange></FrequencyChanges></Clock>\n",KW_Experiment5A-13-1,59.946,1.0.0.105,1,-340355726,Professional,2.0.10.353,2.0.10.353,10/11/2018,10/11/2018 19:00,15:00:19,2.0.10.248,3,2,1,3,,,,,,,,TrainingProc,BlockList,41,1,Distractor1.bmp,1,0,,0,1,452837,600,,0,0,cyan,600,3,600,4,vertical,cyan,Distractor1.bmp,yellow,Distractor2.bmp,blue,Distractor1.bmp,red,Distractor1.bmp,purple,Distractor1.bmp,lime,Target1.bmp,,,,TrialProc,,TrainingTrialList,1,1,-999999,0,453437,0,1,627,454064,Target1.bmp,lime,1,,,,6,4,89
KW_Experiment5A,13,1,"<?xml version=""1.0""?>\n<Clock xmlns:dt=""urn:schemas-microsoft-com:datatypes""><Description dt:dt=""string"">E-Prime Primary Realtime Clock</Description><StartTime><Timestamp dt:dt=""int"">0</Timestamp><DateUtc dt:dt=""string"">2018-10-11T19:00:19Z</DateUtc></StartTime><FrequencyChanges><FrequencyChange><Frequency dt:dt=""r8"">3215292</Frequency><Timestamp dt:dt=""r8"">4204431975041</Timestamp><Current dt:dt=""r8"">0</Current><DateUtc dt:dt=""string"">2018-10-11T19:00:19Z</DateUtc></FrequencyChange></FrequencyChanges></Clock>\n",KW_Experiment5A-13-1,59.946,1.0.0.105,1,-340355726,Professional,2.0.10.353,2.0.10.353,10/11/2018,10/11/2018 19:00,15:00:19,2.0.10.248,3,2,1,3,,,,,,,,TrainingProc,BlockList,42,1,Distractor1.bmp,1,0,,0,1,455089,400,,0,0,red,400,1,400,1,vertical,red,Distractor1.bmp,yellow,Distractor1.bmp,blue,Distractor2.bmp,purple,Distractor2.bmp,cyan,Distractor1.bmp,lime,Target1.bmp,,,,TrialProc,,TrainingTrialList,1,1,-999999,0,455489,0,1,823,456312,Target1.bmp,lime,1,,,,6,4,90
