ExperimentName,Subject,Session,Clock.Information,DataFile.Basename,Display.RefreshRate,ExperimentVersion,Group,RandomSeed,RuntimeCapabilities,RuntimeVersion,RuntimeVersionExpected,SessionDate,SessionStartDateTimeUtc,SessionTime,StudioVersion,Block,BlockList,BlockList.Cycle,BlockList.Sample,PostTestQ1.RESP,PostTestQ1CJ.RESP,PostTestQ2.RESP,PostTestQ2CJ.RESP,PostTestQ3.RESP,PostTestQ3CJ.RESP,PostTestSlide.RESP,Procedure[Block],Running[Block],Trial,CorrectResponse,Distractor,DistractorList,Fixation.ACC,Fixation.CRESP,Fixation.DurationError,Fixation.OnsetDelay,Fixation.OnsetTime,Fixation.OnsetToOnsetTime,Fixation.RESP,Fixation.RT,Fixation.RTTime,ItemColor,Jitter,JitterList,JitterTime,Lime0List,Orientation,Pos1Color,Pos1Item,Pos2Color,Pos2Item,Pos3Color,Pos3Item,Pos4Color,Pos4Item,Pos5Color,Pos5Item,Pos6Color,Pos6Item,PracticeTrialList,PracticeTrialList.Cycle,PracticeTrialList.Sample,Procedure[Trial],Red0List,Running[Trial],Stimulus.ACC,Stimulus.CRESP,Stimulus.DurationError,Stimulus.OnsetDelay,Stimulus.OnsetTime,Stimulus.OnsetToOnsetTime,Stimulus.RESP,Stimulus.RT,Stimulus.RTTime,Target,TargetColor,TargetList,TestTrialList,TestTrialList.Cycle,TestTrialList.Sample,TrainingTrialList,TrainingTrialList.Cycle,TrainingTrialList.Sample
KW_Experiment5A,42,1,"<?xml version=""1.0""?>\n<Clock xmlns:dt=""urn:schemas-microsoft-com:datatypes""><Description dt:dt=""string"">E-Prime Primary Realtime Clock</Description><StartTime><Timestamp dt:dt=""int"">0</Timestamp><DateUtc dt:dt=""string"">2018-10-25T19:02:10Z</DateUtc></StartTime><FrequencyChanges><FrequencyChange><Frequency dt:dt=""r8"">3215273</Frequency><Timestamp dt:dt=""r8"">1598813927096</Timestamp><Current dt:dt=""r8"">0</Current><DateUtc dt:dt=""string"">2018-10-25T19:02:10Z</DateUtc></FrequencyChange></FrequencyChanges></Clock>\n",KW_Experiment5A-42-1,59.946,1.0.0.105,1,1086733241,Professional,2.0.10.353,2.0.10.353,10/25/2018,10/25/2018 19:02,15:02:11,2.0.10.248,1,1,1,1,,,,,,,,PracticeProc,BlockList,1,2,Distractor2.bmp,2,0,,0,39,112498,600,,0,0,purple,600,3,600,5,horizontal,red,Distractor1.bmp,blue,Distractor2.bmp,yellow,Distractor1.bmp,purple,Distractor2.bmp,lime,Target2.bmp,cyan,Distractor2.bmp,5,1,1,TrialProc,,PracticeTrialList,1,2,-999999,0,113098,0,2,7841,120939,Target2.bmp,lime,2,,,,,,
KW_Experiment5A,42,1,"<?xml version=""1.0""?>\n<Clock xmlns:dt=""urn:schemas-microsoft-com:datatypes""><Description dt:dt=""string"">E-Prime Primary Realtime Clock</Description><StartTime><Timestamp dt:dt=""int"">0</Timestamp><DateUtc dt:dt=""string"">2018-10-25T19:02:10Z</DateUtc></StartTime><FrequencyChanges><FrequencyChange><Frequency dt:dt=""r8"">3215273</Frequency><Timestamp dt:dt=""r8"">1598813927096</Timestamp><Current dt:dt=""r8"">0</Current><DateUtc dt:dt=""string"">2018-10-25T19:02:10Z</DateUtc></FrequencyChange></FrequencyChanges></Clock>\n",KW_Experiment5A-42-1,59.946,1.0.0.105,1,1086733241,Professional,2.0.10.353,2.0.10.353,10/25/2018,10/25/2018 19:02,15:02:11,2.0.10.248,1,1,1,1,,,,,,,,PracticeProc,BlockList,2,2,Distractor1.bmp,1,0,,0,1,121956,501,,0,0,lime,500,2,500,,horizontal,yellow,Distractor1.bmp,cyan,Distractor1.bmp,lime,Distractor2.bmp,red,Target2.bmp,purple,Distractor1.bmp,blue,Distractor1.bmp,4,1,2,TrialProc,6,PracticeTrialList,1,2,-999999,1,122457,0,2,1314,123771,Target2.bmp,red,2,,,,,,
KW_Experiment5A,42,1,"<?xml version=""1.0""?>\n<Clock xmlns:dt=""urn:schemas-microsoft-com:datatypes""><Description dt:dt=""string"">E-Prime Primary Realtime Clock</Description><StartTime><Timestamp dt:dt=""int"">0</Timestamp><DateUtc dt:dt=""string"">2018-10-25T19:02:10Z</DateUtc></StartTime><FrequencyChanges><FrequencyChange><Frequency dt:dt=""r8"">3215273</Frequency><Timestamp dt:dt=""r8"">1598813927096</Timestamp><Current dt:dt=""r8"">0</Current><DateUtc dt:dt=""string"">2018-10-25T19:02:10Z</DateUtc></FrequencyChange></FrequencyChanges></Clock>\n",KW_Experiment5A-42-1,59.946,1.0.0.105,1,1086733241,Professional,2.0.10.353,2.0.10.353,10/25/2018,10/25/2018 19:02,15:02:11,2.0.10.248,1,1,1,1,,,,,,,,PracticeProc,BlockList,3,2,Distractor2.bmp,2,0,,0,1,124792,501,,0,0,purple,500,2,500,,horizontal,blue,Distractor2.bmp,cyan,Distractor2.bmp,yellow,Distractor2.bmp,lime,Distractor2.bmp,purple,Distractor1.bmp,red,Target2.bmp,6,1,3,TrialProc,5,PracticeTrialList,1,2,-999999,1,125293,0,2,726,126019,Target2.bmp,red,2,,,,,,
KW_Experiment5A,42,1,"<?xml version=""1.0""?>\n<Clock xmlns:dt=""urn:schemas-microsoft-com:datatypes""><Description dt:dt=""string"">E-Prime Primary Realtime Clock</Description><StartTime><Timestamp dt:dt=""int"">0</Timestamp><DateUtc dt:dt=""string"">2018-10-25T19:02:10Z</DateUtc></StartTime><FrequencyChanges><FrequencyChange><Frequency dt:dt=""r8"">3215273</Frequency><Timestamp dt:dt=""r8"">1598813927096</Timestamp><Current dt:dt=""r8"">0</Current><DateUtc dt:dt=""string"">2018-10-25T19:02:10Z</DateUtc></FrequencyChange></FrequencyChanges></Clock>\n",KW_Experiment5A-42-1,59.946,1.0.0.105,1,1086733241,Professional,2.0.10.353,2.0.10.353,10/25/2018,10/25/2018 19:02,15:02:11,2.0.10.248,1,1,1,1,,,,,,,,PracticeProc,BlockList,4,1,Distractor2.bmp,2,0,,0,1,127044,501,,0,0,cyan,500,2,500,4,vertical,blue,Distractor2.bmp,cyan,Distractor2.bmp,lime,Target1.bmp,red,Distractor2.bmp,yellow,Distractor2.bmp,purple,Distractor2.bmp,3,1,4,TrialProc,,PracticeTrialList,1,1,-999999,1,127545,0,1,1010,128555,Target1.bmp,lime,1,,,,,,
KW_Experiment5A,42,1,"<?xml version=""1.0""?>\n<Clock xmlns:dt=""urn:schemas-microsoft-com:datatypes""><Description dt:dt=""string"">E-Prime Primary Realtime Clock</Description><StartTime><Timestamp dt:dt=""int"">0</Timestamp><DateUtc dt:dt=""string"">2018-10-25T19:02:10Z</DateUtc></StartTime><FrequencyChanges><FrequencyChange><Frequency dt:dt=""r8"">3215273</Frequency><Timestamp dt:dt=""r8"">1598813927096</Timestamp><Current dt:dt=""r8"">0</Current><DateUtc dt:dt=""string"">2018-10-25T19:02:10Z</DateUtc></FrequencyChange></FrequencyChanges></Clock>\n",KW_Experiment5A-42-1,59.946,1.0.0.105,1,1086733241,Professional,2.0.10.353,2.0.10.353,10/25/2018,10/25/2018 19:02,15:02:11,2.0.10.248,1,1,1,1,,,,,,,,PracticeProc,BlockList,5,2,Distractor2.bmp,2,0,,0,1,129580,500,,0,0,yellow,500,2,500,,horizontal,yellow,Distractor1.bmp,red,Target2.bmp,purple,Distractor2.bmp,blue,Distractor2.bmp,cyan,Distractor2.bmp,lime,Distractor1.bmp,2,1,5,TrialProc,2,PracticeTrialList,0,2,-999999,0,130080,0,1,267,130347,Target2.bmp,red,2,,,,,,
KW_Experiment5A,42,1,"<?xml version=""1.0""?>\n<Clock xmlns:dt=""urn:schemas-microsoft-com:datatypes""><Description dt:dt=""string"">E-Prime Primary Realtime Clock</Description><StartTime><Timestamp dt:dt=""int"">0</Timestamp><DateUtc dt:dt=""string"">2018-10-25T19:02:10Z</DateUtc></StartTime><FrequencyChanges><FrequencyChange><Frequency dt:dt=""r8"">3215273</Frequency><Timestamp dt:dt=""r8"">1598813927096</Timestamp><Current dt:dt=""r8"">0</Current><DateUtc dt:dt=""string"">2018-10-25T19:02:10Z</DateUtc></FrequencyChange></FrequencyChanges></Clock>\n",KW_Experiment5A-42-1,59.946,1.0.0.105,1,1086733241,Professional,2.0.10.353,2.0.10.353,10/25/2018,10/25/2018 19:02,15:02:11,2.0.10.248,1,1,1,1,,,,,,,,PracticeProc,BlockList,6,2,Distractor1.bmp,1,0,,0,1,131365,500,,0,0,blue,500,2,500,3,horizontal,lime,Target2.bmp,purple,Distractor1.bmp,red,Distractor1.bmp,cyan,Distractor2.bmp,yellow,Distractor1.bmp,blue,Distractor2.bmp,1,1,6,TrialProc,,PracticeTrialList,1,2,-999999,0,131865,0,2,826,132691,Target2.bmp,lime,2,,,,,,
KW_Experiment5A,42,1,"<?xml version=""1.0""?>\n<Clock xmlns:dt=""urn:schemas-microsoft-com:datatypes""><Description dt:dt=""string"">E-Prime Primary Realtime Clock</Description><StartTime><Timestamp dt:dt=""int"">0</Timestamp><DateUtc dt:dt=""string"">2018-10-25T19:02:10Z</DateUtc></StartTime><FrequencyChanges><FrequencyChange><Frequency dt:dt=""r8"">3215273</Frequency><Timestamp dt:dt=""r8"">1598813927096</Timestamp><Current dt:dt=""r8"">0</Current><DateUtc dt:dt=""string"">2018-10-25T19:02:10Z</DateUtc></FrequencyChange></FrequencyChanges></Clock>\n",KW_Experiment5A-42-1,59.946,1.0.0.105,1,1086733241,Professional,2.0.10.353,2.0.10.353,10/25/2018,10/25/2018 19:02,15:02:11,2.0.10.248,2,2,1,2,,,,,,,,TrainingProc,BlockList,1,2,Distractor1.bmp,1,0,,1,19,138838,501,,0,0,red,500,2,500,1,horizontal,red,Distractor2.bmp,yellow,Distractor1.bmp,cyan,Distractor2.bmp,purple,Distractor2.bmp,lime,Target2.bmp,blue,Distractor1.bmp,,,,TrialProc,,TrainingTrialList,0,2,-999999,1,139339,0,1,1016,140355,Target2.bmp,lime,2,,,,5,1,1
KW_Experiment5A,42,1,"<?xml version=""1.0""?>\n<Clock xmlns:dt=""urn:schemas-microsoft-com:datatypes""><Description dt:dt=""string"">E-Prime Primary Realtime Clock</Description><StartTime><Timestamp dt:dt=""int"">0</Timestamp><DateUtc dt:dt=""string"">2018-10-25T19:02:10Z</DateUtc></StartTime><FrequencyChanges><FrequencyChange><Frequency dt:dt=""r8"">3215273</Frequency><Timestamp dt:dt=""r8"">1598813927096</Timestamp><Current dt:dt=""r8"">0</Current><DateUtc dt:dt=""string"">2018-10-25T19:02:10Z</DateUtc></FrequencyChange></FrequencyChanges></Clock>\n",KW_Experiment5A-42-1,59.946,1.0.0.105,1,1086733241,Professional,2.0.10.353,2.0.10.353,10/25/2018,10/25/2018 19:02,15:02:11,2.0.10.248,2,2,1,2,,,,,,,,TrainingProc,BlockList,2,1,Distractor2.bmp,2,0,,0,1,141374,501,,0,0,red,500,2,500,1,vertical,red,Distractor2.bmp,yellow,Distractor2.bmp,purple,Distractor1.bmp,lime,Target1.bmp,cyan,Distractor2.bmp,blue,Distractor1.bmp,,,,TrialProc,,TrainingTrialList,1,1,-999999,1,141875,0,1,1592,143467,Target1.bmp,lime,1,,,,4,1,2
KW_Experiment5A,42,1,"<?xml version=""1.0""?>\n<Clock xmlns:dt=""urn:schemas-microsoft-com:datatypes""><Description dt:dt=""string"">E-Prime Primary Realtime Clock</Description><StartTime><Timestamp dt:dt=""int"">0</Timestamp><DateUtc dt:dt=""string"">2018-10-25T19:02:10Z</DateUtc></StartTime><FrequencyChanges><FrequencyChange><Frequency dt:dt=""r8"">3215273</Frequency><Timestamp dt:dt=""r8"">1598813927096</Timestamp><Current dt:dt=""r8"">0</Current><DateUtc dt:dt=""string"">2018-10-25T19:02:10Z</DateUtc></FrequencyChange></FrequencyChanges></Clock>\n",KW_Experiment5A-42-1,59.946,1.0.0.105,1,1086733241,Professional,2.0.10.353,2.0.10.353,10/25/2018,10/25/2018 19:02,15:02:11,2.0.10.248,2,2,1,2,,,,,,,,TrainingProc,BlockList,3,2,Distractor2.bmp,2,0,,0,1,144477,601,,0,0,blue,600,3,600,,horizontal,blue,Distractor1.bmp,purple,Distractor1.bmp,red,Target2.bmp,yellow,Distractor2.bmp,lime,Distractor2.bmp,cyan,Distractor2.bmp,,,,TrialProc,3,TrainingTrialList,1,2,-999999,1,145078,0,2,909,145987,Target2.bmp,red,2,,,,9,1,3
KW_Experiment5A,42,1,"<?xml version=""1.0""?>\n<Clock xmlns:dt=""urn:schemas-microsoft-com:datatypes""><Description dt:dt=""string"">E-Prime Primary Realtime Clock</Description><StartTime><Timestamp dt:dt=""int"">0</Timestamp><DateUtc dt:dt=""string"">2018-10-25T19:02:10Z</DateUtc></StartTime><FrequencyChanges><FrequencyChange><Frequency dt:dt=""r8"">3215273</Frequency><Timestamp dt:dt=""r8"">1598813927096</Timestamp><Current dt:dt=""r8"">0</Current><DateUtc dt:dt=""string"">2018-10-25T19:02:10Z</DateUtc></FrequencyChange></FrequencyChanges></Clock>\n",KW_Experiment5A-42-1,59.946,1.0.0.105,1,1086733241,Professional,2.0.10.353,2.0.10.353,10/25/2018,10/25/2018 19:02,15:02:11,2.0.10.248,2,2,1,2,,,,,,,,TrainingProc,BlockList,4,1,Distractor1.bmp,1,0,,0,1,146996,600,,0,0,blue,600,3,600,,vertical,blue,Distractor1.bmp,lime,Distractor2.bmp,yellow,Distractor2.bmp,red,Target1.bmp,purple,Distractor1.bmp,cyan,Distractor2.bmp,,,,TrialProc,3,TrainingTrialList,1,1,-999999,0,147596,0,1,1527,149123,Target1.bmp,red,1,,,,10,1,4
KW_Experiment5A,42,1,"<?xml version=""1.0""?>\n<Clock xmlns:dt=""urn:schemas-microsoft-com:datatypes""><Description dt:dt=""string"">E-Prime Primary Realtime Clock</Description><StartTime><Timestamp dt:dt=""int"">0</Timestamp><DateUtc dt:dt=""string"">2018-10-25T19:02:10Z</DateUtc></StartTime><FrequencyChanges><FrequencyChange><Frequency dt:dt=""r8"">3215273</Frequency><Timestamp dt:dt=""r8"">1598813927096</Timestamp><Current dt:dt=""r8"">0</Current><DateUtc dt:dt=""string"">2018-10-25T19:02:10Z</DateUtc></FrequencyChange></FrequencyChanges></Clock>\n",KW_Experiment5A-42-1,59.946,1.0.0.105,1,1086733241,Professional,2.0.10.353,2.0.10.353,10/25/2018,10/25/2018 19:02,15:02:11,2.0.10.248,2,2,1,2,,,,,,,,TrainingProc,BlockList,5,1,Distractor2.bmp,2,0,,0,1,150149,600,,0,0,yellow,600,3,600,2,vertical,yellow,Distractor1.bmp,blue,Distractor1.bmp,lime,Target1.bmp,red,Distractor2.bmp,cyan,Distractor1.bmp,purple,Distractor2.bmp,,,,TrialProc,,TrainingTrialList,1,1,-999999,0,150749,0,1,974,151723,Target1.bmp,lime,1,,,,3,1,5
KW_Experiment5A,42,1,"<?xml version=""1.0""?>\n<Clock xmlns:dt=""urn:schemas-microsoft-com:datatypes""><Description dt:dt=""string"">E-Prime Primary Realtime Clock</Description><StartTime><Timestamp dt:dt=""int"">0</Timestamp><DateUtc dt:dt=""string"">2018-10-25T19:02:10Z</DateUtc></StartTime><FrequencyChanges><FrequencyChange><Frequency dt:dt=""r8"">3215273</Frequency><Timestamp dt:dt=""r8"">1598813927096</Timestamp><Current dt:dt=""r8"">0</Current><DateUtc dt:dt=""string"">2018-10-25T19:02:10Z</DateUtc></FrequencyChange></FrequencyChanges></Clock>\n",KW_Experiment5A-42-1,59.946,1.0.0.105,1,1086733241,Professional,2.0.10.353,2.0.10.353,10/25/2018,10/25/2018 19:02,15:02:11,2.0.10.248,2,2,1,2,,,,,,,,TrainingProc,BlockList,6,2,Distractor2.bmp,2,0,,0,1,152735,600,,0,0,yellow,600,3,600,,horizontal,yellow,Distractor1.bmp,red,Target2.bmp,purple,Distractor2.bmp,blue,Distractor1.bmp,cyan,Distractor1.bmp,lime,Distractor2.bmp,,,,TrialProc,2,TrainingTrialList,1,2,-999999,0,153335,0,2,724,154059,Target2.bmp,red,2,,,,8,1,6
KW_Experiment5A,42,1,"<?xml version=""1.0""?>\n<Clock xmlns:dt=""urn:schemas-microsoft-com:datatypes""><Description dt:dt=""string"">E-Prime Primary Realtime Clock</Description><StartTime><Timestamp dt:dt=""int"">0</Timestamp><DateUtc dt:dt=""string"">2018-10-25T19:02:10Z</DateUtc></StartTime><FrequencyChanges><FrequencyChange><Frequency dt:dt=""r8"">3215273</Frequency><Timestamp dt:dt=""r8"">1598813927096</Timestamp><Current dt:dt=""r8"">0</Current><DateUtc dt:dt=""string"">2018-10-25T19:02:10Z</DateUtc></FrequencyChange></FrequencyChanges></Clock>\n",KW_Experiment5A-42-1,59.946,1.0.0.105,1,1086733241,Professional,2.0.10.353,2.0.10.353,10/25/2018,10/25/2018 19:02,15:02:11,2.0.10.248,2,2,1,2,,,,,,,,TrainingProc,BlockList,7,1,Distractor1.bmp,1,0,,0,1,155070,600,,0,0,red,600,3,600,1,vertical,lime,Target1.bmp,red,Distractor1.bmp,blue,Distractor2.bmp,purple,Distractor1.bmp,cyan,Distractor1.bmp,yellow,Distractor2.bmp,,,,TrialProc,,TrainingTrialList,1,1,-999999,0,155670,0,1,1197,156867,Target1.bmp,lime,1,,,,1,1,7
KW_Experiment5A,42,1,"<?xml version=""1.0""?>\n<Clock xmlns:dt=""urn:schemas-microsoft-com:datatypes""><Description dt:dt=""string"">E-Prime Primary Realtime Clock</Description><StartTime><Timestamp dt:dt=""int"">0</Timestamp><DateUtc dt:dt=""string"">2018-10-25T19:02:10Z</DateUtc></StartTime><FrequencyChanges><FrequencyChange><Frequency dt:dt=""r8"">3215273</Frequency><Timestamp dt:dt=""r8"">1598813927096</Timestamp><Current dt:dt=""r8"">0</Current><DateUtc dt:dt=""string"">2018-10-25T19:02:10Z</DateUtc></FrequencyChange></FrequencyChanges></Clock>\n",KW_Experiment5A-42-1,59.946,1.0.0.105,1,1086733241,Professional,2.0.10.353,2.0.10.353,10/25/2018,10/25/2018 19:02,15:02:11,2.0.10.248,2,2,1,2,,,,,,,,TrainingProc,BlockList,8,1,Distractor1.bmp,1,0,,0,1,157889,501,,0,0,yellow,500,2,500,2,vertical,yellow,Distractor1.bmp,red,Distractor2.bmp,purple,Distractor2.bmp,blue,Distractor2.bmp,lime,Target1.bmp,cyan,Distractor1.bmp,,,,TrialProc,,TrainingTrialList,1,1,-999999,1,158390,0,1,1349,159739,Target1.bmp,lime,1,,,,5,1,8
KW_Experiment5A,42,1,"<?xml version=""1.0""?>\n<Clock xmlns:dt=""urn:schemas-microsoft-com:datatypes""><Description dt:dt=""string"">E-Prime Primary Realtime Clock</Description><StartTime><Timestamp dt:dt=""int"">0</Timestamp><DateUtc dt:dt=""string"">2018-10-25T19:02:10Z</DateUtc></StartTime><FrequencyChanges><FrequencyChange><Frequency dt:dt=""r8"">3215273</Frequency><Timestamp dt:dt=""r8"">1598813927096</Timestamp><Current dt:dt=""r8"">0</Current><DateUtc dt:dt=""string"">2018-10-25T19:02:10Z</DateUtc></FrequencyChange></FrequencyChanges></Clock>\n",KW_Experiment5A-42-1,59.946,1.0.0.105,1,1086733241,Professional,2.0.10.353,2.0.10.353,10/25/2018,10/25/2018 19:02,15:02:11,2.0.10.248,2,2,1,2,,,,,,,,TrainingProc,BlockList,9,1,Distractor1.bmp,1,0,,1,0,160758,401,,0,0,cyan,400,1,400,4,vertical,cyan,Distractor2.bmp,blue,Distractor1.bmp,lime,Target1.bmp,purple,Distractor1.bmp,yellow,Distractor1.bmp,red,Distractor1.bmp,,,,TrialProc,,TrainingTrialList,1,1,-999999,1,161159,0,1,1195,162354,Target1.bmp,lime,1,,,,3,1,9
KW_Experiment5A,42,1,"<?xml version=""1.0""?>\n<Clock xmlns:dt=""urn:schemas-microsoft-com:datatypes""><Description dt:dt=""string"">E-Prime Primary Realtime Clock</Description><StartTime><Timestamp dt:dt=""int"">0</Timestamp><DateUtc dt:dt=""string"">2018-10-25T19:02:10Z</DateUtc></StartTime><FrequencyChanges><FrequencyChange><Frequency dt:dt=""r8"">3215273</Frequency><Timestamp dt:dt=""r8"">1598813927096</Timestamp><Current dt:dt=""r8"">0</Current><DateUtc dt:dt=""string"">2018-10-25T19:02:10Z</DateUtc></FrequencyChange></FrequencyChanges></Clock>\n",KW_Experiment5A-42-1,59.946,1.0.0.105,1,1086733241,Professional,2.0.10.353,2.0.10.353,10/25/2018,10/25/2018 19:02,15:02:11,2.0.10.248,2,2,1,2,,,,,,,,TrainingProc,BlockList,10,1,Distractor2.bmp,2,0,,0,1,163378,400,,0,0,cyan,400,1,400,4,vertical,cyan,Distractor2.bmp,blue,Distractor2.bmp,purple,Distractor2.bmp,red,Distractor2.bmp,yellow,Distractor2.bmp,lime,Target1.bmp,,,,TrialProc,,TrainingTrialList,1,1,-999999,0,163778,0,1,1176,164954,Target1.bmp,lime,1,,,,6,1,10
KW_Experiment5A,42,1,"<?xml version=""1.0""?>\n<Clock xmlns:dt=""urn:schemas-microsoft-com:datatypes""><Description dt:dt=""string"">E-Prime Primary Realtime Clock</Description><StartTime><Timestamp dt:dt=""int"">0</Timestamp><DateUtc dt:dt=""string"">2018-10-25T19:02:10Z</DateUtc></StartTime><FrequencyChanges><FrequencyChange><Frequency dt:dt=""r8"">3215273</Frequency><Timestamp dt:dt=""r8"">1598813927096</Timestamp><Current dt:dt=""r8"">0</Current><DateUtc dt:dt=""string"">2018-10-25T19:02:10Z</DateUtc></FrequencyChange></FrequencyChanges></Clock>\n",KW_Experiment5A-42-1,59.946,1.0.0.105,1,1086733241,Professional,2.0.10.353,2.0.10.353,10/25/2018,10/25/2018 19:02,15:02:11,2.0.10.248,2,2,1,2,,,,,,,,TrainingProc,BlockList,11,2,Distractor1.bmp,1,0,,0,1,165980,400,,0,0,yellow,400,1,400,2,horizontal,yellow,Distractor2.bmp,lime,Target2.bmp,red,Distractor1.bmp,blue,Distractor2.bmp,cyan,Distractor1.bmp,purple,Distractor1.bmp,,,,TrialProc,,TrainingTrialList,0,2,-999999,0,166380,0,1,710,167090,Target2.bmp,lime,2,,,,2,1,11
KW_Experiment5A,42,1,"<?xml version=""1.0""?>\n<Clock xmlns:dt=""urn:schemas-microsoft-com:datatypes""><Description dt:dt=""string"">E-Prime Primary Realtime Clock</Description><StartTime><Timestamp dt:dt=""int"">0</Timestamp><DateUtc dt:dt=""string"">2018-10-25T19:02:10Z</DateUtc></StartTime><FrequencyChanges><FrequencyChange><Frequency dt:dt=""r8"">3215273</Frequency><Timestamp dt:dt=""r8"">1598813927096</Timestamp><Current dt:dt=""r8"">0</Current><DateUtc dt:dt=""string"">2018-10-25T19:02:10Z</DateUtc></FrequencyChange></FrequencyChanges></Clock>\n",KW_Experiment5A-42-1,59.946,1.0.0.105,1,1086733241,Professional,2.0.10.353,2.0.10.353,10/25/2018,10/25/2018 19:02,15:02:11,2.0.10.248,2,2,1,2,,,,,,,,TrainingProc,BlockList,12,2,Distractor1.bmp,1,0,,0,1,168115,501,,0,0,red,500,2,500,1,horizontal,red,Distractor1.bmp,blue,Distractor2.bmp,yellow,Distractor2.bmp,cyan,Distractor2.bmp,purple,Distractor1.bmp,lime,Target2.bmp,,,,TrialProc,,TrainingTrialList,1,2,-999999,1,168616,0,2,562,169178,Target2.bmp,lime,2,,,,6,1,12
KW_Experiment5A,42,1,"<?xml version=""1.0""?>\n<Clock xmlns:dt=""urn:schemas-microsoft-com:datatypes""><Description dt:dt=""string"">E-Prime Primary Realtime Clock</Description><StartTime><Timestamp dt:dt=""int"">0</Timestamp><DateUtc dt:dt=""string"">2018-10-25T19:02:10Z</DateUtc></StartTime><FrequencyChanges><FrequencyChange><Frequency dt:dt=""r8"">3215273</Frequency><Timestamp dt:dt=""r8"">1598813927096</Timestamp><Current dt:dt=""r8"">0</Current><DateUtc dt:dt=""string"">2018-10-25T19:02:10Z</DateUtc></FrequencyChange></FrequencyChanges></Clock>\n",KW_Experiment5A-42-1,59.946,1.0.0.105,1,1086733241,Professional,2.0.10.353,2.0.10.353,10/25/2018,10/25/2018 19:02,15:02:11,2.0.10.248,2,2,1,2,,,,,,,,TrainingProc,BlockList,13,2,Distractor1.bmp,1,0,,1,0,170200,601,,0,0,purple,600,3,600,,horizontal,red,Target2.bmp,yellow,Distractor1.bmp,blue,Distractor2.bmp,cyan,Distractor2.bmp,lime,Distractor2.bmp,purple,Distractor2.bmp,,,,TrialProc,5,TrainingTrialList,1,2,-999999,1,170801,0,2,489,171290,Target2.bmp,red,2,,,,7,1,13
KW_Experiment5A,42,1,"<?xml version=""1.0""?>\n<Clock xmlns:dt=""urn:schemas-microsoft-com:datatypes""><Description dt:dt=""string"">E-Prime Primary Realtime Clock</Description><StartTime><Timestamp dt:dt=""int"">0</Timestamp><DateUtc dt:dt=""string"">2018-10-25T19:02:10Z</DateUtc></StartTime><FrequencyChanges><FrequencyChange><Frequency dt:dt=""r8"">3215273</Frequency><Timestamp dt:dt=""r8"">1598813927096</Timestamp><Current dt:dt=""r8"">0</Current><DateUtc dt:dt=""string"">2018-10-25T19:02:10Z</DateUtc></FrequencyChange></FrequencyChanges></Clock>\n",KW_Experiment5A-42-1,59.946,1.0.0.105,1,1086733241,Professional,2.0.10.353,2.0.10.353,10/25/2018,10/25/2018 19:02,15:02:11,2.0.10.248,2,2,1,2,,,,,,,,TrainingProc,BlockList,14,2,Distractor2.bmp,2,0,,0,1,172302,501,,0,0,red,500,2,500,1,horizontal,red,Distractor1.bmp,yellow,Distractor1.bmp,purple,Distractor1.bmp,lime,Target2.bmp,blue,Distractor2.bmp,cyan,Distractor2.bmp,,,,TrialProc,,TrainingTrialList,1,2,-999999,1,172803,0,2,855,173658,Target2.bmp,lime,2,,,,4,1,14
KW_Experiment5A,42,1,"<?xml version=""1.0""?>\n<Clock xmlns:dt=""urn:schemas-microsoft-com:datatypes""><Description dt:dt=""string"">E-Prime Primary Realtime Clock</Description><StartTime><Timestamp dt:dt=""int"">0</Timestamp><DateUtc dt:dt=""string"">2018-10-25T19:02:10Z</DateUtc></StartTime><FrequencyChanges><FrequencyChange><Frequency dt:dt=""r8"">3215273</Frequency><Timestamp dt:dt=""r8"">1598813927096</Timestamp><Current dt:dt=""r8"">0</Current><DateUtc dt:dt=""string"">2018-10-25T19:02:10Z</DateUtc></FrequencyChange></FrequencyChanges></Clock>\n",KW_Experiment5A-42-1,59.946,1.0.0.105,1,1086733241,Professional,2.0.10.353,2.0.10.353,10/25/2018,10/25/2018 19:02,15:02:11,2.0.10.248,2,2,1,2,,,,,,,,TrainingProc,BlockList,15,1,Distractor1.bmp,1,0,,0,1,174671,601,,0,0,purple,600,3,600,5,vertical,purple,Distractor1.bmp,lime,Target1.bmp,yellow,Distractor1.bmp,blue,Distractor2.bmp,cyan,Distractor2.bmp,red,Distractor2.bmp,,,,TrialProc,,TrainingTrialList,1,1,-999999,1,175272,0,1,674,175946,Target1.bmp,lime,1,,,,2,1,15
KW_Experiment5A,42,1,"<?xml version=""1.0""?>\n<Clock xmlns:dt=""urn:schemas-microsoft-com:datatypes""><Description dt:dt=""string"">E-Prime Primary Realtime Clock</Description><StartTime><Timestamp dt:dt=""int"">0</Timestamp><DateUtc dt:dt=""string"">2018-10-25T19:02:10Z</DateUtc></StartTime><FrequencyChanges><FrequencyChange><Frequency dt:dt=""r8"">3215273</Frequency><Timestamp dt:dt=""r8"">1598813927096</Timestamp><Current dt:dt=""r8"">0</Current><DateUtc dt:dt=""string"">2018-10-25T19:02:10Z</DateUtc></FrequencyChange></FrequencyChanges></Clock>\n",KW_Experiment5A-42-1,59.946,1.0.0.105,1,1086733241,Professional,2.0.10.353,2.0.10.353,10/25/2018,10/25/2018 19:02,15:02:11,2.0.10.248,2,2,1,2,,,,,,,,TrainingProc,BlockList,16,2,Distractor2.bmp,2,0,,0,1,176957,600,,0,0,yellow,600,3,600,,horizontal,yellow,Distractor2.bmp,purple,Distractor1.bmp,blue,Distractor1.bmp,cyan,Distractor1.bmp,red,Target2.bmp,lime,Distractor2.bmp,,,,TrialProc,2,TrainingTrialList,1,2,-999999,0,177557,0,2,613,178170,Target2.bmp,red,2,,,,11,1,16
KW_Experiment5A,42,1,"<?xml version=""1.0""?>\n<Clock xmlns:dt=""urn:schemas-microsoft-com:datatypes""><Description dt:dt=""string"">E-Prime Primary Realtime Clock</Description><StartTime><Timestamp dt:dt=""int"">0</Timestamp><DateUtc dt:dt=""string"">2018-10-25T19:02:10Z</DateUtc></StartTime><FrequencyChanges><FrequencyChange><Frequency dt:dt=""r8"">3215273</Frequency><Timestamp dt:dt=""r8"">1598813927096</Timestamp><Current dt:dt=""r8"">0</Current><DateUtc dt:dt=""string"">2018-10-25T19:02:10Z</DateUtc></FrequencyChange></FrequencyChanges></Clock>\n",KW_Experiment5A-42-1,59.946,1.0.0.105,1,1086733241,Professional,2.0.10.353,2.0.10.353,10/25/2018,10/25/2018 19:02,15:02:11,2.0.10.248,2,2,1,2,,,,,,,,TrainingProc,BlockList,17,2,Distractor1.bmp,1,0,,0,1,179192,500,,0,0,cyan,500,2,500,4,horizontal,cyan,Distractor1.bmp,yellow,Distractor1.bmp,lime,Target2.bmp,blue,Distractor1.bmp,red,Distractor2.bmp,purple,Distractor2.bmp,,,,TrialProc,,TrainingTrialList,1,2,-999999,0,179692,0,2,1118,180810,Target2.bmp,lime,2,,,,3,1,17
KW_Experiment5A,42,1,"<?xml version=""1.0""?>\n<Clock xmlns:dt=""urn:schemas-microsoft-com:datatypes""><Description dt:dt=""string"">E-Prime Primary Realtime Clock</Description><StartTime><Timestamp dt:dt=""int"">0</Timestamp><DateUtc dt:dt=""string"">2018-10-25T19:02:10Z</DateUtc></StartTime><FrequencyChanges><FrequencyChange><Frequency dt:dt=""r8"">3215273</Frequency><Timestamp dt:dt=""r8"">1598813927096</Timestamp><Current dt:dt=""r8"">0</Current><DateUtc dt:dt=""string"">2018-10-25T19:02:10Z</DateUtc></FrequencyChange></FrequencyChanges></Clock>\n",KW_Experiment5A-42-1,59.946,1.0.0.105,1,1086733241,Professional,2.0.10.353,2.0.10.353,10/25/2018,10/25/2018 19:02,15:02:11,2.0.10.248,2,2,1,2,,,,,,,,TrainingProc,BlockList,18,1,Distractor2.bmp,2,0,,0,1,181828,400,,0,0,yellow,400,1,400,,vertical,yellow,Distractor2.bmp,lime,Distractor2.bmp,purple,Distractor1.bmp,cyan,Distractor2.bmp,blue,Distractor1.bmp,red,Target1.bmp,,,,TrialProc,2,TrainingTrialList,1,1,-999999,0,182228,0,1,1230,183458,Target1.bmp,red,1,,,,12,1,18
KW_Experiment5A,42,1,"<?xml version=""1.0""?>\n<Clock xmlns:dt=""urn:schemas-microsoft-com:datatypes""><Description dt:dt=""string"">E-Prime Primary Realtime Clock</Description><StartTime><Timestamp dt:dt=""int"">0</Timestamp><DateUtc dt:dt=""string"">2018-10-25T19:02:10Z</DateUtc></StartTime><FrequencyChanges><FrequencyChange><Frequency dt:dt=""r8"">3215273</Frequency><Timestamp dt:dt=""r8"">1598813927096</Timestamp><Current dt:dt=""r8"">0</Current><DateUtc dt:dt=""string"">2018-10-25T19:02:10Z</DateUtc></FrequencyChange></FrequencyChanges></Clock>\n",KW_Experiment5A-42-1,59.946,1.0.0.105,1,1086733241,Professional,2.0.10.353,2.0.10.353,10/25/2018,10/25/2018 19:02,15:02:11,2.0.10.248,2,2,1,2,,,,,,,,TrainingProc,BlockList,19,1,Distractor2.bmp,2,0,,0,1,184480,601,,0,0,purple,600,3,600,5,vertical,purple,Distractor2.bmp,yellow,Distractor1.bmp,cyan,Distractor1.bmp,blue,Distractor2.bmp,red,Distractor1.bmp,lime,Target1.bmp,,,,TrialProc,,TrainingTrialList,1,1,-999999,1,185081,0,1,529,185610,Target1.bmp,lime,1,,,,6,1,19
KW_Experiment5A,42,1,"<?xml version=""1.0""?>\n<Clock xmlns:dt=""urn:schemas-microsoft-com:datatypes""><Description dt:dt=""string"">E-Prime Primary Realtime Clock</Description><StartTime><Timestamp dt:dt=""int"">0</Timestamp><DateUtc dt:dt=""string"">2018-10-25T19:02:10Z</DateUtc></StartTime><FrequencyChanges><FrequencyChange><Frequency dt:dt=""r8"">3215273</Frequency><Timestamp dt:dt=""r8"">1598813927096</Timestamp><Current dt:dt=""r8"">0</Current><DateUtc dt:dt=""string"">2018-10-25T19:02:10Z</DateUtc></FrequencyChange></FrequencyChanges></Clock>\n",KW_Experiment5A-42-1,59.946,1.0.0.105,1,1086733241,Professional,2.0.10.353,2.0.10.353,10/25/2018,10/25/2018 19:02,15:02:11,2.0.10.248,2,2,1,2,,,,,,,,TrainingProc,BlockList,20,2,Distractor1.bmp,1,0,,0,1,186632,501,,0,0,blue,500,2,500,3,horizontal,blue,Distractor1.bmp,lime,Target2.bmp,cyan,Distractor1.bmp,yellow,Distractor1.bmp,purple,Distractor2.bmp,red,Distractor2.bmp,,,,TrialProc,,TrainingTrialList,1,2,-999999,1,187133,0,2,605,187738,Target2.bmp,lime,2,,,,2,1,20
KW_Experiment5A,42,1,"<?xml version=""1.0""?>\n<Clock xmlns:dt=""urn:schemas-microsoft-com:datatypes""><Description dt:dt=""string"">E-Prime Primary Realtime Clock</Description><StartTime><Timestamp dt:dt=""int"">0</Timestamp><DateUtc dt:dt=""string"">2018-10-25T19:02:10Z</DateUtc></StartTime><FrequencyChanges><FrequencyChange><Frequency dt:dt=""r8"">3215273</Frequency><Timestamp dt:dt=""r8"">1598813927096</Timestamp><Current dt:dt=""r8"">0</Current><DateUtc dt:dt=""string"">2018-10-25T19:02:10Z</DateUtc></FrequencyChange></FrequencyChanges></Clock>\n",KW_Experiment5A-42-1,59.946,1.0.0.105,1,1086733241,Professional,2.0.10.353,2.0.10.353,10/25/2018,10/25/2018 19:02,15:02:11,2.0.10.248,2,2,1,2,,,,,,,,TrainingProc,BlockList,21,1,Distractor2.bmp,2,0,,0,1,188751,500,,0,0,blue,500,2,500,3,vertical,blue,Distractor1.bmp,purple,Distractor2.bmp,cyan,Distractor1.bmp,lime,Target1.bmp,yellow,Distractor2.bmp,red,Distractor2.bmp,,,,TrialProc,,TrainingTrialList,1,1,-999999,0,189251,0,1,791,190042,Target1.bmp,lime,1,,,,4,1,21
KW_Experiment5A,42,1,"<?xml version=""1.0""?>\n<Clock xmlns:dt=""urn:schemas-microsoft-com:datatypes""><Description dt:dt=""string"">E-Prime Primary Realtime Clock</Description><StartTime><Timestamp dt:dt=""int"">0</Timestamp><DateUtc dt:dt=""string"">2018-10-25T19:02:10Z</DateUtc></StartTime><FrequencyChanges><FrequencyChange><Frequency dt:dt=""r8"">3215273</Frequency><Timestamp dt:dt=""r8"">1598813927096</Timestamp><Current dt:dt=""r8"">0</Current><DateUtc dt:dt=""string"">2018-10-25T19:02:10Z</DateUtc></FrequencyChange></FrequencyChanges></Clock>\n",KW_Experiment5A-42-1,59.946,1.0.0.105,1,1086733241,Professional,2.0.10.353,2.0.10.353,10/25/2018,10/25/2018 19:02,15:02:11,2.0.10.248,2,2,1,2,,,,,,,,TrainingProc,BlockList,22,1,Distractor1.bmp,1,0,,0,1,191053,500,,0,0,red,500,2,500,1,vertical,red,Distractor1.bmp,cyan,Distractor2.bmp,purple,Distractor1.bmp,yellow,Distractor1.bmp,lime,Target1.bmp,blue,Distractor1.bmp,,,,TrialProc,,TrainingTrialList,1,1,-999999,0,191553,0,1,753,192306,Target1.bmp,lime,1,,,,5,1,22
KW_Experiment5A,42,1,"<?xml version=""1.0""?>\n<Clock xmlns:dt=""urn:schemas-microsoft-com:datatypes""><Description dt:dt=""string"">E-Prime Primary Realtime Clock</Description><StartTime><Timestamp dt:dt=""int"">0</Timestamp><DateUtc dt:dt=""string"">2018-10-25T19:02:10Z</DateUtc></StartTime><FrequencyChanges><FrequencyChange><Frequency dt:dt=""r8"">3215273</Frequency><Timestamp dt:dt=""r8"">1598813927096</Timestamp><Current dt:dt=""r8"">0</Current><DateUtc dt:dt=""string"">2018-10-25T19:02:10Z</DateUtc></FrequencyChange></FrequencyChanges></Clock>\n",KW_Experiment5A-42-1,59.946,1.0.0.105,1,1086733241,Professional,2.0.10.353,2.0.10.353,10/25/2018,10/25/2018 19:02,15:02:11,2.0.10.248,2,2,1,2,,,,,,,,TrainingProc,BlockList,23,1,Distractor1.bmp,1,0,,0,1,193322,500,,0,0,blue,500,2,500,3,vertical,lime,Target1.bmp,blue,Distractor1.bmp,cyan,Distractor1.bmp,yellow,Distractor1.bmp,purple,Distractor1.bmp,red,Distractor1.bmp,,,,TrialProc,,TrainingTrialList,1,1,-999999,0,193822,0,1,604,194426,Target1.bmp,lime,1,,,,1,1,23
KW_Experiment5A,42,1,"<?xml version=""1.0""?>\n<Clock xmlns:dt=""urn:schemas-microsoft-com:datatypes""><Description dt:dt=""string"">E-Prime Primary Realtime Clock</Description><StartTime><Timestamp dt:dt=""int"">0</Timestamp><DateUtc dt:dt=""string"">2018-10-25T19:02:10Z</DateUtc></StartTime><FrequencyChanges><FrequencyChange><Frequency dt:dt=""r8"">3215273</Frequency><Timestamp dt:dt=""r8"">1598813927096</Timestamp><Current dt:dt=""r8"">0</Current><DateUtc dt:dt=""string"">2018-10-25T19:02:10Z</DateUtc></FrequencyChange></FrequencyChanges></Clock>\n",KW_Experiment5A-42-1,59.946,1.0.0.105,1,1086733241,Professional,2.0.10.353,2.0.10.353,10/25/2018,10/25/2018 19:02,15:02:11,2.0.10.248,2,2,1,2,,,,,,,,TrainingProc,BlockList,24,1,Distractor2.bmp,2,0,,0,1,195440,601,,0,0,cyan,600,3,600,4,vertical,lime,Target1.bmp,cyan,Distractor2.bmp,blue,Distractor1.bmp,yellow,Distractor2.bmp,purple,Distractor1.bmp,red,Distractor1.bmp,,,,TrialProc,,TrainingTrialList,1,1,-999999,1,196041,0,1,505,196546,Target1.bmp,lime,1,,,,1,1,24
KW_Experiment5A,42,1,"<?xml version=""1.0""?>\n<Clock xmlns:dt=""urn:schemas-microsoft-com:datatypes""><Description dt:dt=""string"">E-Prime Primary Realtime Clock</Description><StartTime><Timestamp dt:dt=""int"">0</Timestamp><DateUtc dt:dt=""string"">2018-10-25T19:02:10Z</DateUtc></StartTime><FrequencyChanges><FrequencyChange><Frequency dt:dt=""r8"">3215273</Frequency><Timestamp dt:dt=""r8"">1598813927096</Timestamp><Current dt:dt=""r8"">0</Current><DateUtc dt:dt=""string"">2018-10-25T19:02:10Z</DateUtc></FrequencyChange></FrequencyChanges></Clock>\n",KW_Experiment5A-42-1,59.946,1.0.0.105,1,1086733241,Professional,2.0.10.353,2.0.10.353,10/25/2018,10/25/2018 19:02,15:02:11,2.0.10.248,2,2,1,2,,,,,,,,TrainingProc,BlockList,25,1,Distractor1.bmp,1,0,,0,1,197559,400,,0,0,blue,400,1,400,3,vertical,blue,Distractor2.bmp,yellow,Distractor2.bmp,lime,Target1.bmp,purple,Distractor1.bmp,cyan,Distractor2.bmp,red,Distractor2.bmp,,,,TrialProc,,TrainingTrialList,0,1,-999999,0,197959,0,2,899,198858,Target1.bmp,lime,1,,,,3,2,25
KW_Experiment5A,42,1,"<?xml version=""1.0""?>\n<Clock xmlns:dt=""urn:schemas-microsoft-com:datatypes""><Description dt:dt=""string"">E-Prime Primary Realtime Clock</Description><StartTime><Timestamp dt:dt=""int"">0</Timestamp><DateUtc dt:dt=""string"">2018-10-25T19:02:10Z</DateUtc></StartTime><FrequencyChanges><FrequencyChange><Frequency dt:dt=""r8"">3215273</Frequency><Timestamp dt:dt=""r8"">1598813927096</Timestamp><Current dt:dt=""r8"">0</Current><DateUtc dt:dt=""string"">2018-10-25T19:02:10Z</DateUtc></FrequencyChange></FrequencyChanges></Clock>\n",KW_Experiment5A-42-1,59.946,1.0.0.105,1,1086733241,Professional,2.0.10.353,2.0.10.353,10/25/2018,10/25/2018 19:02,15:02:11,2.0.10.248,2,2,1,2,,,,,,,,TrainingProc,BlockList,26,2,Distractor2.bmp,2,0,,0,1,199878,400,,0,0,yellow,400,1,400,,horizontal,yellow,Distractor2.bmp,purple,Distractor1.bmp,blue,Distractor1.bmp,red,Target2.bmp,cyan,Distractor2.bmp,lime,Distractor1.bmp,,,,TrialProc,2,TrainingTrialList,1,2,-999999,0,200278,0,2,740,201018,Target2.bmp,red,2,,,,10,2,26
KW_Experiment5A,42,1,"<?xml version=""1.0""?>\n<Clock xmlns:dt=""urn:schemas-microsoft-com:datatypes""><Description dt:dt=""string"">E-Prime Primary Realtime Clock</Description><StartTime><Timestamp dt:dt=""int"">0</Timestamp><DateUtc dt:dt=""string"">2018-10-25T19:02:10Z</DateUtc></StartTime><FrequencyChanges><FrequencyChange><Frequency dt:dt=""r8"">3215273</Frequency><Timestamp dt:dt=""r8"">1598813927096</Timestamp><Current dt:dt=""r8"">0</Current><DateUtc dt:dt=""string"">2018-10-25T19:02:10Z</DateUtc></FrequencyChange></FrequencyChanges></Clock>\n",KW_Experiment5A-42-1,59.946,1.0.0.105,1,1086733241,Professional,2.0.10.353,2.0.10.353,10/25/2018,10/25/2018 19:02,15:02:11,2.0.10.248,2,2,1,2,,,,,,,,TrainingProc,BlockList,27,2,Distractor2.bmp,2,0,,0,1,202030,600,,0,0,cyan,600,3,600,4,horizontal,cyan,Distractor2.bmp,lime,Target2.bmp,yellow,Distractor2.bmp,blue,Distractor2.bmp,purple,Distractor1.bmp,red,Distractor2.bmp,,,,TrialProc,,TrainingTrialList,1,2,-999999,0,202630,0,2,604,203234,Target2.bmp,lime,2,,,,2,2,27
KW_Experiment5A,42,1,"<?xml version=""1.0""?>\n<Clock xmlns:dt=""urn:schemas-microsoft-com:datatypes""><Description dt:dt=""string"">E-Prime Primary Realtime Clock</Description><StartTime><Timestamp dt:dt=""int"">0</Timestamp><DateUtc dt:dt=""string"">2018-10-25T19:02:10Z</DateUtc></StartTime><FrequencyChanges><FrequencyChange><Frequency dt:dt=""r8"">3215273</Frequency><Timestamp dt:dt=""r8"">1598813927096</Timestamp><Current dt:dt=""r8"">0</Current><DateUtc dt:dt=""string"">2018-10-25T19:02:10Z</DateUtc></FrequencyChange></FrequencyChanges></Clock>\n",KW_Experiment5A-42-1,59.946,1.0.0.105,1,1086733241,Professional,2.0.10.353,2.0.10.353,10/25/2018,10/25/2018 19:02,15:02:11,2.0.10.248,2,2,1,2,,,,,,,,TrainingProc,BlockList,28,1,Distractor2.bmp,2,0,,0,1,204248,501,,0,0,red,500,2,500,1,vertical,red,Distractor2.bmp,blue,Distractor1.bmp,purple,Distractor2.bmp,cyan,Distractor2.bmp,yellow,Distractor2.bmp,lime,Target1.bmp,,,,TrialProc,,TrainingTrialList,1,1,-999999,1,204749,0,1,469,205218,Target1.bmp,lime,1,,,,6,2,28
KW_Experiment5A,42,1,"<?xml version=""1.0""?>\n<Clock xmlns:dt=""urn:schemas-microsoft-com:datatypes""><Description dt:dt=""string"">E-Prime Primary Realtime Clock</Description><StartTime><Timestamp dt:dt=""int"">0</Timestamp><DateUtc dt:dt=""string"">2018-10-25T19:02:10Z</DateUtc></StartTime><FrequencyChanges><FrequencyChange><Frequency dt:dt=""r8"">3215273</Frequency><Timestamp dt:dt=""r8"">1598813927096</Timestamp><Current dt:dt=""r8"">0</Current><DateUtc dt:dt=""string"">2018-10-25T19:02:10Z</DateUtc></FrequencyChange></FrequencyChanges></Clock>\n",KW_Experiment5A-42-1,59.946,1.0.0.105,1,1086733241,Professional,2.0.10.353,2.0.10.353,10/25/2018,10/25/2018 19:02,15:02:11,2.0.10.248,2,2,1,2,,,,,,,,TrainingProc,BlockList,29,2,Distractor1.bmp,1,0,,0,0,206233,401,,0,0,blue,400,1,400,3,horizontal,blue,Distractor1.bmp,lime,Target2.bmp,red,Distractor1.bmp,cyan,Distractor1.bmp,purple,Distractor1.bmp,yellow,Distractor1.bmp,,,,TrialProc,,TrainingTrialList,1,2,-999999,1,206634,0,2,800,207434,Target2.bmp,lime,2,,,,2,2,29
KW_Experiment5A,42,1,"<?xml version=""1.0""?>\n<Clock xmlns:dt=""urn:schemas-microsoft-com:datatypes""><Description dt:dt=""string"">E-Prime Primary Realtime Clock</Description><StartTime><Timestamp dt:dt=""int"">0</Timestamp><DateUtc dt:dt=""string"">2018-10-25T19:02:10Z</DateUtc></StartTime><FrequencyChanges><FrequencyChange><Frequency dt:dt=""r8"">3215273</Frequency><Timestamp dt:dt=""r8"">1598813927096</Timestamp><Current dt:dt=""r8"">0</Current><DateUtc dt:dt=""string"">2018-10-25T19:02:10Z</DateUtc></FrequencyChange></FrequencyChanges></Clock>\n",KW_Experiment5A-42-1,59.946,1.0.0.105,1,1086733241,Professional,2.0.10.353,2.0.10.353,10/25/2018,10/25/2018 19:02,15:02:11,2.0.10.248,2,2,1,2,,,,,,,,TrainingProc,BlockList,30,2,Distractor2.bmp,2,0,,0,1,208452,501,,0,0,cyan,500,2,500,4,horizontal,lime,Target2.bmp,cyan,Distractor2.bmp,purple,Distractor1.bmp,blue,Distractor2.bmp,red,Distractor2.bmp,yellow,Distractor1.bmp,,,,TrialProc,,TrainingTrialList,0,2,-999999,1,208953,0,1,593,209546,Target2.bmp,lime,2,,,,1,2,30
KW_Experiment5A,42,1,"<?xml version=""1.0""?>\n<Clock xmlns:dt=""urn:schemas-microsoft-com:datatypes""><Description dt:dt=""string"">E-Prime Primary Realtime Clock</Description><StartTime><Timestamp dt:dt=""int"">0</Timestamp><DateUtc dt:dt=""string"">2018-10-25T19:02:10Z</DateUtc></StartTime><FrequencyChanges><FrequencyChange><Frequency dt:dt=""r8"">3215273</Frequency><Timestamp dt:dt=""r8"">1598813927096</Timestamp><Current dt:dt=""r8"">0</Current><DateUtc dt:dt=""string"">2018-10-25T19:02:10Z</DateUtc></FrequencyChange></FrequencyChanges></Clock>\n",KW_Experiment5A-42-1,59.946,1.0.0.105,1,1086733241,Professional,2.0.10.353,2.0.10.353,10/25/2018,10/25/2018 19:02,15:02:11,2.0.10.248,2,2,1,2,,,,,,,,TrainingProc,BlockList,31,1,Distractor2.bmp,2,0,,0,1,210571,500,,0,0,red,500,2,500,1,vertical,red,Distractor1.bmp,cyan,Distractor2.bmp,blue,Distractor1.bmp,purple,Distractor1.bmp,lime,Target1.bmp,yellow,Distractor2.bmp,,,,TrialProc,,TrainingTrialList,1,1,-999999,0,211071,0,1,1867,212938,Target1.bmp,lime,1,,,,5,2,31
KW_Experiment5A,42,1,"<?xml version=""1.0""?>\n<Clock xmlns:dt=""urn:schemas-microsoft-com:datatypes""><Description dt:dt=""string"">E-Prime Primary Realtime Clock</Description><StartTime><Timestamp dt:dt=""int"">0</Timestamp><DateUtc dt:dt=""string"">2018-10-25T19:02:10Z</DateUtc></StartTime><FrequencyChanges><FrequencyChange><Frequency dt:dt=""r8"">3215273</Frequency><Timestamp dt:dt=""r8"">1598813927096</Timestamp><Current dt:dt=""r8"">0</Current><DateUtc dt:dt=""string"">2018-10-25T19:02:10Z</DateUtc></FrequencyChange></FrequencyChanges></Clock>\n",KW_Experiment5A-42-1,59.946,1.0.0.105,1,1086733241,Professional,2.0.10.353,2.0.10.353,10/25/2018,10/25/2018 19:02,15:02:11,2.0.10.248,2,2,1,2,,,,,,,,TrainingProc,BlockList,32,1,Distractor1.bmp,1,0,,0,1,213957,501,,0,0,blue,500,2,500,3,vertical,blue,Distractor2.bmp,cyan,Distractor1.bmp,red,Distractor1.bmp,lime,Target1.bmp,yellow,Distractor1.bmp,purple,Distractor2.bmp,,,,TrialProc,,TrainingTrialList,1,1,-999999,1,214458,0,1,1192,215650,Target1.bmp,lime,1,,,,4,2,32
KW_Experiment5A,42,1,"<?xml version=""1.0""?>\n<Clock xmlns:dt=""urn:schemas-microsoft-com:datatypes""><Description dt:dt=""string"">E-Prime Primary Realtime Clock</Description><StartTime><Timestamp dt:dt=""int"">0</Timestamp><DateUtc dt:dt=""string"">2018-10-25T19:02:10Z</DateUtc></StartTime><FrequencyChanges><FrequencyChange><Frequency dt:dt=""r8"">3215273</Frequency><Timestamp dt:dt=""r8"">1598813927096</Timestamp><Current dt:dt=""r8"">0</Current><DateUtc dt:dt=""string"">2018-10-25T19:02:10Z</DateUtc></FrequencyChange></FrequencyChanges></Clock>\n",KW_Experiment5A-42-1,59.946,1.0.0.105,1,1086733241,Professional,2.0.10.353,2.0.10.353,10/25/2018,10/25/2018 19:02,15:02:11,2.0.10.248,2,2,1,2,,,,,,,,TrainingProc,BlockList,33,2,Distractor1.bmp,1,0,,0,1,216660,400,,0,0,cyan,400,1,400,4,horizontal,cyan,Distractor1.bmp,blue,Distractor2.bmp,yellow,Distractor2.bmp,red,Distractor1.bmp,lime,Target2.bmp,purple,Distractor1.bmp,,,,TrialProc,,TrainingTrialList,1,2,-999999,0,217060,0,2,741,217801,Target2.bmp,lime,2,,,,5,2,33
KW_Experiment5A,42,1,"<?xml version=""1.0""?>\n<Clock xmlns:dt=""urn:schemas-microsoft-com:datatypes""><Description dt:dt=""string"">E-Prime Primary Realtime Clock</Description><StartTime><Timestamp dt:dt=""int"">0</Timestamp><DateUtc dt:dt=""string"">2018-10-25T19:02:10Z</DateUtc></StartTime><FrequencyChanges><FrequencyChange><Frequency dt:dt=""r8"">3215273</Frequency><Timestamp dt:dt=""r8"">1598813927096</Timestamp><Current dt:dt=""r8"">0</Current><DateUtc dt:dt=""string"">2018-10-25T19:02:10Z</DateUtc></FrequencyChange></FrequencyChanges></Clock>\n",KW_Experiment5A-42-1,59.946,1.0.0.105,1,1086733241,Professional,2.0.10.353,2.0.10.353,10/25/2018,10/25/2018 19:02,15:02:11,2.0.10.248,2,2,1,2,,,,,,,,TrainingProc,BlockList,34,2,Distractor1.bmp,1,0,,0,1,218812,400,,0,0,red,400,1,400,1,horizontal,red,Distractor1.bmp,blue,Distractor2.bmp,cyan,Distractor2.bmp,lime,Target2.bmp,purple,Distractor1.bmp,yellow,Distractor2.bmp,,,,TrialProc,,TrainingTrialList,1,2,-999999,0,219212,0,2,1485,220697,Target2.bmp,lime,2,,,,4,2,34
KW_Experiment5A,42,1,"<?xml version=""1.0""?>\n<Clock xmlns:dt=""urn:schemas-microsoft-com:datatypes""><Description dt:dt=""string"">E-Prime Primary Realtime Clock</Description><StartTime><Timestamp dt:dt=""int"">0</Timestamp><DateUtc dt:dt=""string"">2018-10-25T19:02:10Z</DateUtc></StartTime><FrequencyChanges><FrequencyChange><Frequency dt:dt=""r8"">3215273</Frequency><Timestamp dt:dt=""r8"">1598813927096</Timestamp><Current dt:dt=""r8"">0</Current><DateUtc dt:dt=""string"">2018-10-25T19:02:10Z</DateUtc></FrequencyChange></FrequencyChanges></Clock>\n",KW_Experiment5A-42-1,59.946,1.0.0.105,1,1086733241,Professional,2.0.10.353,2.0.10.353,10/25/2018,10/25/2018 19:02,15:02:11,2.0.10.248,2,2,1,2,,,,,,,,TrainingProc,BlockList,35,1,Distractor2.bmp,2,0,,0,1,221714,401,,0,0,lime,400,1,400,,vertical,lime,Distractor1.bmp,red,Target1.bmp,yellow,Distractor2.bmp,cyan,Distractor1.bmp,purple,Distractor1.bmp,blue,Distractor2.bmp,,,,TrialProc,6,TrainingTrialList,1,1,-999999,1,222115,0,1,734,222849,Target1.bmp,red,1,,,,8,2,35
KW_Experiment5A,42,1,"<?xml version=""1.0""?>\n<Clock xmlns:dt=""urn:schemas-microsoft-com:datatypes""><Description dt:dt=""string"">E-Prime Primary Realtime Clock</Description><StartTime><Timestamp dt:dt=""int"">0</Timestamp><DateUtc dt:dt=""string"">2018-10-25T19:02:10Z</DateUtc></StartTime><FrequencyChanges><FrequencyChange><Frequency dt:dt=""r8"">3215273</Frequency><Timestamp dt:dt=""r8"">1598813927096</Timestamp><Current dt:dt=""r8"">0</Current><DateUtc dt:dt=""string"">2018-10-25T19:02:10Z</DateUtc></FrequencyChange></FrequencyChanges></Clock>\n",KW_Experiment5A-42-1,59.946,1.0.0.105,1,1086733241,Professional,2.0.10.353,2.0.10.353,10/25/2018,10/25/2018 19:02,15:02:11,2.0.10.248,2,2,1,2,,,,,,,,TrainingProc,BlockList,36,1,Distractor2.bmp,2,0,,0,1,223866,501,,0,0,yellow,500,2,500,2,vertical,yellow,Distractor2.bmp,lime,Target1.bmp,red,Distractor2.bmp,cyan,Distractor1.bmp,purple,Distractor1.bmp,blue,Distractor1.bmp,,,,TrialProc,,TrainingTrialList,1,1,-999999,1,224367,0,1,626,224993,Target1.bmp,lime,1,,,,2,2,36
KW_Experiment5A,42,1,"<?xml version=""1.0""?>\n<Clock xmlns:dt=""urn:schemas-microsoft-com:datatypes""><Description dt:dt=""string"">E-Prime Primary Realtime Clock</Description><StartTime><Timestamp dt:dt=""int"">0</Timestamp><DateUtc dt:dt=""string"">2018-10-25T19:02:10Z</DateUtc></StartTime><FrequencyChanges><FrequencyChange><Frequency dt:dt=""r8"">3215273</Frequency><Timestamp dt:dt=""r8"">1598813927096</Timestamp><Current dt:dt=""r8"">0</Current><DateUtc dt:dt=""string"">2018-10-25T19:02:10Z</DateUtc></FrequencyChange></FrequencyChanges></Clock>\n",KW_Experiment5A-42-1,59.946,1.0.0.105,1,1086733241,Professional,2.0.10.353,2.0.10.353,10/25/2018,10/25/2018 19:02,15:02:11,2.0.10.248,2,2,1,2,,,,,,,,TrainingProc,BlockList,37,1,Distractor2.bmp,2,0,,0,1,226018,401,,0,0,purple,400,1,400,5,vertical,purple,Distractor2.bmp,red,Distractor2.bmp,lime,Target1.bmp,yellow,Distractor2.bmp,cyan,Distractor2.bmp,blue,Distractor2.bmp,,,,TrialProc,,TrainingTrialList,1,1,-999999,1,226419,0,1,1278,227697,Target1.bmp,lime,1,,,,3,2,37
KW_Experiment5A,42,1,"<?xml version=""1.0""?>\n<Clock xmlns:dt=""urn:schemas-microsoft-com:datatypes""><Description dt:dt=""string"">E-Prime Primary Realtime Clock</Description><StartTime><Timestamp dt:dt=""int"">0</Timestamp><DateUtc dt:dt=""string"">2018-10-25T19:02:10Z</DateUtc></StartTime><FrequencyChanges><FrequencyChange><Frequency dt:dt=""r8"">3215273</Frequency><Timestamp dt:dt=""r8"">1598813927096</Timestamp><Current dt:dt=""r8"">0</Current><DateUtc dt:dt=""string"">2018-10-25T19:02:10Z</DateUtc></FrequencyChange></FrequencyChanges></Clock>\n",KW_Experiment5A-42-1,59.946,1.0.0.105,1,1086733241,Professional,2.0.10.353,2.0.10.353,10/25/2018,10/25/2018 19:02,15:02:11,2.0.10.248,2,2,1,2,,,,,,,,TrainingProc,BlockList,38,1,Distractor1.bmp,1,0,,0,1,228721,400,,0,0,blue,400,1,400,,vertical,blue,Distractor1.bmp,lime,Distractor2.bmp,red,Target1.bmp,cyan,Distractor1.bmp,yellow,Distractor2.bmp,purple,Distractor2.bmp,,,,TrialProc,3,TrainingTrialList,1,1,-999999,0,229121,0,1,512,229633,Target1.bmp,red,1,,,,9,2,38
KW_Experiment5A,42,1,"<?xml version=""1.0""?>\n<Clock xmlns:dt=""urn:schemas-microsoft-com:datatypes""><Description dt:dt=""string"">E-Prime Primary Realtime Clock</Description><StartTime><Timestamp dt:dt=""int"">0</Timestamp><DateUtc dt:dt=""string"">2018-10-25T19:02:10Z</DateUtc></StartTime><FrequencyChanges><FrequencyChange><Frequency dt:dt=""r8"">3215273</Frequency><Timestamp dt:dt=""r8"">1598813927096</Timestamp><Current dt:dt=""r8"">0</Current><DateUtc dt:dt=""string"">2018-10-25T19:02:10Z</DateUtc></FrequencyChange></FrequencyChanges></Clock>\n",KW_Experiment5A-42-1,59.946,1.0.0.105,1,1086733241,Professional,2.0.10.353,2.0.10.353,10/25/2018,10/25/2018 19:02,15:02:11,2.0.10.248,2,2,1,2,,,,,,,,TrainingProc,BlockList,39,2,Distractor1.bmp,1,0,,0,1,230656,400,,0,0,blue,400,1,400,3,horizontal,blue,Distractor1.bmp,cyan,Distractor2.bmp,purple,Distractor1.bmp,red,Distractor2.bmp,yellow,Distractor1.bmp,lime,Target2.bmp,,,,TrialProc,,TrainingTrialList,1,2,-999999,0,231056,0,2,1257,232313,Target2.bmp,lime,2,,,,6,2,39
KW_Experiment5A,42,1,"<?xml version=""1.0""?>\n<Clock xmlns:dt=""urn:schemas-microsoft-com:datatypes""><Description dt:dt=""string"">E-Prime Primary Realtime Clock</Description><StartTime><Timestamp dt:dt=""int"">0</Timestamp><DateUtc dt:dt=""string"">2018-10-25T19:02:10Z</DateUtc></StartTime><FrequencyChanges><FrequencyChange><Frequency dt:dt=""r8"">3215273</Frequency><Timestamp dt:dt=""r8"">1598813927096</Timestamp><Current dt:dt=""r8"">0</Current><DateUtc dt:dt=""string"">2018-10-25T19:02:10Z</DateUtc></FrequencyChange></FrequencyChanges></Clock>\n",KW_Experiment5A-42-1,59.946,1.0.0.105,1,1086733241,Professional,2.0.10.353,2.0.10.353,10/25/2018,10/25/2018 19:02,15:02:11,2.0.10.248,2,2,1,2,,,,,,,,TrainingProc,BlockList,40,1,Distractor2.bmp,2,0,,0,1,233325,600,,0,0,purple,600,3,600,5,vertical,purple,Distractor2.bmp,yellow,Distractor2.bmp,cyan,Distractor1.bmp,lime,Target1.bmp,blue,Distractor2.bmp,red,Distractor2.bmp,,,,TrialProc,,TrainingTrialList,1,1,-999999,0,233925,0,1,980,234905,Target1.bmp,lime,1,,,,4,2,40
KW_Experiment5A,42,1,"<?xml version=""1.0""?>\n<Clock xmlns:dt=""urn:schemas-microsoft-com:datatypes""><Description dt:dt=""string"">E-Prime Primary Realtime Clock</Description><StartTime><Timestamp dt:dt=""int"">0</Timestamp><DateUtc dt:dt=""string"">2018-10-25T19:02:10Z</DateUtc></StartTime><FrequencyChanges><FrequencyChange><Frequency dt:dt=""r8"">3215273</Frequency><Timestamp dt:dt=""r8"">1598813927096</Timestamp><Current dt:dt=""r8"">0</Current><DateUtc dt:dt=""string"">2018-10-25T19:02:10Z</DateUtc></FrequencyChange></FrequencyChanges></Clock>\n",KW_Experiment5A-42-1,59.946,1.0.0.105,1,1086733241,Professional,2.0.10.353,2.0.10.353,10/25/2018,10/25/2018 19:02,15:02:11,2.0.10.248,2,2,1,2,,,,,,,,TrainingProc,BlockList,41,2,Distractor2.bmp,2,0,,0,1,235927,501,,0,0,cyan,500,2,500,4,horizontal,cyan,Distractor2.bmp,yellow,Distractor2.bmp,purple,Distractor1.bmp,red,Distractor1.bmp,blue,Distractor2.bmp,lime,Target2.bmp,,,,TrialProc,,TrainingTrialList,1,2,-999999,1,236428,0,2,589,237017,Target2.bmp,lime,2,,,,6,2,41
KW_Experiment5A,42,1,"<?xml version=""1.0""?>\n<Clock xmlns:dt=""urn:schemas-microsoft-com:datatypes""><Description dt:dt=""string"">E-Prime Primary Realtime Clock</Description><StartTime><Timestamp dt:dt=""int"">0</Timestamp><DateUtc dt:dt=""string"">2018-10-25T19:02:10Z</DateUtc></StartTime><FrequencyChanges><FrequencyChange><Frequency dt:dt=""r8"">3215273</Frequency><Timestamp dt:dt=""r8"">1598813927096</Timestamp><Current dt:dt=""r8"">0</Current><DateUtc dt:dt=""string"">2018-10-25T19:02:10Z</DateUtc></FrequencyChange></FrequencyChanges></Clock>\n",KW_Experiment5A-42-1,59.946,1.0.0.105,1,1086733241,Professional,2.0.10.353,2.0.10.353,10/25/2018,10/25/2018 19:02,15:02:11,2.0.10.248,2,2,1,2,,,,,,,,TrainingProc,BlockList,42,2,Distractor1.bmp,1,0,,0,1,238029,401,,0,0,blue,400,1,400,,horizontal,blue,Distractor1.bmp,purple,Distractor1.bmp,lime,Distractor2.bmp,yellow,Distractor2.bmp,red,Target2.bmp,cyan,Distractor1.bmp,,,,TrialProc,3,TrainingTrialList,1,2,-999999,1,238430,0,2,819,239249,Target2.bmp,red,2,,,,11,2,42
KW_Experiment5A,42,1,"<?xml version=""1.0""?>\n<Clock xmlns:dt=""urn:schemas-microsoft-com:datatypes""><Description dt:dt=""string"">E-Prime Primary Realtime Clock</Description><StartTime><Timestamp dt:dt=""int"">0</Timestamp><DateUtc dt:dt=""string"">2018-10-25T19:02:10Z</DateUtc></StartTime><FrequencyChanges><FrequencyChange><Frequency dt:dt=""r8"">3215273</Frequency><Timestamp dt:dt=""r8"">1598813927096</Timestamp><Current dt:dt=""r8"">0</Current><DateUtc dt:dt=""string"">2018-10-25T19:02:10Z</DateUtc></FrequencyChange></FrequencyChanges></Clock>\n",KW_Experiment5A-42-1,59.946,1.0.0.105,1,1086733241,Professional,2.0.10.353,2.0.10.353,10/25/2018,10/25/2018 19:02,15:02:11,2.0.10.248,2,2,1,2,,,,,,,,TrainingProc,BlockList,43,2,Distractor2.bmp,2,0,,0,1,240265,600,,0,0,blue,600,3,600,3,horizontal,blue,Distractor1.bmp,purple,Distractor1.bmp,lime,Target2.bmp,cyan,Distractor2.bmp,yellow,Distractor1.bmp,red,Distractor2.bmp,,,,TrialProc,,TrainingTrialList,0,2,-999999,0,240865,0,1,832,241697,Target2.bmp,lime,2,,,,3,2,43
KW_Experiment5A,42,1,"<?xml version=""1.0""?>\n<Clock xmlns:dt=""urn:schemas-microsoft-com:datatypes""><Description dt:dt=""string"">E-Prime Primary Realtime Clock</Description><StartTime><Timestamp dt:dt=""int"">0</Timestamp><DateUtc dt:dt=""string"">2018-10-25T19:02:10Z</DateUtc></StartTime><FrequencyChanges><FrequencyChange><Frequency dt:dt=""r8"">3215273</Frequency><Timestamp dt:dt=""r8"">1598813927096</Timestamp><Current dt:dt=""r8"">0</Current><DateUtc dt:dt=""string"">2018-10-25T19:02:10Z</DateUtc></FrequencyChange></FrequencyChanges></Clock>\n",KW_Experiment5A-42-1,59.946,1.0.0.105,1,1086733241,Professional,2.0.10.353,2.0.10.353,10/25/2018,10/25/2018 19:02,15:02:11,2.0.10.248,2,2,1,2,,,,,,,,TrainingProc,BlockList,44,1,Distractor1.bmp,1,0,,0,1,242717,600,,0,0,purple,600,3,600,,vertical,red,Target1.bmp,cyan,Distractor1.bmp,yellow,Distractor2.bmp,lime,Distractor1.bmp,blue,Distractor1.bmp,purple,Distractor2.bmp,,,,TrialProc,5,TrainingTrialList,0,1,-999999,0,243317,0,2,1100,244417,Target1.bmp,red,1,,,,7,2,44
KW_Experiment5A,42,1,"<?xml version=""1.0""?>\n<Clock xmlns:dt=""urn:schemas-microsoft-com:datatypes""><Description dt:dt=""string"">E-Prime Primary Realtime Clock</Description><StartTime><Timestamp dt:dt=""int"">0</Timestamp><DateUtc dt:dt=""string"">2018-10-25T19:02:10Z</DateUtc></StartTime><FrequencyChanges><FrequencyChange><Frequency dt:dt=""r8"">3215273</Frequency><Timestamp dt:dt=""r8"">1598813927096</Timestamp><Current dt:dt=""r8"">0</Current><DateUtc dt:dt=""string"">2018-10-25T19:02:10Z</DateUtc></FrequencyChange></FrequencyChanges></Clock>\n",KW_Experiment5A-42-1,59.946,1.0.0.105,1,1086733241,Professional,2.0.10.353,2.0.10.353,10/25/2018,10/25/2018 19:02,15:02:11,2.0.10.248,2,2,1,2,,,,,,,,TrainingProc,BlockList,45,1,Distractor2.bmp,2,0,,0,1,245436,500,,0,0,blue,500,2,500,,vertical,blue,Distractor2.bmp,lime,Distractor1.bmp,yellow,Distractor2.bmp,cyan,Distractor2.bmp,purple,Distractor1.bmp,red,Target1.bmp,,,,TrialProc,3,TrainingTrialList,1,1,-999999,0,245936,0,1,585,246521,Target1.bmp,red,1,,,,12,2,45
KW_Experiment5A,42,1,"<?xml version=""1.0""?>\n<Clock xmlns:dt=""urn:schemas-microsoft-com:datatypes""><Description dt:dt=""string"">E-Prime Primary Realtime Clock</Description><StartTime><Timestamp dt:dt=""int"">0</Timestamp><DateUtc dt:dt=""string"">2018-10-25T19:02:10Z</DateUtc></StartTime><FrequencyChanges><FrequencyChange><Frequency dt:dt=""r8"">3215273</Frequency><Timestamp dt:dt=""r8"">1598813927096</Timestamp><Current dt:dt=""r8"">0</Current><DateUtc dt:dt=""string"">2018-10-25T19:02:10Z</DateUtc></FrequencyChange></FrequencyChanges></Clock>\n",KW_Experiment5A-42-1,59.946,1.0.0.105,1,1086733241,Professional,2.0.10.353,2.0.10.353,10/25/2018,10/25/2018 19:02,15:02:11,2.0.10.248,2,2,1,2,,,,,,,,TrainingProc,BlockList,46,1,Distractor1.bmp,1,0,,0,1,247538,500,,0,0,yellow,500,2,500,2,vertical,lime,Target1.bmp,yellow,Distractor1.bmp,red,Distractor1.bmp,cyan,Distractor1.bmp,blue,Distractor2.bmp,purple,Distractor2.bmp,,,,TrialProc,,TrainingTrialList,1,1,-999999,0,248038,0,1,531,248569,Target1.bmp,lime,1,,,,1,2,46
KW_Experiment5A,42,1,"<?xml version=""1.0""?>\n<Clock xmlns:dt=""urn:schemas-microsoft-com:datatypes""><Description dt:dt=""string"">E-Prime Primary Realtime Clock</Description><StartTime><Timestamp dt:dt=""int"">0</Timestamp><DateUtc dt:dt=""string"">2018-10-25T19:02:10Z</DateUtc></StartTime><FrequencyChanges><FrequencyChange><Frequency dt:dt=""r8"">3215273</Frequency><Timestamp dt:dt=""r8"">1598813927096</Timestamp><Current dt:dt=""r8"">0</Current><DateUtc dt:dt=""string"">2018-10-25T19:02:10Z</DateUtc></FrequencyChange></FrequencyChanges></Clock>\n",KW_Experiment5A-42-1,59.946,1.0.0.105,1,1086733241,Professional,2.0.10.353,2.0.10.353,10/25/2018,10/25/2018 19:02,15:02:11,2.0.10.248,2,2,1,2,,,,,,,,TrainingProc,BlockList,47,1,Distractor2.bmp,2,0,,0,1,249590,400,,0,0,red,400,1,400,1,vertical,red,Distractor2.bmp,cyan,Distractor1.bmp,yellow,Distractor2.bmp,purple,Distractor2.bmp,lime,Target1.bmp,blue,Distractor2.bmp,,,,TrialProc,,TrainingTrialList,1,1,-999999,0,249990,0,1,1115,251105,Target1.bmp,lime,1,,,,5,2,47
KW_Experiment5A,42,1,"<?xml version=""1.0""?>\n<Clock xmlns:dt=""urn:schemas-microsoft-com:datatypes""><Description dt:dt=""string"">E-Prime Primary Realtime Clock</Description><StartTime><Timestamp dt:dt=""int"">0</Timestamp><DateUtc dt:dt=""string"">2018-10-25T19:02:10Z</DateUtc></StartTime><FrequencyChanges><FrequencyChange><Frequency dt:dt=""r8"">3215273</Frequency><Timestamp dt:dt=""r8"">1598813927096</Timestamp><Current dt:dt=""r8"">0</Current><DateUtc dt:dt=""string"">2018-10-25T19:02:10Z</DateUtc></FrequencyChange></FrequencyChanges></Clock>\n",KW_Experiment5A-42-1,59.946,1.0.0.105,1,1086733241,Professional,2.0.10.353,2.0.10.353,10/25/2018,10/25/2018 19:02,15:02:11,2.0.10.248,2,2,1,2,,,,,,,,TrainingProc,BlockList,48,2,Distractor2.bmp,2,0,,0,0,252125,601,,0,0,yellow,600,3,600,2,horizontal,lime,Target2.bmp,yellow,Distractor2.bmp,cyan,Distractor2.bmp,red,Distractor2.bmp,purple,Distractor2.bmp,blue,Distractor2.bmp,,,,TrialProc,,TrainingTrialList,1,2,-999999,1,252726,0,2,587,253313,Target2.bmp,lime,2,,,,1,2,48
KW_Experiment5A,42,1,"<?xml version=""1.0""?>\n<Clock xmlns:dt=""urn:schemas-microsoft-com:datatypes""><Description dt:dt=""string"">E-Prime Primary Realtime Clock</Description><StartTime><Timestamp dt:dt=""int"">0</Timestamp><DateUtc dt:dt=""string"">2018-10-25T19:02:10Z</DateUtc></StartTime><FrequencyChanges><FrequencyChange><Frequency dt:dt=""r8"">3215273</Frequency><Timestamp dt:dt=""r8"">1598813927096</Timestamp><Current dt:dt=""r8"">0</Current><DateUtc dt:dt=""string"">2018-10-25T19:02:10Z</DateUtc></FrequencyChange></FrequencyChanges></Clock>\n",KW_Experiment5A-42-1,59.946,1.0.0.105,1,1086733241,Professional,2.0.10.353,2.0.10.353,10/25/2018,10/25/2018 19:02,15:02:11,2.0.10.248,3,2,1,3,,,,,,,,TrainingProc,BlockList,1,2,Distractor2.bmp,2,0,,0,24,256129,601,,0,0,red,600,3,600,1,horizontal,red,Distractor2.bmp,yellow,Distractor2.bmp,cyan,Distractor2.bmp,purple,Distractor1.bmp,lime,Target2.bmp,blue,Distractor2.bmp,,,,TrialProc,,TrainingTrialList,1,2,-999999,1,256730,0,2,911,257641,Target2.bmp,lime,2,,,,5,3,49
KW_Experiment5A,42,1,"<?xml version=""1.0""?>\n<Clock xmlns:dt=""urn:schemas-microsoft-com:datatypes""><Description dt:dt=""string"">E-Prime Primary Realtime Clock</Description><StartTime><Timestamp dt:dt=""int"">0</Timestamp><DateUtc dt:dt=""string"">2018-10-25T19:02:10Z</DateUtc></StartTime><FrequencyChanges><FrequencyChange><Frequency dt:dt=""r8"">3215273</Frequency><Timestamp dt:dt=""r8"">1598813927096</Timestamp><Current dt:dt=""r8"">0</Current><DateUtc dt:dt=""string"">2018-10-25T19:02:10Z</DateUtc></FrequencyChange></FrequencyChanges></Clock>\n",KW_Experiment5A-42-1,59.946,1.0.0.105,1,1086733241,Professional,2.0.10.353,2.0.10.353,10/25/2018,10/25/2018 19:02,15:02:11,2.0.10.248,3,2,1,3,,,,,,,,TrainingProc,BlockList,2,1,Distractor1.bmp,1,0,,0,1,258665,400,,0,0,red,400,1,400,1,vertical,red,Distractor1.bmp,cyan,Distractor2.bmp,lime,Target1.bmp,blue,Distractor1.bmp,purple,Distractor1.bmp,yellow,Distractor1.bmp,,,,TrialProc,,TrainingTrialList,1,1,-999999,0,259065,0,1,1120,260185,Target1.bmp,lime,1,,,,3,3,50
KW_Experiment5A,42,1,"<?xml version=""1.0""?>\n<Clock xmlns:dt=""urn:schemas-microsoft-com:datatypes""><Description dt:dt=""string"">E-Prime Primary Realtime Clock</Description><StartTime><Timestamp dt:dt=""int"">0</Timestamp><DateUtc dt:dt=""string"">2018-10-25T19:02:10Z</DateUtc></StartTime><FrequencyChanges><FrequencyChange><Frequency dt:dt=""r8"">3215273</Frequency><Timestamp dt:dt=""r8"">1598813927096</Timestamp><Current dt:dt=""r8"">0</Current><DateUtc dt:dt=""string"">2018-10-25T19:02:10Z</DateUtc></FrequencyChange></FrequencyChanges></Clock>\n",KW_Experiment5A-42-1,59.946,1.0.0.105,1,1086733241,Professional,2.0.10.353,2.0.10.353,10/25/2018,10/25/2018 19:02,15:02:11,2.0.10.248,3,2,1,3,,,,,,,,TrainingProc,BlockList,3,1,Distractor1.bmp,1,0,,0,1,261200,501,,0,0,purple,500,2,500,,vertical,purple,Distractor1.bmp,yellow,Distractor1.bmp,red,Target1.bmp,cyan,Distractor1.bmp,lime,Distractor2.bmp,blue,Distractor1.bmp,,,,TrialProc,5,TrainingTrialList,1,1,-999999,1,261701,0,1,1308,263009,Target1.bmp,red,1,,,,9,3,51
KW_Experiment5A,42,1,"<?xml version=""1.0""?>\n<Clock xmlns:dt=""urn:schemas-microsoft-com:datatypes""><Description dt:dt=""string"">E-Prime Primary Realtime Clock</Description><StartTime><Timestamp dt:dt=""int"">0</Timestamp><DateUtc dt:dt=""string"">2018-10-25T19:02:10Z</DateUtc></StartTime><FrequencyChanges><FrequencyChange><Frequency dt:dt=""r8"">3215273</Frequency><Timestamp dt:dt=""r8"">1598813927096</Timestamp><Current dt:dt=""r8"">0</Current><DateUtc dt:dt=""string"">2018-10-25T19:02:10Z</DateUtc></FrequencyChange></FrequencyChanges></Clock>\n",KW_Experiment5A-42-1,59.946,1.0.0.105,1,1086733241,Professional,2.0.10.353,2.0.10.353,10/25/2018,10/25/2018 19:02,15:02:11,2.0.10.248,3,2,1,3,,,,,,,,TrainingProc,BlockList,4,1,Distractor2.bmp,2,0,,0,1,264020,500,,0,0,red,500,2,500,1,vertical,red,Distractor2.bmp,cyan,Distractor1.bmp,yellow,Distractor1.bmp,lime,Target1.bmp,blue,Distractor2.bmp,purple,Distractor1.bmp,,,,TrialProc,,TrainingTrialList,1,1,-999999,0,264520,0,1,697,265217,Target1.bmp,lime,1,,,,4,3,52
KW_Experiment5A,42,1,"<?xml version=""1.0""?>\n<Clock xmlns:dt=""urn:schemas-microsoft-com:datatypes""><Description dt:dt=""string"">E-Prime Primary Realtime Clock</Description><StartTime><Timestamp dt:dt=""int"">0</Timestamp><DateUtc dt:dt=""string"">2018-10-25T19:02:10Z</DateUtc></StartTime><FrequencyChanges><FrequencyChange><Frequency dt:dt=""r8"">3215273</Frequency><Timestamp dt:dt=""r8"">1598813927096</Timestamp><Current dt:dt=""r8"">0</Current><DateUtc dt:dt=""string"">2018-10-25T19:02:10Z</DateUtc></FrequencyChange></FrequencyChanges></Clock>\n",KW_Experiment5A-42-1,59.946,1.0.0.105,1,1086733241,Professional,2.0.10.353,2.0.10.353,10/25/2018,10/25/2018 19:02,15:02:11,2.0.10.248,3,2,1,3,,,,,,,,TrainingProc,BlockList,5,2,Distractor1.bmp,1,0,,0,1,266238,401,,0,0,blue,400,1,400,3,horizontal,blue,Distractor1.bmp,lime,Target2.bmp,yellow,Distractor1.bmp,cyan,Distractor1.bmp,purple,Distractor1.bmp,red,Distractor2.bmp,,,,TrialProc,,TrainingTrialList,1,2,-999999,1,266639,0,2,418,267057,Target2.bmp,lime,2,,,,2,3,53
KW_Experiment5A,42,1,"<?xml version=""1.0""?>\n<Clock xmlns:dt=""urn:schemas-microsoft-com:datatypes""><Description dt:dt=""string"">E-Prime Primary Realtime Clock</Description><StartTime><Timestamp dt:dt=""int"">0</Timestamp><DateUtc dt:dt=""string"">2018-10-25T19:02:10Z</DateUtc></StartTime><FrequencyChanges><FrequencyChange><Frequency dt:dt=""r8"">3215273</Frequency><Timestamp dt:dt=""r8"">1598813927096</Timestamp><Current dt:dt=""r8"">0</Current><DateUtc dt:dt=""string"">2018-10-25T19:02:10Z</DateUtc></FrequencyChange></FrequencyChanges></Clock>\n",KW_Experiment5A-42-1,59.946,1.0.0.105,1,1086733241,Professional,2.0.10.353,2.0.10.353,10/25/2018,10/25/2018 19:02,15:02:11,2.0.10.248,3,2,1,3,,,,,,,,TrainingProc,BlockList,6,1,Distractor1.bmp,1,0,,0,1,268073,601,,0,0,cyan,600,3,600,4,vertical,cyan,Distractor1.bmp,yellow,Distractor1.bmp,blue,Distractor1.bmp,purple,Distractor1.bmp,lime,Target1.bmp,red,Distractor1.bmp,,,,TrialProc,,TrainingTrialList,1,1,-999999,1,268674,0,1,430,269104,Target1.bmp,lime,1,,,,5,3,54
KW_Experiment5A,42,1,"<?xml version=""1.0""?>\n<Clock xmlns:dt=""urn:schemas-microsoft-com:datatypes""><Description dt:dt=""string"">E-Prime Primary Realtime Clock</Description><StartTime><Timestamp dt:dt=""int"">0</Timestamp><DateUtc dt:dt=""string"">2018-10-25T19:02:10Z</DateUtc></StartTime><FrequencyChanges><FrequencyChange><Frequency dt:dt=""r8"">3215273</Frequency><Timestamp dt:dt=""r8"">1598813927096</Timestamp><Current dt:dt=""r8"">0</Current><DateUtc dt:dt=""string"">2018-10-25T19:02:10Z</DateUtc></FrequencyChange></FrequencyChanges></Clock>\n",KW_Experiment5A-42-1,59.946,1.0.0.105,1,1086733241,Professional,2.0.10.353,2.0.10.353,10/25/2018,10/25/2018 19:02,15:02:11,2.0.10.248,3,2,1,3,,,,,,,,TrainingProc,BlockList,7,1,Distractor2.bmp,2,0,,0,1,270125,601,,0,0,purple,600,3,600,5,vertical,purple,Distractor2.bmp,red,Distractor1.bmp,lime,Target1.bmp,yellow,Distractor2.bmp,cyan,Distractor1.bmp,blue,Distractor1.bmp,,,,TrialProc,,TrainingTrialList,0,1,-999999,1,270726,0,2,594,271320,Target1.bmp,lime,1,,,,3,3,55
KW_Experiment5A,42,1,"<?xml version=""1.0""?>\n<Clock xmlns:dt=""urn:schemas-microsoft-com:datatypes""><Description dt:dt=""string"">E-Prime Primary Realtime Clock</Description><StartTime><Timestamp dt:dt=""int"">0</Timestamp><DateUtc dt:dt=""string"">2018-10-25T19:02:10Z</DateUtc></StartTime><FrequencyChanges><FrequencyChange><Frequency dt:dt=""r8"">3215273</Frequency><Timestamp dt:dt=""r8"">1598813927096</Timestamp><Current dt:dt=""r8"">0</Current><DateUtc dt:dt=""string"">2018-10-25T19:02:10Z</DateUtc></FrequencyChange></FrequencyChanges></Clock>\n",KW_Experiment5A-42-1,59.946,1.0.0.105,1,1086733241,Professional,2.0.10.353,2.0.10.353,10/25/2018,10/25/2018 19:02,15:02:11,2.0.10.248,3,2,1,3,,,,,,,,TrainingProc,BlockList,8,2,Distractor1.bmp,1,0,,0,1,272344,400,,0,0,yellow,400,1,400,2,horizontal,yellow,Distractor1.bmp,purple,Distractor1.bmp,cyan,Distractor1.bmp,blue,Distractor1.bmp,red,Distractor1.bmp,lime,Target2.bmp,,,,TrialProc,,TrainingTrialList,0,2,-999999,0,272744,0,1,448,273192,Target2.bmp,lime,2,,,,6,3,56
KW_Experiment5A,42,1,"<?xml version=""1.0""?>\n<Clock xmlns:dt=""urn:schemas-microsoft-com:datatypes""><Description dt:dt=""string"">E-Prime Primary Realtime Clock</Description><StartTime><Timestamp dt:dt=""int"">0</Timestamp><DateUtc dt:dt=""string"">2018-10-25T19:02:10Z</DateUtc></StartTime><FrequencyChanges><FrequencyChange><Frequency dt:dt=""r8"">3215273</Frequency><Timestamp dt:dt=""r8"">1598813927096</Timestamp><Current dt:dt=""r8"">0</Current><DateUtc dt:dt=""string"">2018-10-25T19:02:10Z</DateUtc></FrequencyChange></FrequencyChanges></Clock>\n",KW_Experiment5A-42-1,59.946,1.0.0.105,1,1086733241,Professional,2.0.10.353,2.0.10.353,10/25/2018,10/25/2018 19:02,15:02:11,2.0.10.248,3,2,1,3,,,,,,,,TrainingProc,BlockList,9,2,Distractor2.bmp,2,0,,0,1,274212,601,,0,0,blue,600,3,600,3,horizontal,blue,Distractor1.bmp,cyan,Distractor2.bmp,purple,Distractor2.bmp,lime,Target2.bmp,yellow,Distractor2.bmp,red,Distractor1.bmp,,,,TrialProc,,TrainingTrialList,1,2,-999999,1,274813,0,2,731,275544,Target2.bmp,lime,2,,,,4,3,57
KW_Experiment5A,42,1,"<?xml version=""1.0""?>\n<Clock xmlns:dt=""urn:schemas-microsoft-com:datatypes""><Description dt:dt=""string"">E-Prime Primary Realtime Clock</Description><StartTime><Timestamp dt:dt=""int"">0</Timestamp><DateUtc dt:dt=""string"">2018-10-25T19:02:10Z</DateUtc></StartTime><FrequencyChanges><FrequencyChange><Frequency dt:dt=""r8"">3215273</Frequency><Timestamp dt:dt=""r8"">1598813927096</Timestamp><Current dt:dt=""r8"">0</Current><DateUtc dt:dt=""string"">2018-10-25T19:02:10Z</DateUtc></FrequencyChange></FrequencyChanges></Clock>\n",KW_Experiment5A-42-1,59.946,1.0.0.105,1,1086733241,Professional,2.0.10.353,2.0.10.353,10/25/2018,10/25/2018 19:02,15:02:11,2.0.10.248,3,2,1,3,,,,,,,,TrainingProc,BlockList,10,1,Distractor1.bmp,1,0,,1,0,276564,601,,0,0,red,600,3,600,1,vertical,lime,Target1.bmp,red,Distractor1.bmp,yellow,Distractor1.bmp,blue,Distractor1.bmp,cyan,Distractor2.bmp,purple,Distractor2.bmp,,,,TrialProc,,TrainingTrialList,1,1,-999999,1,277165,0,1,459,277624,Target1.bmp,lime,1,,,,1,3,58
KW_Experiment5A,42,1,"<?xml version=""1.0""?>\n<Clock xmlns:dt=""urn:schemas-microsoft-com:datatypes""><Description dt:dt=""string"">E-Prime Primary Realtime Clock</Description><StartTime><Timestamp dt:dt=""int"">0</Timestamp><DateUtc dt:dt=""string"">2018-10-25T19:02:10Z</DateUtc></StartTime><FrequencyChanges><FrequencyChange><Frequency dt:dt=""r8"">3215273</Frequency><Timestamp dt:dt=""r8"">1598813927096</Timestamp><Current dt:dt=""r8"">0</Current><DateUtc dt:dt=""string"">2018-10-25T19:02:10Z</DateUtc></FrequencyChange></FrequencyChanges></Clock>\n",KW_Experiment5A-42-1,59.946,1.0.0.105,1,1086733241,Professional,2.0.10.353,2.0.10.353,10/25/2018,10/25/2018 19:02,15:02:11,2.0.10.248,3,2,1,3,,,,,,,,TrainingProc,BlockList,11,2,Distractor1.bmp,1,0,,0,1,278650,600,,0,0,cyan,600,3,600,4,horizontal,cyan,Distractor1.bmp,blue,Distractor1.bmp,red,Distractor1.bmp,purple,Distractor1.bmp,yellow,Distractor1.bmp,lime,Target2.bmp,,,,TrialProc,,TrainingTrialList,1,2,-999999,0,279250,0,2,486,279736,Target2.bmp,lime,2,,,,6,3,59
KW_Experiment5A,42,1,"<?xml version=""1.0""?>\n<Clock xmlns:dt=""urn:schemas-microsoft-com:datatypes""><Description dt:dt=""string"">E-Prime Primary Realtime Clock</Description><StartTime><Timestamp dt:dt=""int"">0</Timestamp><DateUtc dt:dt=""string"">2018-10-25T19:02:10Z</DateUtc></StartTime><FrequencyChanges><FrequencyChange><Frequency dt:dt=""r8"">3215273</Frequency><Timestamp dt:dt=""r8"">1598813927096</Timestamp><Current dt:dt=""r8"">0</Current><DateUtc dt:dt=""string"">2018-10-25T19:02:10Z</DateUtc></FrequencyChange></FrequencyChanges></Clock>\n",KW_Experiment5A-42-1,59.946,1.0.0.105,1,1086733241,Professional,2.0.10.353,2.0.10.353,10/25/2018,10/25/2018 19:02,15:02:11,2.0.10.248,3,2,1,3,,,,,,,,TrainingProc,BlockList,12,1,Distractor2.bmp,2,0,,0,1,280752,600,,0,0,lime,600,3,600,,vertical,lime,Distractor1.bmp,purple,Distractor2.bmp,yellow,Distractor2.bmp,blue,Distractor2.bmp,red,Target1.bmp,cyan,Distractor2.bmp,,,,TrialProc,6,TrainingTrialList,1,1,-999999,0,281352,0,1,728,282080,Target1.bmp,red,1,,,,11,3,60
KW_Experiment5A,42,1,"<?xml version=""1.0""?>\n<Clock xmlns:dt=""urn:schemas-microsoft-com:datatypes""><Description dt:dt=""string"">E-Prime Primary Realtime Clock</Description><StartTime><Timestamp dt:dt=""int"">0</Timestamp><DateUtc dt:dt=""string"">2018-10-25T19:02:10Z</DateUtc></StartTime><FrequencyChanges><FrequencyChange><Frequency dt:dt=""r8"">3215273</Frequency><Timestamp dt:dt=""r8"">1598813927096</Timestamp><Current dt:dt=""r8"">0</Current><DateUtc dt:dt=""string"">2018-10-25T19:02:10Z</DateUtc></FrequencyChange></FrequencyChanges></Clock>\n",KW_Experiment5A-42-1,59.946,1.0.0.105,1,1086733241,Professional,2.0.10.353,2.0.10.353,10/25/2018,10/25/2018 19:02,15:02:11,2.0.10.248,3,2,1,3,,,,,,,,TrainingProc,BlockList,13,2,Distractor2.bmp,2,0,,0,1,283104,400,,0,0,cyan,400,1,400,4,horizontal,cyan,Distractor2.bmp,blue,Distractor1.bmp,red,Distractor1.bmp,lime,Target2.bmp,yellow,Distractor2.bmp,purple,Distractor1.bmp,,,,TrialProc,,TrainingTrialList,0,2,-999999,0,283504,0,1,856,284360,Target2.bmp,lime,2,,,,4,3,61
KW_Experiment5A,42,1,"<?xml version=""1.0""?>\n<Clock xmlns:dt=""urn:schemas-microsoft-com:datatypes""><Description dt:dt=""string"">E-Prime Primary Realtime Clock</Description><StartTime><Timestamp dt:dt=""int"">0</Timestamp><DateUtc dt:dt=""string"">2018-10-25T19:02:10Z</DateUtc></StartTime><FrequencyChanges><FrequencyChange><Frequency dt:dt=""r8"">3215273</Frequency><Timestamp dt:dt=""r8"">1598813927096</Timestamp><Current dt:dt=""r8"">0</Current><DateUtc dt:dt=""string"">2018-10-25T19:02:10Z</DateUtc></FrequencyChange></FrequencyChanges></Clock>\n",KW_Experiment5A-42-1,59.946,1.0.0.105,1,1086733241,Professional,2.0.10.353,2.0.10.353,10/25/2018,10/25/2018 19:02,15:02:11,2.0.10.248,3,2,1,3,,,,,,,,TrainingProc,BlockList,14,1,Distractor1.bmp,1,0,,0,1,285373,500,,0,0,cyan,500,2,500,4,vertical,cyan,Distractor1.bmp,lime,Target1.bmp,yellow,Distractor1.bmp,purple,Distractor2.bmp,red,Distractor2.bmp,blue,Distractor1.bmp,,,,TrialProc,,TrainingTrialList,1,1,-999999,0,285873,0,1,719,286592,Target1.bmp,lime,1,,,,2,3,62
KW_Experiment5A,42,1,"<?xml version=""1.0""?>\n<Clock xmlns:dt=""urn:schemas-microsoft-com:datatypes""><Description dt:dt=""string"">E-Prime Primary Realtime Clock</Description><StartTime><Timestamp dt:dt=""int"">0</Timestamp><DateUtc dt:dt=""string"">2018-10-25T19:02:10Z</DateUtc></StartTime><FrequencyChanges><FrequencyChange><Frequency dt:dt=""r8"">3215273</Frequency><Timestamp dt:dt=""r8"">1598813927096</Timestamp><Current dt:dt=""r8"">0</Current><DateUtc dt:dt=""string"">2018-10-25T19:02:10Z</DateUtc></FrequencyChange></FrequencyChanges></Clock>\n",KW_Experiment5A-42-1,59.946,1.0.0.105,1,1086733241,Professional,2.0.10.353,2.0.10.353,10/25/2018,10/25/2018 19:02,15:02:11,2.0.10.248,3,2,1,3,,,,,,,,TrainingProc,BlockList,15,2,Distractor2.bmp,2,0,,0,1,287608,500,,0,0,yellow,500,2,500,2,horizontal,yellow,Distractor2.bmp,red,Distractor1.bmp,blue,Distractor2.bmp,cyan,Distractor2.bmp,purple,Distractor1.bmp,lime,Target2.bmp,,,,TrialProc,,TrainingTrialList,1,2,-999999,0,288108,0,2,540,288648,Target2.bmp,lime,2,,,,6,3,63
KW_Experiment5A,42,1,"<?xml version=""1.0""?>\n<Clock xmlns:dt=""urn:schemas-microsoft-com:datatypes""><Description dt:dt=""string"">E-Prime Primary Realtime Clock</Description><StartTime><Timestamp dt:dt=""int"">0</Timestamp><DateUtc dt:dt=""string"">2018-10-25T19:02:10Z</DateUtc></StartTime><FrequencyChanges><FrequencyChange><Frequency dt:dt=""r8"">3215273</Frequency><Timestamp dt:dt=""r8"">1598813927096</Timestamp><Current dt:dt=""r8"">0</Current><DateUtc dt:dt=""string"">2018-10-25T19:02:10Z</DateUtc></FrequencyChange></FrequencyChanges></Clock>\n",KW_Experiment5A-42-1,59.946,1.0.0.105,1,1086733241,Professional,2.0.10.353,2.0.10.353,10/25/2018,10/25/2018 19:02,15:02:11,2.0.10.248,3,2,1,3,,,,,,,,TrainingProc,BlockList,16,2,Distractor2.bmp,2,0,,0,1,289660,600,,0,0,lime,600,3,600,,horizontal,red,Target2.bmp,yellow,Distractor2.bmp,cyan,Distractor2.bmp,purple,Distractor1.bmp,blue,Distractor1.bmp,lime,Distractor2.bmp,,,,TrialProc,6,TrainingTrialList,1,2,-999999,0,290260,0,2,524,290784,Target2.bmp,red,2,,,,7,3,64
KW_Experiment5A,42,1,"<?xml version=""1.0""?>\n<Clock xmlns:dt=""urn:schemas-microsoft-com:datatypes""><Description dt:dt=""string"">E-Prime Primary Realtime Clock</Description><StartTime><Timestamp dt:dt=""int"">0</Timestamp><DateUtc dt:dt=""string"">2018-10-25T19:02:10Z</DateUtc></StartTime><FrequencyChanges><FrequencyChange><Frequency dt:dt=""r8"">3215273</Frequency><Timestamp dt:dt=""r8"">1598813927096</Timestamp><Current dt:dt=""r8"">0</Current><DateUtc dt:dt=""string"">2018-10-25T19:02:10Z</DateUtc></FrequencyChange></FrequencyChanges></Clock>\n",KW_Experiment5A-42-1,59.946,1.0.0.105,1,1086733241,Professional,2.0.10.353,2.0.10.353,10/25/2018,10/25/2018 19:02,15:02:11,2.0.10.248,3,2,1,3,,,,,,,,TrainingProc,BlockList,17,1,Distractor1.bmp,1,0,,0,1,291795,601,,0,0,yellow,600,3,600,,vertical,yellow,Distractor1.bmp,lime,Distractor2.bmp,cyan,Distractor1.bmp,purple,Distractor2.bmp,blue,Distractor2.bmp,red,Target1.bmp,,,,TrialProc,2,TrainingTrialList,1,1,-999999,1,292396,0,1,452,292848,Target1.bmp,red,1,,,,12,3,65
KW_Experiment5A,42,1,"<?xml version=""1.0""?>\n<Clock xmlns:dt=""urn:schemas-microsoft-com:datatypes""><Description dt:dt=""string"">E-Prime Primary Realtime Clock</Description><StartTime><Timestamp dt:dt=""int"">0</Timestamp><DateUtc dt:dt=""string"">2018-10-25T19:02:10Z</DateUtc></StartTime><FrequencyChanges><FrequencyChange><Frequency dt:dt=""r8"">3215273</Frequency><Timestamp dt:dt=""r8"">1598813927096</Timestamp><Current dt:dt=""r8"">0</Current><DateUtc dt:dt=""string"">2018-10-25T19:02:10Z</DateUtc></FrequencyChange></FrequencyChanges></Clock>\n",KW_Experiment5A-42-1,59.946,1.0.0.105,1,1086733241,Professional,2.0.10.353,2.0.10.353,10/25/2018,10/25/2018 19:02,15:02:11,2.0.10.248,3,2,1,3,,,,,,,,TrainingProc,BlockList,18,2,Distractor2.bmp,2,0,,0,1,293864,600,,0,0,blue,600,3,600,,horizontal,blue,Distractor1.bmp,red,Target2.bmp,lime,Distractor2.bmp,cyan,Distractor1.bmp,purple,Distractor1.bmp,yellow,Distractor2.bmp,,,,TrialProc,3,TrainingTrialList,1,2,-999999,0,294464,0,2,608,295072,Target2.bmp,red,2,,,,8,3,66
KW_Experiment5A,42,1,"<?xml version=""1.0""?>\n<Clock xmlns:dt=""urn:schemas-microsoft-com:datatypes""><Description dt:dt=""string"">E-Prime Primary Realtime Clock</Description><StartTime><Timestamp dt:dt=""int"">0</Timestamp><DateUtc dt:dt=""string"">2018-10-25T19:02:10Z</DateUtc></StartTime><FrequencyChanges><FrequencyChange><Frequency dt:dt=""r8"">3215273</Frequency><Timestamp dt:dt=""r8"">1598813927096</Timestamp><Current dt:dt=""r8"">0</Current><DateUtc dt:dt=""string"">2018-10-25T19:02:10Z</DateUtc></FrequencyChange></FrequencyChanges></Clock>\n",KW_Experiment5A-42-1,59.946,1.0.0.105,1,1086733241,Professional,2.0.10.353,2.0.10.353,10/25/2018,10/25/2018 19:02,15:02:11,2.0.10.248,3,2,1,3,,,,,,,,TrainingProc,BlockList,19,2,Distractor1.bmp,1,0,,0,1,296082,501,,0,0,lime,500,2,500,,horizontal,lime,Distractor1.bmp,blue,Distractor2.bmp,cyan,Distractor1.bmp,red,Target2.bmp,yellow,Distractor1.bmp,purple,Distractor1.bmp,,,,TrialProc,6,TrainingTrialList,1,2,-999999,1,296583,0,2,809,297392,Target2.bmp,red,2,,,,10,3,67
KW_Experiment5A,42,1,"<?xml version=""1.0""?>\n<Clock xmlns:dt=""urn:schemas-microsoft-com:datatypes""><Description dt:dt=""string"">E-Prime Primary Realtime Clock</Description><StartTime><Timestamp dt:dt=""int"">0</Timestamp><DateUtc dt:dt=""string"">2018-10-25T19:02:10Z</DateUtc></StartTime><FrequencyChanges><FrequencyChange><Frequency dt:dt=""r8"">3215273</Frequency><Timestamp dt:dt=""r8"">1598813927096</Timestamp><Current dt:dt=""r8"">0</Current><DateUtc dt:dt=""string"">2018-10-25T19:02:10Z</DateUtc></FrequencyChange></FrequencyChanges></Clock>\n",KW_Experiment5A-42-1,59.946,1.0.0.105,1,1086733241,Professional,2.0.10.353,2.0.10.353,10/25/2018,10/25/2018 19:02,15:02:11,2.0.10.248,3,2,1,3,,,,,,,,TrainingProc,BlockList,20,2,Distractor2.bmp,2,0,,0,1,298401,400,,0,0,yellow,400,1,400,2,horizontal,lime,Target2.bmp,yellow,Distractor2.bmp,blue,Distractor2.bmp,red,Distractor2.bmp,purple,Distractor1.bmp,cyan,Distractor1.bmp,,,,TrialProc,,TrainingTrialList,1,2,-999999,0,298801,0,2,591,299392,Target2.bmp,lime,2,,,,1,3,68
KW_Experiment5A,42,1,"<?xml version=""1.0""?>\n<Clock xmlns:dt=""urn:schemas-microsoft-com:datatypes""><Description dt:dt=""string"">E-Prime Primary Realtime Clock</Description><StartTime><Timestamp dt:dt=""int"">0</Timestamp><DateUtc dt:dt=""string"">2018-10-25T19:02:10Z</DateUtc></StartTime><FrequencyChanges><FrequencyChange><Frequency dt:dt=""r8"">3215273</Frequency><Timestamp dt:dt=""r8"">1598813927096</Timestamp><Current dt:dt=""r8"">0</Current><DateUtc dt:dt=""string"">2018-10-25T19:02:10Z</DateUtc></FrequencyChange></FrequencyChanges></Clock>\n",KW_Experiment5A-42-1,59.946,1.0.0.105,1,1086733241,Professional,2.0.10.353,2.0.10.353,10/25/2018,10/25/2018 19:02,15:02:11,2.0.10.248,3,2,1,3,,,,,,,,TrainingProc,BlockList,21,2,Distractor1.bmp,1,0,,0,1,300403,600,,0,0,purple,600,3,600,5,horizontal,lime,Target2.bmp,purple,Distractor1.bmp,cyan,Distractor1.bmp,yellow,Distractor2.bmp,red,Distractor1.bmp,blue,Distractor1.bmp,,,,TrialProc,,TrainingTrialList,1,2,-999999,0,301003,0,2,477,301480,Target2.bmp,lime,2,,,,1,3,69
KW_Experiment5A,42,1,"<?xml version=""1.0""?>\n<Clock xmlns:dt=""urn:schemas-microsoft-com:datatypes""><Description dt:dt=""string"">E-Prime Primary Realtime Clock</Description><StartTime><Timestamp dt:dt=""int"">0</Timestamp><DateUtc dt:dt=""string"">2018-10-25T19:02:10Z</DateUtc></StartTime><FrequencyChanges><FrequencyChange><Frequency dt:dt=""r8"">3215273</Frequency><Timestamp dt:dt=""r8"">1598813927096</Timestamp><Current dt:dt=""r8"">0</Current><DateUtc dt:dt=""string"">2018-10-25T19:02:10Z</DateUtc></FrequencyChange></FrequencyChanges></Clock>\n",KW_Experiment5A-42-1,59.946,1.0.0.105,1,1086733241,Professional,2.0.10.353,2.0.10.353,10/25/2018,10/25/2018 19:02,15:02:11,2.0.10.248,3,2,1,3,,,,,,,,TrainingProc,BlockList,22,2,Distractor1.bmp,1,0,,0,1,302505,500,,0,0,cyan,500,2,500,4,horizontal,cyan,Distractor2.bmp,yellow,Distractor1.bmp,lime,Target2.bmp,blue,Distractor1.bmp,purple,Distractor1.bmp,red,Distractor1.bmp,,,,TrialProc,,TrainingTrialList,1,2,-999999,0,303005,0,2,579,303584,Target2.bmp,lime,2,,,,3,3,70
KW_Experiment5A,42,1,"<?xml version=""1.0""?>\n<Clock xmlns:dt=""urn:schemas-microsoft-com:datatypes""><Description dt:dt=""string"">E-Prime Primary Realtime Clock</Description><StartTime><Timestamp dt:dt=""int"">0</Timestamp><DateUtc dt:dt=""string"">2018-10-25T19:02:10Z</DateUtc></StartTime><FrequencyChanges><FrequencyChange><Frequency dt:dt=""r8"">3215273</Frequency><Timestamp dt:dt=""r8"">1598813927096</Timestamp><Current dt:dt=""r8"">0</Current><DateUtc dt:dt=""string"">2018-10-25T19:02:10Z</DateUtc></FrequencyChange></FrequencyChanges></Clock>\n",KW_Experiment5A-42-1,59.946,1.0.0.105,1,1086733241,Professional,2.0.10.353,2.0.10.353,10/25/2018,10/25/2018 19:02,15:02:11,2.0.10.248,3,2,1,3,,,,,,,,TrainingProc,BlockList,23,1,Distractor1.bmp,1,0,,0,1,304607,600,,0,0,red,600,3,600,1,vertical,red,Distractor1.bmp,lime,Target1.bmp,cyan,Distractor1.bmp,purple,Distractor1.bmp,blue,Distractor2.bmp,yellow,Distractor2.bmp,,,,TrialProc,,TrainingTrialList,1,1,-999999,0,305207,0,1,585,305792,Target1.bmp,lime,1,,,,2,3,71
KW_Experiment5A,42,1,"<?xml version=""1.0""?>\n<Clock xmlns:dt=""urn:schemas-microsoft-com:datatypes""><Description dt:dt=""string"">E-Prime Primary Realtime Clock</Description><StartTime><Timestamp dt:dt=""int"">0</Timestamp><DateUtc dt:dt=""string"">2018-10-25T19:02:10Z</DateUtc></StartTime><FrequencyChanges><FrequencyChange><Frequency dt:dt=""r8"">3215273</Frequency><Timestamp dt:dt=""r8"">1598813927096</Timestamp><Current dt:dt=""r8"">0</Current><DateUtc dt:dt=""string"">2018-10-25T19:02:10Z</DateUtc></FrequencyChange></FrequencyChanges></Clock>\n",KW_Experiment5A-42-1,59.946,1.0.0.105,1,1086733241,Professional,2.0.10.353,2.0.10.353,10/25/2018,10/25/2018 19:02,15:02:11,2.0.10.248,3,2,1,3,,,,,,,,TrainingProc,BlockList,24,1,Distractor1.bmp,1,0,,0,1,306809,500,,0,0,yellow,500,2,500,2,vertical,yellow,Distractor1.bmp,blue,Distractor1.bmp,purple,Distractor1.bmp,red,Distractor1.bmp,lime,Target1.bmp,cyan,Distractor1.bmp,,,,TrialProc,,TrainingTrialList,1,1,-999999,0,307309,0,1,811,308120,Target1.bmp,lime,1,,,,5,3,72
KW_Experiment5A,42,1,"<?xml version=""1.0""?>\n<Clock xmlns:dt=""urn:schemas-microsoft-com:datatypes""><Description dt:dt=""string"">E-Prime Primary Realtime Clock</Description><StartTime><Timestamp dt:dt=""int"">0</Timestamp><DateUtc dt:dt=""string"">2018-10-25T19:02:10Z</DateUtc></StartTime><FrequencyChanges><FrequencyChange><Frequency dt:dt=""r8"">3215273</Frequency><Timestamp dt:dt=""r8"">1598813927096</Timestamp><Current dt:dt=""r8"">0</Current><DateUtc dt:dt=""string"">2018-10-25T19:02:10Z</DateUtc></FrequencyChange></FrequencyChanges></Clock>\n",KW_Experiment5A-42-1,59.946,1.0.0.105,1,1086733241,Professional,2.0.10.353,2.0.10.353,10/25/2018,10/25/2018 19:02,15:02:11,2.0.10.248,3,2,1,3,,,,,,,,TrainingProc,BlockList,25,2,Distractor1.bmp,1,0,,0,1,309144,501,,0,0,cyan,500,2,500,4,horizontal,cyan,Distractor2.bmp,yellow,Distractor1.bmp,lime,Target2.bmp,red,Distractor1.bmp,purple,Distractor2.bmp,blue,Distractor2.bmp,,,,TrialProc,,TrainingTrialList,1,2,-999999,1,309645,0,2,651,310296,Target2.bmp,lime,2,,,,3,4,73
KW_Experiment5A,42,1,"<?xml version=""1.0""?>\n<Clock xmlns:dt=""urn:schemas-microsoft-com:datatypes""><Description dt:dt=""string"">E-Prime Primary Realtime Clock</Description><StartTime><Timestamp dt:dt=""int"">0</Timestamp><DateUtc dt:dt=""string"">2018-10-25T19:02:10Z</DateUtc></StartTime><FrequencyChanges><FrequencyChange><Frequency dt:dt=""r8"">3215273</Frequency><Timestamp dt:dt=""r8"">1598813927096</Timestamp><Current dt:dt=""r8"">0</Current><DateUtc dt:dt=""string"">2018-10-25T19:02:10Z</DateUtc></FrequencyChange></FrequencyChanges></Clock>\n",KW_Experiment5A-42-1,59.946,1.0.0.105,1,1086733241,Professional,2.0.10.353,2.0.10.353,10/25/2018,10/25/2018 19:02,15:02:11,2.0.10.248,3,2,1,3,,,,,,,,TrainingProc,BlockList,26,2,Distractor2.bmp,2,0,,0,1,311313,600,,0,0,cyan,600,3,600,4,horizontal,lime,Target2.bmp,cyan,Distractor2.bmp,yellow,Distractor1.bmp,blue,Distractor1.bmp,purple,Distractor1.bmp,red,Distractor2.bmp,,,,TrialProc,,TrainingTrialList,1,2,-999999,0,311913,0,2,783,312696,Target2.bmp,lime,2,,,,1,4,74
KW_Experiment5A,42,1,"<?xml version=""1.0""?>\n<Clock xmlns:dt=""urn:schemas-microsoft-com:datatypes""><Description dt:dt=""string"">E-Prime Primary Realtime Clock</Description><StartTime><Timestamp dt:dt=""int"">0</Timestamp><DateUtc dt:dt=""string"">2018-10-25T19:02:10Z</DateUtc></StartTime><FrequencyChanges><FrequencyChange><Frequency dt:dt=""r8"">3215273</Frequency><Timestamp dt:dt=""r8"">1598813927096</Timestamp><Current dt:dt=""r8"">0</Current><DateUtc dt:dt=""string"">2018-10-25T19:02:10Z</DateUtc></FrequencyChange></FrequencyChanges></Clock>\n",KW_Experiment5A-42-1,59.946,1.0.0.105,1,1086733241,Professional,2.0.10.353,2.0.10.353,10/25/2018,10/25/2018 19:02,15:02:11,2.0.10.248,3,2,1,3,,,,,,,,TrainingProc,BlockList,27,1,Distractor1.bmp,1,0,,0,1,313715,601,,0,0,cyan,600,3,600,,vertical,cyan,Distractor1.bmp,lime,Distractor1.bmp,purple,Distractor1.bmp,yellow,Distractor2.bmp,blue,Distractor2.bmp,red,Target1.bmp,,,,TrialProc,4,TrainingTrialList,1,1,-999999,1,314316,0,1,412,314728,Target1.bmp,red,1,,,,12,4,75
KW_Experiment5A,42,1,"<?xml version=""1.0""?>\n<Clock xmlns:dt=""urn:schemas-microsoft-com:datatypes""><Description dt:dt=""string"">E-Prime Primary Realtime Clock</Description><StartTime><Timestamp dt:dt=""int"">0</Timestamp><DateUtc dt:dt=""string"">2018-10-25T19:02:10Z</DateUtc></StartTime><FrequencyChanges><FrequencyChange><Frequency dt:dt=""r8"">3215273</Frequency><Timestamp dt:dt=""r8"">1598813927096</Timestamp><Current dt:dt=""r8"">0</Current><DateUtc dt:dt=""string"">2018-10-25T19:02:10Z</DateUtc></FrequencyChange></FrequencyChanges></Clock>\n",KW_Experiment5A-42-1,59.946,1.0.0.105,1,1086733241,Professional,2.0.10.353,2.0.10.353,10/25/2018,10/25/2018 19:02,15:02:11,2.0.10.248,3,2,1,3,,,,,,,,TrainingProc,BlockList,28,1,Distractor2.bmp,2,0,,0,1,315750,401,,0,0,cyan,400,1,400,4,vertical,lime,Target1.bmp,cyan,Distractor2.bmp,red,Distractor1.bmp,blue,Distractor1.bmp,yellow,Distractor2.bmp,purple,Distractor1.bmp,,,,TrialProc,,TrainingTrialList,1,1,-999999,1,316151,0,1,537,316688,Target1.bmp,lime,1,,,,1,4,76
KW_Experiment5A,42,1,"<?xml version=""1.0""?>\n<Clock xmlns:dt=""urn:schemas-microsoft-com:datatypes""><Description dt:dt=""string"">E-Prime Primary Realtime Clock</Description><StartTime><Timestamp dt:dt=""int"">0</Timestamp><DateUtc dt:dt=""string"">2018-10-25T19:02:10Z</DateUtc></StartTime><FrequencyChanges><FrequencyChange><Frequency dt:dt=""r8"">3215273</Frequency><Timestamp dt:dt=""r8"">1598813927096</Timestamp><Current dt:dt=""r8"">0</Current><DateUtc dt:dt=""string"">2018-10-25T19:02:10Z</DateUtc></FrequencyChange></FrequencyChanges></Clock>\n",KW_Experiment5A-42-1,59.946,1.0.0.105,1,1086733241,Professional,2.0.10.353,2.0.10.353,10/25/2018,10/25/2018 19:02,15:02:11,2.0.10.248,3,2,1,3,,,,,,,,TrainingProc,BlockList,29,1,Distractor2.bmp,2,0,,0,1,317702,601,,0,0,purple,600,3,600,5,vertical,purple,Distractor2.bmp,lime,Target1.bmp,cyan,Distractor2.bmp,yellow,Distractor1.bmp,red,Distractor2.bmp,blue,Distractor2.bmp,,,,TrialProc,,TrainingTrialList,1,1,-999999,1,318303,0,1,665,318968,Target1.bmp,lime,1,,,,2,4,77
KW_Experiment5A,42,1,"<?xml version=""1.0""?>\n<Clock xmlns:dt=""urn:schemas-microsoft-com:datatypes""><Description dt:dt=""string"">E-Prime Primary Realtime Clock</Description><StartTime><Timestamp dt:dt=""int"">0</Timestamp><DateUtc dt:dt=""string"">2018-10-25T19:02:10Z</DateUtc></StartTime><FrequencyChanges><FrequencyChange><Frequency dt:dt=""r8"">3215273</Frequency><Timestamp dt:dt=""r8"">1598813927096</Timestamp><Current dt:dt=""r8"">0</Current><DateUtc dt:dt=""string"">2018-10-25T19:02:10Z</DateUtc></FrequencyChange></FrequencyChanges></Clock>\n",KW_Experiment5A-42-1,59.946,1.0.0.105,1,1086733241,Professional,2.0.10.353,2.0.10.353,10/25/2018,10/25/2018 19:02,15:02:11,2.0.10.248,3,2,1,3,,,,,,,,TrainingProc,BlockList,30,2,Distractor2.bmp,2,0,,1,0,319987,601,,0,0,cyan,600,3,600,4,horizontal,cyan,Distractor1.bmp,yellow,Distractor1.bmp,lime,Target2.bmp,purple,Distractor2.bmp,blue,Distractor2.bmp,red,Distractor2.bmp,,,,TrialProc,,TrainingTrialList,1,2,-999999,1,320588,0,2,620,321208,Target2.bmp,lime,2,,,,3,4,78
KW_Experiment5A,42,1,"<?xml version=""1.0""?>\n<Clock xmlns:dt=""urn:schemas-microsoft-com:datatypes""><Description dt:dt=""string"">E-Prime Primary Realtime Clock</Description><StartTime><Timestamp dt:dt=""int"">0</Timestamp><DateUtc dt:dt=""string"">2018-10-25T19:02:10Z</DateUtc></StartTime><FrequencyChanges><FrequencyChange><Frequency dt:dt=""r8"">3215273</Frequency><Timestamp dt:dt=""r8"">1598813927096</Timestamp><Current dt:dt=""r8"">0</Current><DateUtc dt:dt=""string"">2018-10-25T19:02:10Z</DateUtc></FrequencyChange></FrequencyChanges></Clock>\n",KW_Experiment5A-42-1,59.946,1.0.0.105,1,1086733241,Professional,2.0.10.353,2.0.10.353,10/25/2018,10/25/2018 19:02,15:02:11,2.0.10.248,3,2,1,3,,,,,,,,TrainingProc,BlockList,31,1,Distractor1.bmp,1,0,,0,1,322223,600,,0,0,yellow,600,3,600,,vertical,red,Target1.bmp,lime,Distractor1.bmp,purple,Distractor1.bmp,cyan,Distractor1.bmp,blue,Distractor2.bmp,yellow,Distractor1.bmp,,,,TrialProc,2,TrainingTrialList,1,1,-999999,0,322823,0,1,601,323424,Target1.bmp,red,1,,,,7,4,79
KW_Experiment5A,42,1,"<?xml version=""1.0""?>\n<Clock xmlns:dt=""urn:schemas-microsoft-com:datatypes""><Description dt:dt=""string"">E-Prime Primary Realtime Clock</Description><StartTime><Timestamp dt:dt=""int"">0</Timestamp><DateUtc dt:dt=""string"">2018-10-25T19:02:10Z</DateUtc></StartTime><FrequencyChanges><FrequencyChange><Frequency dt:dt=""r8"">3215273</Frequency><Timestamp dt:dt=""r8"">1598813927096</Timestamp><Current dt:dt=""r8"">0</Current><DateUtc dt:dt=""string"">2018-10-25T19:02:10Z</DateUtc></FrequencyChange></FrequencyChanges></Clock>\n",KW_Experiment5A-42-1,59.946,1.0.0.105,1,1086733241,Professional,2.0.10.353,2.0.10.353,10/25/2018,10/25/2018 19:02,15:02:11,2.0.10.248,3,2,1,3,,,,,,,,TrainingProc,BlockList,32,1,Distractor2.bmp,2,0,,0,1,324442,500,,0,0,yellow,500,2,500,2,vertical,yellow,Distractor1.bmp,blue,Distractor2.bmp,red,Distractor2.bmp,lime,Target1.bmp,cyan,Distractor2.bmp,purple,Distractor1.bmp,,,,TrialProc,,TrainingTrialList,1,1,-999999,0,324942,0,1,625,325567,Target1.bmp,lime,1,,,,4,4,80
KW_Experiment5A,42,1,"<?xml version=""1.0""?>\n<Clock xmlns:dt=""urn:schemas-microsoft-com:datatypes""><Description dt:dt=""string"">E-Prime Primary Realtime Clock</Description><StartTime><Timestamp dt:dt=""int"">0</Timestamp><DateUtc dt:dt=""string"">2018-10-25T19:02:10Z</DateUtc></StartTime><FrequencyChanges><FrequencyChange><Frequency dt:dt=""r8"">3215273</Frequency><Timestamp dt:dt=""r8"">1598813927096</Timestamp><Current dt:dt=""r8"">0</Current><DateUtc dt:dt=""string"">2018-10-25T19:02:10Z</DateUtc></FrequencyChange></FrequencyChanges></Clock>\n",KW_Experiment5A-42-1,59.946,1.0.0.105,1,1086733241,Professional,2.0.10.353,2.0.10.353,10/25/2018,10/25/2018 19:02,15:02:11,2.0.10.248,3,2,1,3,,,,,,,,TrainingProc,BlockList,33,1,Distractor2.bmp,2,0,,0,1,326577,600,,0,0,purple,600,3,600,5,vertical,purple,Distractor2.bmp,cyan,Distractor2.bmp,yellow,Distractor1.bmp,lime,Target1.bmp,blue,Distractor2.bmp,red,Distractor1.bmp,,,,TrialProc,,TrainingTrialList,1,1,-999999,0,327177,0,1,694,327871,Target1.bmp,lime,1,,,,4,4,81
KW_Experiment5A,42,1,"<?xml version=""1.0""?>\n<Clock xmlns:dt=""urn:schemas-microsoft-com:datatypes""><Description dt:dt=""string"">E-Prime Primary Realtime Clock</Description><StartTime><Timestamp dt:dt=""int"">0</Timestamp><DateUtc dt:dt=""string"">2018-10-25T19:02:10Z</DateUtc></StartTime><FrequencyChanges><FrequencyChange><Frequency dt:dt=""r8"">3215273</Frequency><Timestamp dt:dt=""r8"">1598813927096</Timestamp><Current dt:dt=""r8"">0</Current><DateUtc dt:dt=""string"">2018-10-25T19:02:10Z</DateUtc></FrequencyChange></FrequencyChanges></Clock>\n",KW_Experiment5A-42-1,59.946,1.0.0.105,1,1086733241,Professional,2.0.10.353,2.0.10.353,10/25/2018,10/25/2018 19:02,15:02:11,2.0.10.248,3,2,1,3,,,,,,,,TrainingProc,BlockList,34,1,Distractor2.bmp,2,0,,0,1,328896,500,,0,0,cyan,500,2,500,4,vertical,cyan,Distractor2.bmp,yellow,Distractor2.bmp,blue,Distractor2.bmp,purple,Distractor2.bmp,lime,Target1.bmp,red,Distractor2.bmp,,,,TrialProc,,TrainingTrialList,1,1,-999999,0,329396,0,1,1123,330519,Target1.bmp,lime,1,,,,5,4,82
KW_Experiment5A,42,1,"<?xml version=""1.0""?>\n<Clock xmlns:dt=""urn:schemas-microsoft-com:datatypes""><Description dt:dt=""string"">E-Prime Primary Realtime Clock</Description><StartTime><Timestamp dt:dt=""int"">0</Timestamp><DateUtc dt:dt=""string"">2018-10-25T19:02:10Z</DateUtc></StartTime><FrequencyChanges><FrequencyChange><Frequency dt:dt=""r8"">3215273</Frequency><Timestamp dt:dt=""r8"">1598813927096</Timestamp><Current dt:dt=""r8"">0</Current><DateUtc dt:dt=""string"">2018-10-25T19:02:10Z</DateUtc></FrequencyChange></FrequencyChanges></Clock>\n",KW_Experiment5A-42-1,59.946,1.0.0.105,1,1086733241,Professional,2.0.10.353,2.0.10.353,10/25/2018,10/25/2018 19:02,15:02:11,2.0.10.248,3,2,1,3,,,,,,,,TrainingProc,BlockList,35,2,Distractor1.bmp,1,0,,0,1,331531,401,,0,0,lime,400,1,400,,horizontal,lime,Distractor2.bmp,blue,Distractor2.bmp,yellow,Distractor2.bmp,red,Target2.bmp,cyan,Distractor1.bmp,purple,Distractor1.bmp,,,,TrialProc,6,TrainingTrialList,1,2,-999999,1,331932,0,2,659,332591,Target2.bmp,red,2,,,,10,4,83
KW_Experiment5A,42,1,"<?xml version=""1.0""?>\n<Clock xmlns:dt=""urn:schemas-microsoft-com:datatypes""><Description dt:dt=""string"">E-Prime Primary Realtime Clock</Description><StartTime><Timestamp dt:dt=""int"">0</Timestamp><DateUtc dt:dt=""string"">2018-10-25T19:02:10Z</DateUtc></StartTime><FrequencyChanges><FrequencyChange><Frequency dt:dt=""r8"">3215273</Frequency><Timestamp dt:dt=""r8"">1598813927096</Timestamp><Current dt:dt=""r8"">0</Current><DateUtc dt:dt=""string"">2018-10-25T19:02:10Z</DateUtc></FrequencyChange></FrequencyChanges></Clock>\n",KW_Experiment5A-42-1,59.946,1.0.0.105,1,1086733241,Professional,2.0.10.353,2.0.10.353,10/25/2018,10/25/2018 19:02,15:02:11,2.0.10.248,3,2,1,3,,,,,,,,TrainingProc,BlockList,36,1,Distractor2.bmp,2,0,,0,1,333617,600,,0,0,yellow,600,3,600,2,vertical,lime,Target1.bmp,yellow,Distractor2.bmp,red,Distractor2.bmp,purple,Distractor2.bmp,blue,Distractor2.bmp,cyan,Distractor2.bmp,,,,TrialProc,,TrainingTrialList,1,1,-999999,0,334217,0,1,1278,335495,Target1.bmp,lime,1,,,,1,4,84
KW_Experiment5A,42,1,"<?xml version=""1.0""?>\n<Clock xmlns:dt=""urn:schemas-microsoft-com:datatypes""><Description dt:dt=""string"">E-Prime Primary Realtime Clock</Description><StartTime><Timestamp dt:dt=""int"">0</Timestamp><DateUtc dt:dt=""string"">2018-10-25T19:02:10Z</DateUtc></StartTime><FrequencyChanges><FrequencyChange><Frequency dt:dt=""r8"">3215273</Frequency><Timestamp dt:dt=""r8"">1598813927096</Timestamp><Current dt:dt=""r8"">0</Current><DateUtc dt:dt=""string"">2018-10-25T19:02:10Z</DateUtc></FrequencyChange></FrequencyChanges></Clock>\n",KW_Experiment5A-42-1,59.946,1.0.0.105,1,1086733241,Professional,2.0.10.353,2.0.10.353,10/25/2018,10/25/2018 19:02,15:02:11,2.0.10.248,3,2,1,3,,,,,,,,TrainingProc,BlockList,37,2,Distractor2.bmp,2,0,,0,1,336519,401,,0,0,purple,400,1,400,,horizontal,purple,Distractor2.bmp,blue,Distractor1.bmp,red,Target2.bmp,yellow,Distractor2.bmp,cyan,Distractor2.bmp,lime,Distractor2.bmp,,,,TrialProc,5,TrainingTrialList,1,2,-999999,1,336920,0,2,879,337799,Target2.bmp,red,2,,,,9,4,85
KW_Experiment5A,42,1,"<?xml version=""1.0""?>\n<Clock xmlns:dt=""urn:schemas-microsoft-com:datatypes""><Description dt:dt=""string"">E-Prime Primary Realtime Clock</Description><StartTime><Timestamp dt:dt=""int"">0</Timestamp><DateUtc dt:dt=""string"">2018-10-25T19:02:10Z</DateUtc></StartTime><FrequencyChanges><FrequencyChange><Frequency dt:dt=""r8"">3215273</Frequency><Timestamp dt:dt=""r8"">1598813927096</Timestamp><Current dt:dt=""r8"">0</Current><DateUtc dt:dt=""string"">2018-10-25T19:02:10Z</DateUtc></FrequencyChange></FrequencyChanges></Clock>\n",KW_Experiment5A-42-1,59.946,1.0.0.105,1,1086733241,Professional,2.0.10.353,2.0.10.353,10/25/2018,10/25/2018 19:02,15:02:11,2.0.10.248,3,2,1,3,,,,,,,,TrainingProc,BlockList,38,1,Distractor2.bmp,2,0,,0,1,338821,401,,0,0,yellow,400,1,400,2,vertical,yellow,Distractor2.bmp,lime,Target1.bmp,blue,Distractor2.bmp,red,Distractor2.bmp,cyan,Distractor2.bmp,purple,Distractor1.bmp,,,,TrialProc,,TrainingTrialList,1,1,-999999,1,339222,0,1,585,339807,Target1.bmp,lime,1,,,,2,4,86
KW_Experiment5A,42,1,"<?xml version=""1.0""?>\n<Clock xmlns:dt=""urn:schemas-microsoft-com:datatypes""><Description dt:dt=""string"">E-Prime Primary Realtime Clock</Description><StartTime><Timestamp dt:dt=""int"">0</Timestamp><DateUtc dt:dt=""string"">2018-10-25T19:02:10Z</DateUtc></StartTime><FrequencyChanges><FrequencyChange><Frequency dt:dt=""r8"">3215273</Frequency><Timestamp dt:dt=""r8"">1598813927096</Timestamp><Current dt:dt=""r8"">0</Current><DateUtc dt:dt=""string"">2018-10-25T19:02:10Z</DateUtc></FrequencyChange></FrequencyChanges></Clock>\n",KW_Experiment5A-42-1,59.946,1.0.0.105,1,1086733241,Professional,2.0.10.353,2.0.10.353,10/25/2018,10/25/2018 19:02,15:02:11,2.0.10.248,3,2,1,3,,,,,,,,TrainingProc,BlockList,39,2,Distractor1.bmp,1,0,,0,1,340823,401,,0,0,yellow,400,1,400,,horizontal,yellow,Distractor1.bmp,red,Target2.bmp,blue,Distractor1.bmp,purple,Distractor1.bmp,lime,Distractor2.bmp,cyan,Distractor2.bmp,,,,TrialProc,2,TrainingTrialList,1,2,-999999,1,341224,0,2,463,341687,Target2.bmp,red,2,,,,8,4,87
KW_Experiment5A,42,1,"<?xml version=""1.0""?>\n<Clock xmlns:dt=""urn:schemas-microsoft-com:datatypes""><Description dt:dt=""string"">E-Prime Primary Realtime Clock</Description><StartTime><Timestamp dt:dt=""int"">0</Timestamp><DateUtc dt:dt=""string"">2018-10-25T19:02:10Z</DateUtc></StartTime><FrequencyChanges><FrequencyChange><Frequency dt:dt=""r8"">3215273</Frequency><Timestamp dt:dt=""r8"">1598813927096</Timestamp><Current dt:dt=""r8"">0</Current><DateUtc dt:dt=""string"">2018-10-25T19:02:10Z</DateUtc></FrequencyChange></FrequencyChanges></Clock>\n",KW_Experiment5A-42-1,59.946,1.0.0.105,1,1086733241,Professional,2.0.10.353,2.0.10.353,10/25/2018,10/25/2018 19:02,15:02:11,2.0.10.248,3,2,1,3,,,,,,,,TrainingProc,BlockList,40,1,Distractor1.bmp,1,0,,0,1,342708,501,,0,0,purple,500,2,500,5,vertical,purple,Distractor2.bmp,lime,Target1.bmp,yellow,Distractor1.bmp,red,Distractor1.bmp,blue,Distractor1.bmp,cyan,Distractor1.bmp,,,,TrialProc,,TrainingTrialList,1,1,-999999,1,343209,0,1,702,343911,Target1.bmp,lime,1,,,,2,4,88
KW_Experiment5A,42,1,"<?xml version=""1.0""?>\n<Clock xmlns:dt=""urn:schemas-microsoft-com:datatypes""><Description dt:dt=""string"">E-Prime Primary Realtime Clock</Description><StartTime><Timestamp dt:dt=""int"">0</Timestamp><DateUtc dt:dt=""string"">2018-10-25T19:02:10Z</DateUtc></StartTime><FrequencyChanges><FrequencyChange><Frequency dt:dt=""r8"">3215273</Frequency><Timestamp dt:dt=""r8"">1598813927096</Timestamp><Current dt:dt=""r8"">0</Current><DateUtc dt:dt=""string"">2018-10-25T19:02:10Z</DateUtc></FrequencyChange></FrequencyChanges></Clock>\n",KW_Experiment5A-42-1,59.946,1.0.0.105,1,1086733241,Professional,2.0.10.353,2.0.10.353,10/25/2018,10/25/2018 19:02,15:02:11,2.0.10.248,3,2,1,3,,,,,,,,TrainingProc,BlockList,41,1,Distractor1.bmp,1,0,,0,1,344927,601,,0,0,cyan,600,3,600,4,vertical,cyan,Distractor1.bmp,blue,Distractor2.bmp,yellow,Distractor1.bmp,purple,Distractor1.bmp,red,Distractor2.bmp,lime,Target1.bmp,,,,TrialProc,,TrainingTrialList,1,1,-999999,1,345528,0,1,479,346007,Target1.bmp,lime,1,,,,6,4,89
KW_Experiment5A,42,1,"<?xml version=""1.0""?>\n<Clock xmlns:dt=""urn:schemas-microsoft-com:datatypes""><Description dt:dt=""string"">E-Prime Primary Realtime Clock</Description><StartTime><Timestamp dt:dt=""int"">0</Timestamp><DateUtc dt:dt=""string"">2018-10-25T19:02:10Z</DateUtc></StartTime><FrequencyChanges><FrequencyChange><Frequency dt:dt=""r8"">3215273</Frequency><Timestamp dt:dt=""r8"">1598813927096</Timestamp><Current dt:dt=""r8"">0</Current><DateUtc dt:dt=""string"">2018-10-25T19:02:10Z</DateUtc></FrequencyChange></FrequencyChanges></Clock>\n",KW_Experiment5A-42-1,59.946,1.0.0.105,1,1086733241,Professional,2.0.10.353,2.0.10.353,10/25/2018,10/25/2018 19:02,15:02:11,2.0.10.248,3,2,1,3,,,,,,,,TrainingProc,BlockList,42,2,Distractor1.bmp,1,0,,0,1,347029,500,,0,0,purple,500,2,500,5,horizontal,purple,Distractor1.bmp,blue,Distractor1.bmp,cyan,Distractor1.bmp,red,Distractor2.bmp,yellow,Distractor2.bmp,lime,Target2.bmp,,,,TrialProc,,TrainingTrialList,1,2,-999999,0,347529,0,2,438,347967,Target2.bmp,lime,2,,,,6,4,90
