ExperimentName,Subject,Session,Clock.Information,DataFile.Basename,Display.RefreshRate,ExperimentVersion,Group,RandomSeed,RuntimeCapabilities,RuntimeVersion,RuntimeVersionExpected,SessionDate,SessionStartDateTimeUtc,SessionTime,StudioVersion,Block,BlockList,BlockList.Cycle,BlockList.Sample,PostTestQ1.RESP,PostTestQ1CJ.RESP,PostTestQ2.RESP,PostTestQ2CJ.RESP,PostTestQ3.RESP,PostTestQ3CJ.RESP,PostTestSlide.RESP,Procedure[Block],Running[Block],Trial,CorrectResponse,Distractor,DistractorList,Fixation.ACC,Fixation.CRESP,Fixation.DurationError,Fixation.OnsetDelay,Fixation.OnsetTime,Fixation.OnsetToOnsetTime,Fixation.RESP,Fixation.RT,Fixation.RTTime,ItemColor,Jitter,JitterList,JitterTime,Lime0List,Orientation,Pos1Color,Pos1Item,Pos2Color,Pos2Item,Pos3Color,Pos3Item,Pos4Color,Pos4Item,Pos5Color,Pos5Item,Pos6Color,Pos6Item,PracticeTrialList,PracticeTrialList.Cycle,PracticeTrialList.Sample,Procedure[Trial],Red0List,Running[Trial],Stimulus.ACC,Stimulus.CRESP,Stimulus.DurationError,Stimulus.OnsetDelay,Stimulus.OnsetTime,Stimulus.OnsetToOnsetTime,Stimulus.RESP,Stimulus.RT,Stimulus.RTTime,Target,TargetColor,TargetList,TestTrialList,TestTrialList.Cycle,TestTrialList.Sample,TrainingTrialList,TrainingTrialList.Cycle,TrainingTrialList.Sample
KW_Experiment5A,27,1,"<?xml version=""1.0""?>\n<Clock xmlns:dt=""urn:schemas-microsoft-com:datatypes""><Description dt:dt=""string"">E-Prime Primary Realtime Clock</Description><StartTime><Timestamp dt:dt=""int"">0</Timestamp><DateUtc dt:dt=""string"">2018-10-17T17:54:27Z</DateUtc></StartTime><FrequencyChanges><FrequencyChange><Frequency dt:dt=""r8"">3215292</Frequency><Timestamp dt:dt=""r8"">5858481517608</Timestamp><Current dt:dt=""r8"">0</Current><DateUtc dt:dt=""string"">2018-10-17T17:54:27Z</DateUtc></FrequencyChange></FrequencyChanges></Clock>\n",KW_Experiment5A-27-1,59.945,1.0.0.105,2,146770285,Professional,2.0.10.353,2.0.10.353,10/17/2018,10/17/2018 17:54,13:54:27,2.0.10.248,1,1,1,1,,,,,,,,PracticeProc,BlockList,1,2,Distractor2.bmp,2,0,,0,42,172010,600,,0,0,purple,600,3,600,5,horizontal,lime,Target2.bmp,red,Distractor2.bmp,yellow,Distractor1.bmp,blue,Distractor1.bmp,cyan,Distractor1.bmp,purple,Distractor1.bmp,1,1,1,TrialProc,,PracticeTrialList,1,2,-999999,0,172610,0,2,3126,175736,Target2.bmp,lime,2,,,,,,
KW_Experiment5A,27,1,"<?xml version=""1.0""?>\n<Clock xmlns:dt=""urn:schemas-microsoft-com:datatypes""><Description dt:dt=""string"">E-Prime Primary Realtime Clock</Description><StartTime><Timestamp dt:dt=""int"">0</Timestamp><DateUtc dt:dt=""string"">2018-10-17T17:54:27Z</DateUtc></StartTime><FrequencyChanges><FrequencyChange><Frequency dt:dt=""r8"">3215292</Frequency><Timestamp dt:dt=""r8"">5858481517608</Timestamp><Current dt:dt=""r8"">0</Current><DateUtc dt:dt=""string"">2018-10-17T17:54:27Z</DateUtc></FrequencyChange></FrequencyChanges></Clock>\n",KW_Experiment5A-27-1,59.945,1.0.0.105,2,146770285,Professional,2.0.10.353,2.0.10.353,10/17/2018,10/17/2018 17:54,13:54:27,2.0.10.248,1,1,1,1,,,,,,,,PracticeProc,BlockList,2,2,Distractor1.bmp,1,0,,0,1,176764,601,,0,0,cyan,600,3,600,,horizontal,cyan,Distractor2.bmp,red,Target2.bmp,blue,Distractor1.bmp,yellow,Distractor1.bmp,purple,Distractor1.bmp,lime,Distractor2.bmp,2,1,2,TrialProc,4,PracticeTrialList,0,2,-999999,1,177365,0,1,867,178232,Target2.bmp,red,2,,,,,,
KW_Experiment5A,27,1,"<?xml version=""1.0""?>\n<Clock xmlns:dt=""urn:schemas-microsoft-com:datatypes""><Description dt:dt=""string"">E-Prime Primary Realtime Clock</Description><StartTime><Timestamp dt:dt=""int"">0</Timestamp><DateUtc dt:dt=""string"">2018-10-17T17:54:27Z</DateUtc></StartTime><FrequencyChanges><FrequencyChange><Frequency dt:dt=""r8"">3215292</Frequency><Timestamp dt:dt=""r8"">5858481517608</Timestamp><Current dt:dt=""r8"">0</Current><DateUtc dt:dt=""string"">2018-10-17T17:54:27Z</DateUtc></FrequencyChange></FrequencyChanges></Clock>\n",KW_Experiment5A-27-1,59.945,1.0.0.105,2,146770285,Professional,2.0.10.353,2.0.10.353,10/17/2018,10/17/2018 17:54,13:54:27,2.0.10.248,1,1,1,1,,,,,,,,PracticeProc,BlockList,3,1,Distractor1.bmp,1,0,,0,1,179250,400,,0,0,blue,400,1,400,,vertical,cyan,Distractor1.bmp,purple,Distractor2.bmp,yellow,Distractor2.bmp,lime,Distractor2.bmp,blue,Distractor1.bmp,red,Target1.bmp,6,1,3,TrialProc,3,PracticeTrialList,1,1,-999999,0,179650,0,1,1502,181152,Target1.bmp,red,1,,,,,,
KW_Experiment5A,27,1,"<?xml version=""1.0""?>\n<Clock xmlns:dt=""urn:schemas-microsoft-com:datatypes""><Description dt:dt=""string"">E-Prime Primary Realtime Clock</Description><StartTime><Timestamp dt:dt=""int"">0</Timestamp><DateUtc dt:dt=""string"">2018-10-17T17:54:27Z</DateUtc></StartTime><FrequencyChanges><FrequencyChange><Frequency dt:dt=""r8"">3215292</Frequency><Timestamp dt:dt=""r8"">5858481517608</Timestamp><Current dt:dt=""r8"">0</Current><DateUtc dt:dt=""string"">2018-10-17T17:54:27Z</DateUtc></FrequencyChange></FrequencyChanges></Clock>\n",KW_Experiment5A-27-1,59.945,1.0.0.105,2,146770285,Professional,2.0.10.353,2.0.10.353,10/17/2018,10/17/2018 17:54,13:54:27,2.0.10.248,1,1,1,1,,,,,,,,PracticeProc,BlockList,4,2,Distractor1.bmp,1,0,,0,1,182169,600,,0,0,blue,600,3,600,3,horizontal,purple,Distractor2.bmp,cyan,Distractor1.bmp,yellow,Distractor2.bmp,blue,Distractor2.bmp,lime,Target2.bmp,red,Distractor1.bmp,5,1,4,TrialProc,,PracticeTrialList,0,2,-999999,0,182769,0,1,982,183751,Target2.bmp,lime,2,,,,,,
KW_Experiment5A,27,1,"<?xml version=""1.0""?>\n<Clock xmlns:dt=""urn:schemas-microsoft-com:datatypes""><Description dt:dt=""string"">E-Prime Primary Realtime Clock</Description><StartTime><Timestamp dt:dt=""int"">0</Timestamp><DateUtc dt:dt=""string"">2018-10-17T17:54:27Z</DateUtc></StartTime><FrequencyChanges><FrequencyChange><Frequency dt:dt=""r8"">3215292</Frequency><Timestamp dt:dt=""r8"">5858481517608</Timestamp><Current dt:dt=""r8"">0</Current><DateUtc dt:dt=""string"">2018-10-17T17:54:27Z</DateUtc></FrequencyChange></FrequencyChanges></Clock>\n",KW_Experiment5A-27-1,59.945,1.0.0.105,2,146770285,Professional,2.0.10.353,2.0.10.353,10/17/2018,10/17/2018 17:54,13:54:27,2.0.10.248,1,1,1,1,,,,,,,,PracticeProc,BlockList,5,2,Distractor1.bmp,1,0,,0,1,184771,401,,0,0,red,400,1,400,1,horizontal,blue,Distractor1.bmp,red,Distractor2.bmp,lime,Target2.bmp,purple,Distractor1.bmp,cyan,Distractor1.bmp,yellow,Distractor2.bmp,3,1,5,TrialProc,,PracticeTrialList,1,2,-999999,1,185172,0,2,1547,186719,Target2.bmp,lime,2,,,,,,
KW_Experiment5A,27,1,"<?xml version=""1.0""?>\n<Clock xmlns:dt=""urn:schemas-microsoft-com:datatypes""><Description dt:dt=""string"">E-Prime Primary Realtime Clock</Description><StartTime><Timestamp dt:dt=""int"">0</Timestamp><DateUtc dt:dt=""string"">2018-10-17T17:54:27Z</DateUtc></StartTime><FrequencyChanges><FrequencyChange><Frequency dt:dt=""r8"">3215292</Frequency><Timestamp dt:dt=""r8"">5858481517608</Timestamp><Current dt:dt=""r8"">0</Current><DateUtc dt:dt=""string"">2018-10-17T17:54:27Z</DateUtc></FrequencyChange></FrequencyChanges></Clock>\n",KW_Experiment5A-27-1,59.945,1.0.0.105,2,146770285,Professional,2.0.10.353,2.0.10.353,10/17/2018,10/17/2018 17:54,13:54:27,2.0.10.248,1,1,1,1,,,,,,,,PracticeProc,BlockList,6,1,Distractor1.bmp,1,0,,0,1,187741,400,,0,0,blue,400,1,400,,vertical,purple,Distractor1.bmp,lime,Distractor2.bmp,blue,Distractor1.bmp,red,Target1.bmp,yellow,Distractor1.bmp,cyan,Distractor1.bmp,4,1,6,TrialProc,3,PracticeTrialList,1,1,-999999,0,188141,0,1,770,188911,Target1.bmp,red,1,,,,,,
KW_Experiment5A,27,1,"<?xml version=""1.0""?>\n<Clock xmlns:dt=""urn:schemas-microsoft-com:datatypes""><Description dt:dt=""string"">E-Prime Primary Realtime Clock</Description><StartTime><Timestamp dt:dt=""int"">0</Timestamp><DateUtc dt:dt=""string"">2018-10-17T17:54:27Z</DateUtc></StartTime><FrequencyChanges><FrequencyChange><Frequency dt:dt=""r8"">3215292</Frequency><Timestamp dt:dt=""r8"">5858481517608</Timestamp><Current dt:dt=""r8"">0</Current><DateUtc dt:dt=""string"">2018-10-17T17:54:27Z</DateUtc></FrequencyChange></FrequencyChanges></Clock>\n",KW_Experiment5A-27-1,59.945,1.0.0.105,2,146770285,Professional,2.0.10.353,2.0.10.353,10/17/2018,10/17/2018 17:54,13:54:27,2.0.10.248,2,2,1,2,,,,,,,,TrainingProc,BlockList,1,2,Distractor2.bmp,2,0,,0,15,192862,600,,0,0,blue,600,3,600,,horizontal,red,Target2.bmp,yellow,Distractor2.bmp,lime,Distractor1.bmp,purple,Distractor1.bmp,cyan,Distractor2.bmp,blue,Distractor1.bmp,,,,TrialProc,3,TrainingTrialList,1,2,-999999,0,193462,0,2,1177,194639,Target2.bmp,red,2,,,,7,2,1
KW_Experiment5A,27,1,"<?xml version=""1.0""?>\n<Clock xmlns:dt=""urn:schemas-microsoft-com:datatypes""><Description dt:dt=""string"">E-Prime Primary Realtime Clock</Description><StartTime><Timestamp dt:dt=""int"">0</Timestamp><DateUtc dt:dt=""string"">2018-10-17T17:54:27Z</DateUtc></StartTime><FrequencyChanges><FrequencyChange><Frequency dt:dt=""r8"">3215292</Frequency><Timestamp dt:dt=""r8"">5858481517608</Timestamp><Current dt:dt=""r8"">0</Current><DateUtc dt:dt=""string"">2018-10-17T17:54:27Z</DateUtc></FrequencyChange></FrequencyChanges></Clock>\n",KW_Experiment5A-27-1,59.945,1.0.0.105,2,146770285,Professional,2.0.10.353,2.0.10.353,10/17/2018,10/17/2018 17:54,13:54:27,2.0.10.248,2,2,1,2,,,,,,,,TrainingProc,BlockList,2,1,Distractor2.bmp,2,0,,1,0,195664,401,,0,0,purple,400,1,400,,vertical,purple,Distractor2.bmp,lime,Distractor1.bmp,cyan,Distractor1.bmp,yellow,Distractor2.bmp,red,Target1.bmp,blue,Distractor2.bmp,,,,TrialProc,5,TrainingTrialList,1,1,-999999,1,196065,0,1,806,196871,Target1.bmp,red,1,,,,11,2,2
KW_Experiment5A,27,1,"<?xml version=""1.0""?>\n<Clock xmlns:dt=""urn:schemas-microsoft-com:datatypes""><Description dt:dt=""string"">E-Prime Primary Realtime Clock</Description><StartTime><Timestamp dt:dt=""int"">0</Timestamp><DateUtc dt:dt=""string"">2018-10-17T17:54:27Z</DateUtc></StartTime><FrequencyChanges><FrequencyChange><Frequency dt:dt=""r8"">3215292</Frequency><Timestamp dt:dt=""r8"">5858481517608</Timestamp><Current dt:dt=""r8"">0</Current><DateUtc dt:dt=""string"">2018-10-17T17:54:27Z</DateUtc></FrequencyChange></FrequencyChanges></Clock>\n",KW_Experiment5A-27-1,59.945,1.0.0.105,2,146770285,Professional,2.0.10.353,2.0.10.353,10/17/2018,10/17/2018 17:54,13:54:27,2.0.10.248,2,2,1,2,,,,,,,,TrainingProc,BlockList,3,1,Distractor1.bmp,1,0,,0,1,197883,601,,0,0,purple,600,3,600,,vertical,purple,Distractor1.bmp,blue,Distractor2.bmp,red,Target1.bmp,cyan,Distractor1.bmp,lime,Distractor1.bmp,yellow,Distractor2.bmp,,,,TrialProc,5,TrainingTrialList,1,1,-999999,1,198484,0,1,915,199399,Target1.bmp,red,1,,,,9,2,3
KW_Experiment5A,27,1,"<?xml version=""1.0""?>\n<Clock xmlns:dt=""urn:schemas-microsoft-com:datatypes""><Description dt:dt=""string"">E-Prime Primary Realtime Clock</Description><StartTime><Timestamp dt:dt=""int"">0</Timestamp><DateUtc dt:dt=""string"">2018-10-17T17:54:27Z</DateUtc></StartTime><FrequencyChanges><FrequencyChange><Frequency dt:dt=""r8"">3215292</Frequency><Timestamp dt:dt=""r8"">5858481517608</Timestamp><Current dt:dt=""r8"">0</Current><DateUtc dt:dt=""string"">2018-10-17T17:54:27Z</DateUtc></FrequencyChange></FrequencyChanges></Clock>\n",KW_Experiment5A-27-1,59.945,1.0.0.105,2,146770285,Professional,2.0.10.353,2.0.10.353,10/17/2018,10/17/2018 17:54,13:54:27,2.0.10.248,2,2,1,2,,,,,,,,TrainingProc,BlockList,4,2,Distractor1.bmp,1,0,,0,1,200419,600,,0,0,purple,600,3,600,5,horizontal,purple,Distractor2.bmp,blue,Distractor2.bmp,cyan,Distractor1.bmp,red,Distractor1.bmp,lime,Target2.bmp,yellow,Distractor1.bmp,,,,TrialProc,,TrainingTrialList,1,2,-999999,0,201019,0,2,1244,202263,Target2.bmp,lime,2,,,,5,2,4
KW_Experiment5A,27,1,"<?xml version=""1.0""?>\n<Clock xmlns:dt=""urn:schemas-microsoft-com:datatypes""><Description dt:dt=""string"">E-Prime Primary Realtime Clock</Description><StartTime><Timestamp dt:dt=""int"">0</Timestamp><DateUtc dt:dt=""string"">2018-10-17T17:54:27Z</DateUtc></StartTime><FrequencyChanges><FrequencyChange><Frequency dt:dt=""r8"">3215292</Frequency><Timestamp dt:dt=""r8"">5858481517608</Timestamp><Current dt:dt=""r8"">0</Current><DateUtc dt:dt=""string"">2018-10-17T17:54:27Z</DateUtc></FrequencyChange></FrequencyChanges></Clock>\n",KW_Experiment5A-27-1,59.945,1.0.0.105,2,146770285,Professional,2.0.10.353,2.0.10.353,10/17/2018,10/17/2018 17:54,13:54:27,2.0.10.248,2,2,1,2,,,,,,,,TrainingProc,BlockList,5,2,Distractor1.bmp,1,0,,0,1,203288,501,,0,0,red,500,2,500,1,horizontal,red,Distractor1.bmp,purple,Distractor1.bmp,cyan,Distractor1.bmp,blue,Distractor1.bmp,yellow,Distractor2.bmp,lime,Target2.bmp,,,,TrialProc,,TrainingTrialList,1,2,-999999,1,203789,0,2,610,204399,Target2.bmp,lime,2,,,,6,2,5
KW_Experiment5A,27,1,"<?xml version=""1.0""?>\n<Clock xmlns:dt=""urn:schemas-microsoft-com:datatypes""><Description dt:dt=""string"">E-Prime Primary Realtime Clock</Description><StartTime><Timestamp dt:dt=""int"">0</Timestamp><DateUtc dt:dt=""string"">2018-10-17T17:54:27Z</DateUtc></StartTime><FrequencyChanges><FrequencyChange><Frequency dt:dt=""r8"">3215292</Frequency><Timestamp dt:dt=""r8"">5858481517608</Timestamp><Current dt:dt=""r8"">0</Current><DateUtc dt:dt=""string"">2018-10-17T17:54:27Z</DateUtc></FrequencyChange></FrequencyChanges></Clock>\n",KW_Experiment5A-27-1,59.945,1.0.0.105,2,146770285,Professional,2.0.10.353,2.0.10.353,10/17/2018,10/17/2018 17:54,13:54:27,2.0.10.248,2,2,1,2,,,,,,,,TrainingProc,BlockList,6,1,Distractor1.bmp,1,0,,0,1,205423,401,,0,0,yellow,400,1,400,,vertical,yellow,Distractor2.bmp,blue,Distractor2.bmp,cyan,Distractor1.bmp,purple,Distractor1.bmp,red,Target1.bmp,lime,Distractor1.bmp,,,,TrialProc,2,TrainingTrialList,1,1,-999999,1,205824,0,1,735,206559,Target1.bmp,red,1,,,,11,2,6
KW_Experiment5A,27,1,"<?xml version=""1.0""?>\n<Clock xmlns:dt=""urn:schemas-microsoft-com:datatypes""><Description dt:dt=""string"">E-Prime Primary Realtime Clock</Description><StartTime><Timestamp dt:dt=""int"">0</Timestamp><DateUtc dt:dt=""string"">2018-10-17T17:54:27Z</DateUtc></StartTime><FrequencyChanges><FrequencyChange><Frequency dt:dt=""r8"">3215292</Frequency><Timestamp dt:dt=""r8"">5858481517608</Timestamp><Current dt:dt=""r8"">0</Current><DateUtc dt:dt=""string"">2018-10-17T17:54:27Z</DateUtc></FrequencyChange></FrequencyChanges></Clock>\n",KW_Experiment5A-27-1,59.945,1.0.0.105,2,146770285,Professional,2.0.10.353,2.0.10.353,10/17/2018,10/17/2018 17:54,13:54:27,2.0.10.248,2,2,1,2,,,,,,,,TrainingProc,BlockList,7,1,Distractor2.bmp,2,0,,0,1,207575,501,,0,0,red,500,2,500,1,vertical,red,Distractor2.bmp,lime,Target1.bmp,blue,Distractor2.bmp,purple,Distractor1.bmp,cyan,Distractor1.bmp,yellow,Distractor2.bmp,,,,TrialProc,,TrainingTrialList,1,1,-999999,1,208076,0,1,1139,209215,Target1.bmp,lime,1,,,,2,2,7
KW_Experiment5A,27,1,"<?xml version=""1.0""?>\n<Clock xmlns:dt=""urn:schemas-microsoft-com:datatypes""><Description dt:dt=""string"">E-Prime Primary Realtime Clock</Description><StartTime><Timestamp dt:dt=""int"">0</Timestamp><DateUtc dt:dt=""string"">2018-10-17T17:54:27Z</DateUtc></StartTime><FrequencyChanges><FrequencyChange><Frequency dt:dt=""r8"">3215292</Frequency><Timestamp dt:dt=""r8"">5858481517608</Timestamp><Current dt:dt=""r8"">0</Current><DateUtc dt:dt=""string"">2018-10-17T17:54:27Z</DateUtc></FrequencyChange></FrequencyChanges></Clock>\n",KW_Experiment5A-27-1,59.945,1.0.0.105,2,146770285,Professional,2.0.10.353,2.0.10.353,10/17/2018,10/17/2018 17:54,13:54:27,2.0.10.248,2,2,1,2,,,,,,,,TrainingProc,BlockList,8,2,Distractor2.bmp,2,0,,0,1,210228,600,,0,0,lime,600,3,600,,horizontal,lime,Distractor2.bmp,yellow,Distractor2.bmp,cyan,Distractor2.bmp,blue,Distractor1.bmp,purple,Distractor1.bmp,red,Target2.bmp,,,,TrialProc,6,TrainingTrialList,1,2,-999999,0,210828,0,2,683,211511,Target2.bmp,red,2,,,,12,2,8
KW_Experiment5A,27,1,"<?xml version=""1.0""?>\n<Clock xmlns:dt=""urn:schemas-microsoft-com:datatypes""><Description dt:dt=""string"">E-Prime Primary Realtime Clock</Description><StartTime><Timestamp dt:dt=""int"">0</Timestamp><DateUtc dt:dt=""string"">2018-10-17T17:54:27Z</DateUtc></StartTime><FrequencyChanges><FrequencyChange><Frequency dt:dt=""r8"">3215292</Frequency><Timestamp dt:dt=""r8"">5858481517608</Timestamp><Current dt:dt=""r8"">0</Current><DateUtc dt:dt=""string"">2018-10-17T17:54:27Z</DateUtc></FrequencyChange></FrequencyChanges></Clock>\n",KW_Experiment5A-27-1,59.945,1.0.0.105,2,146770285,Professional,2.0.10.353,2.0.10.353,10/17/2018,10/17/2018 17:54,13:54:27,2.0.10.248,2,2,1,2,,,,,,,,TrainingProc,BlockList,9,2,Distractor1.bmp,1,0,,0,1,212530,600,,0,0,yellow,600,3,600,,horizontal,yellow,Distractor1.bmp,red,Target2.bmp,cyan,Distractor1.bmp,blue,Distractor2.bmp,lime,Distractor1.bmp,purple,Distractor1.bmp,,,,TrialProc,2,TrainingTrialList,1,2,-999999,0,213130,0,2,893,214023,Target2.bmp,red,2,,,,8,2,9
KW_Experiment5A,27,1,"<?xml version=""1.0""?>\n<Clock xmlns:dt=""urn:schemas-microsoft-com:datatypes""><Description dt:dt=""string"">E-Prime Primary Realtime Clock</Description><StartTime><Timestamp dt:dt=""int"">0</Timestamp><DateUtc dt:dt=""string"">2018-10-17T17:54:27Z</DateUtc></StartTime><FrequencyChanges><FrequencyChange><Frequency dt:dt=""r8"">3215292</Frequency><Timestamp dt:dt=""r8"">5858481517608</Timestamp><Current dt:dt=""r8"">0</Current><DateUtc dt:dt=""string"">2018-10-17T17:54:27Z</DateUtc></FrequencyChange></FrequencyChanges></Clock>\n",KW_Experiment5A-27-1,59.945,1.0.0.105,2,146770285,Professional,2.0.10.353,2.0.10.353,10/17/2018,10/17/2018 17:54,13:54:27,2.0.10.248,2,2,1,2,,,,,,,,TrainingProc,BlockList,10,1,Distractor1.bmp,1,0,,0,1,215049,600,,0,0,cyan,600,3,600,,vertical,cyan,Distractor2.bmp,lime,Distractor2.bmp,purple,Distractor1.bmp,red,Target1.bmp,yellow,Distractor1.bmp,blue,Distractor1.bmp,,,,TrialProc,4,TrainingTrialList,1,1,-999999,0,215649,0,1,1790,217439,Target1.bmp,red,1,,,,10,2,10
KW_Experiment5A,27,1,"<?xml version=""1.0""?>\n<Clock xmlns:dt=""urn:schemas-microsoft-com:datatypes""><Description dt:dt=""string"">E-Prime Primary Realtime Clock</Description><StartTime><Timestamp dt:dt=""int"">0</Timestamp><DateUtc dt:dt=""string"">2018-10-17T17:54:27Z</DateUtc></StartTime><FrequencyChanges><FrequencyChange><Frequency dt:dt=""r8"">3215292</Frequency><Timestamp dt:dt=""r8"">5858481517608</Timestamp><Current dt:dt=""r8"">0</Current><DateUtc dt:dt=""string"">2018-10-17T17:54:27Z</DateUtc></FrequencyChange></FrequencyChanges></Clock>\n",KW_Experiment5A-27-1,59.945,1.0.0.105,2,146770285,Professional,2.0.10.353,2.0.10.353,10/17/2018,10/17/2018 17:54,13:54:27,2.0.10.248,2,2,1,2,,,,,,,,TrainingProc,BlockList,11,1,Distractor1.bmp,1,0,,0,1,218452,500,,0,0,blue,500,2,500,,vertical,blue,Distractor2.bmp,cyan,Distractor2.bmp,lime,Distractor2.bmp,red,Target1.bmp,purple,Distractor1.bmp,yellow,Distractor1.bmp,,,,TrialProc,3,TrainingTrialList,1,1,-999999,0,218952,0,1,823,219775,Target1.bmp,red,1,,,,10,2,11
KW_Experiment5A,27,1,"<?xml version=""1.0""?>\n<Clock xmlns:dt=""urn:schemas-microsoft-com:datatypes""><Description dt:dt=""string"">E-Prime Primary Realtime Clock</Description><StartTime><Timestamp dt:dt=""int"">0</Timestamp><DateUtc dt:dt=""string"">2018-10-17T17:54:27Z</DateUtc></StartTime><FrequencyChanges><FrequencyChange><Frequency dt:dt=""r8"">3215292</Frequency><Timestamp dt:dt=""r8"">5858481517608</Timestamp><Current dt:dt=""r8"">0</Current><DateUtc dt:dt=""string"">2018-10-17T17:54:27Z</DateUtc></FrequencyChange></FrequencyChanges></Clock>\n",KW_Experiment5A-27-1,59.945,1.0.0.105,2,146770285,Professional,2.0.10.353,2.0.10.353,10/17/2018,10/17/2018 17:54,13:54:27,2.0.10.248,2,2,1,2,,,,,,,,TrainingProc,BlockList,12,1,Distractor1.bmp,1,0,,0,1,220787,601,,0,0,cyan,600,3,600,,vertical,cyan,Distractor1.bmp,lime,Distractor2.bmp,red,Target1.bmp,yellow,Distractor1.bmp,blue,Distractor1.bmp,purple,Distractor1.bmp,,,,TrialProc,4,TrainingTrialList,1,1,-999999,1,221388,0,1,995,222383,Target1.bmp,red,1,,,,9,2,12
KW_Experiment5A,27,1,"<?xml version=""1.0""?>\n<Clock xmlns:dt=""urn:schemas-microsoft-com:datatypes""><Description dt:dt=""string"">E-Prime Primary Realtime Clock</Description><StartTime><Timestamp dt:dt=""int"">0</Timestamp><DateUtc dt:dt=""string"">2018-10-17T17:54:27Z</DateUtc></StartTime><FrequencyChanges><FrequencyChange><Frequency dt:dt=""r8"">3215292</Frequency><Timestamp dt:dt=""r8"">5858481517608</Timestamp><Current dt:dt=""r8"">0</Current><DateUtc dt:dt=""string"">2018-10-17T17:54:27Z</DateUtc></FrequencyChange></FrequencyChanges></Clock>\n",KW_Experiment5A-27-1,59.945,1.0.0.105,2,146770285,Professional,2.0.10.353,2.0.10.353,10/17/2018,10/17/2018 17:54,13:54:27,2.0.10.248,2,2,1,2,,,,,,,,TrainingProc,BlockList,13,2,Distractor2.bmp,2,0,,0,1,223406,601,,0,0,cyan,600,3,600,,horizontal,cyan,Distractor2.bmp,yellow,Distractor1.bmp,blue,Distractor1.bmp,red,Target2.bmp,lime,Distractor2.bmp,purple,Distractor2.bmp,,,,TrialProc,4,TrainingTrialList,1,2,-999999,1,224007,0,2,599,224606,Target2.bmp,red,2,,,,10,2,13
KW_Experiment5A,27,1,"<?xml version=""1.0""?>\n<Clock xmlns:dt=""urn:schemas-microsoft-com:datatypes""><Description dt:dt=""string"">E-Prime Primary Realtime Clock</Description><StartTime><Timestamp dt:dt=""int"">0</Timestamp><DateUtc dt:dt=""string"">2018-10-17T17:54:27Z</DateUtc></StartTime><FrequencyChanges><FrequencyChange><Frequency dt:dt=""r8"">3215292</Frequency><Timestamp dt:dt=""r8"">5858481517608</Timestamp><Current dt:dt=""r8"">0</Current><DateUtc dt:dt=""string"">2018-10-17T17:54:27Z</DateUtc></FrequencyChange></FrequencyChanges></Clock>\n",KW_Experiment5A-27-1,59.945,1.0.0.105,2,146770285,Professional,2.0.10.353,2.0.10.353,10/17/2018,10/17/2018 17:54,13:54:27,2.0.10.248,2,2,1,2,,,,,,,,TrainingProc,BlockList,14,2,Distractor2.bmp,2,0,,0,1,225625,601,,0,0,cyan,600,3,600,,horizontal,cyan,Distractor1.bmp,lime,Distractor1.bmp,red,Target2.bmp,yellow,Distractor2.bmp,purple,Distractor1.bmp,blue,Distractor1.bmp,,,,TrialProc,4,TrainingTrialList,1,2,-999999,1,226226,0,2,588,226814,Target2.bmp,red,2,,,,9,2,14
KW_Experiment5A,27,1,"<?xml version=""1.0""?>\n<Clock xmlns:dt=""urn:schemas-microsoft-com:datatypes""><Description dt:dt=""string"">E-Prime Primary Realtime Clock</Description><StartTime><Timestamp dt:dt=""int"">0</Timestamp><DateUtc dt:dt=""string"">2018-10-17T17:54:27Z</DateUtc></StartTime><FrequencyChanges><FrequencyChange><Frequency dt:dt=""r8"">3215292</Frequency><Timestamp dt:dt=""r8"">5858481517608</Timestamp><Current dt:dt=""r8"">0</Current><DateUtc dt:dt=""string"">2018-10-17T17:54:27Z</DateUtc></FrequencyChange></FrequencyChanges></Clock>\n",KW_Experiment5A-27-1,59.945,1.0.0.105,2,146770285,Professional,2.0.10.353,2.0.10.353,10/17/2018,10/17/2018 17:54,13:54:27,2.0.10.248,2,2,1,2,,,,,,,,TrainingProc,BlockList,15,2,Distractor2.bmp,2,0,,0,1,227827,601,,0,0,cyan,600,3,600,,horizontal,red,Target2.bmp,lime,Distractor2.bmp,yellow,Distractor1.bmp,blue,Distractor1.bmp,purple,Distractor2.bmp,cyan,Distractor2.bmp,,,,TrialProc,4,TrainingTrialList,1,2,-999999,1,228428,0,2,850,229278,Target2.bmp,red,2,,,,7,2,15
KW_Experiment5A,27,1,"<?xml version=""1.0""?>\n<Clock xmlns:dt=""urn:schemas-microsoft-com:datatypes""><Description dt:dt=""string"">E-Prime Primary Realtime Clock</Description><StartTime><Timestamp dt:dt=""int"">0</Timestamp><DateUtc dt:dt=""string"">2018-10-17T17:54:27Z</DateUtc></StartTime><FrequencyChanges><FrequencyChange><Frequency dt:dt=""r8"">3215292</Frequency><Timestamp dt:dt=""r8"">5858481517608</Timestamp><Current dt:dt=""r8"">0</Current><DateUtc dt:dt=""string"">2018-10-17T17:54:27Z</DateUtc></FrequencyChange></FrequencyChanges></Clock>\n",KW_Experiment5A-27-1,59.945,1.0.0.105,2,146770285,Professional,2.0.10.353,2.0.10.353,10/17/2018,10/17/2018 17:54,13:54:27,2.0.10.248,2,2,1,2,,,,,,,,TrainingProc,BlockList,16,2,Distractor2.bmp,2,0,,0,1,230296,500,,0,0,red,500,2,500,1,horizontal,red,Distractor1.bmp,yellow,Distractor2.bmp,lime,Target2.bmp,blue,Distractor2.bmp,purple,Distractor2.bmp,cyan,Distractor2.bmp,,,,TrialProc,,TrainingTrialList,1,2,-999999,0,230796,0,2,658,231454,Target2.bmp,lime,2,,,,3,2,16
KW_Experiment5A,27,1,"<?xml version=""1.0""?>\n<Clock xmlns:dt=""urn:schemas-microsoft-com:datatypes""><Description dt:dt=""string"">E-Prime Primary Realtime Clock</Description><StartTime><Timestamp dt:dt=""int"">0</Timestamp><DateUtc dt:dt=""string"">2018-10-17T17:54:27Z</DateUtc></StartTime><FrequencyChanges><FrequencyChange><Frequency dt:dt=""r8"">3215292</Frequency><Timestamp dt:dt=""r8"">5858481517608</Timestamp><Current dt:dt=""r8"">0</Current><DateUtc dt:dt=""string"">2018-10-17T17:54:27Z</DateUtc></FrequencyChange></FrequencyChanges></Clock>\n",KW_Experiment5A-27-1,59.945,1.0.0.105,2,146770285,Professional,2.0.10.353,2.0.10.353,10/17/2018,10/17/2018 17:54,13:54:27,2.0.10.248,2,2,1,2,,,,,,,,TrainingProc,BlockList,17,2,Distractor2.bmp,2,0,,0,1,232465,400,,0,0,cyan,400,1,400,4,horizontal,cyan,Distractor2.bmp,red,Distractor2.bmp,yellow,Distractor1.bmp,lime,Target2.bmp,purple,Distractor2.bmp,blue,Distractor1.bmp,,,,TrialProc,,TrainingTrialList,1,2,-999999,0,232865,0,2,597,233462,Target2.bmp,lime,2,,,,4,2,17
KW_Experiment5A,27,1,"<?xml version=""1.0""?>\n<Clock xmlns:dt=""urn:schemas-microsoft-com:datatypes""><Description dt:dt=""string"">E-Prime Primary Realtime Clock</Description><StartTime><Timestamp dt:dt=""int"">0</Timestamp><DateUtc dt:dt=""string"">2018-10-17T17:54:27Z</DateUtc></StartTime><FrequencyChanges><FrequencyChange><Frequency dt:dt=""r8"">3215292</Frequency><Timestamp dt:dt=""r8"">5858481517608</Timestamp><Current dt:dt=""r8"">0</Current><DateUtc dt:dt=""string"">2018-10-17T17:54:27Z</DateUtc></FrequencyChange></FrequencyChanges></Clock>\n",KW_Experiment5A-27-1,59.945,1.0.0.105,2,146770285,Professional,2.0.10.353,2.0.10.353,10/17/2018,10/17/2018 17:54,13:54:27,2.0.10.248,2,2,1,2,,,,,,,,TrainingProc,BlockList,18,2,Distractor1.bmp,1,0,,0,1,234483,501,,0,0,yellow,500,2,500,,horizontal,yellow,Distractor1.bmp,red,Target2.bmp,blue,Distractor1.bmp,cyan,Distractor1.bmp,lime,Distractor2.bmp,purple,Distractor1.bmp,,,,TrialProc,2,TrainingTrialList,1,2,-999999,1,234984,0,2,910,235894,Target2.bmp,red,2,,,,8,2,18
KW_Experiment5A,27,1,"<?xml version=""1.0""?>\n<Clock xmlns:dt=""urn:schemas-microsoft-com:datatypes""><Description dt:dt=""string"">E-Prime Primary Realtime Clock</Description><StartTime><Timestamp dt:dt=""int"">0</Timestamp><DateUtc dt:dt=""string"">2018-10-17T17:54:27Z</DateUtc></StartTime><FrequencyChanges><FrequencyChange><Frequency dt:dt=""r8"">3215292</Frequency><Timestamp dt:dt=""r8"">5858481517608</Timestamp><Current dt:dt=""r8"">0</Current><DateUtc dt:dt=""string"">2018-10-17T17:54:27Z</DateUtc></FrequencyChange></FrequencyChanges></Clock>\n",KW_Experiment5A-27-1,59.945,1.0.0.105,2,146770285,Professional,2.0.10.353,2.0.10.353,10/17/2018,10/17/2018 17:54,13:54:27,2.0.10.248,2,2,1,2,,,,,,,,TrainingProc,BlockList,19,1,Distractor1.bmp,1,0,,0,1,236919,500,,0,0,purple,500,2,500,,vertical,purple,Distractor1.bmp,red,Target1.bmp,blue,Distractor1.bmp,cyan,Distractor2.bmp,lime,Distractor1.bmp,yellow,Distractor1.bmp,,,,TrialProc,5,TrainingTrialList,1,1,-999999,0,237419,0,1,851,238270,Target1.bmp,red,1,,,,8,2,19
KW_Experiment5A,27,1,"<?xml version=""1.0""?>\n<Clock xmlns:dt=""urn:schemas-microsoft-com:datatypes""><Description dt:dt=""string"">E-Prime Primary Realtime Clock</Description><StartTime><Timestamp dt:dt=""int"">0</Timestamp><DateUtc dt:dt=""string"">2018-10-17T17:54:27Z</DateUtc></StartTime><FrequencyChanges><FrequencyChange><Frequency dt:dt=""r8"">3215292</Frequency><Timestamp dt:dt=""r8"">5858481517608</Timestamp><Current dt:dt=""r8"">0</Current><DateUtc dt:dt=""string"">2018-10-17T17:54:27Z</DateUtc></FrequencyChange></FrequencyChanges></Clock>\n",KW_Experiment5A-27-1,59.945,1.0.0.105,2,146770285,Professional,2.0.10.353,2.0.10.353,10/17/2018,10/17/2018 17:54,13:54:27,2.0.10.248,2,2,1,2,,,,,,,,TrainingProc,BlockList,20,2,Distractor2.bmp,2,0,,1,0,239287,401,,0,0,cyan,400,1,400,,horizontal,cyan,Distractor1.bmp,purple,Distractor1.bmp,lime,Distractor1.bmp,yellow,Distractor2.bmp,red,Target2.bmp,blue,Distractor2.bmp,,,,TrialProc,4,TrainingTrialList,0,2,-999999,1,239688,0,1,790,240478,Target2.bmp,red,2,,,,11,2,20
KW_Experiment5A,27,1,"<?xml version=""1.0""?>\n<Clock xmlns:dt=""urn:schemas-microsoft-com:datatypes""><Description dt:dt=""string"">E-Prime Primary Realtime Clock</Description><StartTime><Timestamp dt:dt=""int"">0</Timestamp><DateUtc dt:dt=""string"">2018-10-17T17:54:27Z</DateUtc></StartTime><FrequencyChanges><FrequencyChange><Frequency dt:dt=""r8"">3215292</Frequency><Timestamp dt:dt=""r8"">5858481517608</Timestamp><Current dt:dt=""r8"">0</Current><DateUtc dt:dt=""string"">2018-10-17T17:54:27Z</DateUtc></FrequencyChange></FrequencyChanges></Clock>\n",KW_Experiment5A-27-1,59.945,1.0.0.105,2,146770285,Professional,2.0.10.353,2.0.10.353,10/17/2018,10/17/2018 17:54,13:54:27,2.0.10.248,2,2,1,2,,,,,,,,TrainingProc,BlockList,21,1,Distractor2.bmp,2,0,,1,0,241489,601,,0,0,purple,600,3,600,,vertical,purple,Distractor2.bmp,lime,Distractor2.bmp,cyan,Distractor1.bmp,yellow,Distractor1.bmp,blue,Distractor2.bmp,red,Target1.bmp,,,,TrialProc,5,TrainingTrialList,1,1,-999999,1,242090,0,1,620,242710,Target1.bmp,red,1,,,,12,2,21
KW_Experiment5A,27,1,"<?xml version=""1.0""?>\n<Clock xmlns:dt=""urn:schemas-microsoft-com:datatypes""><Description dt:dt=""string"">E-Prime Primary Realtime Clock</Description><StartTime><Timestamp dt:dt=""int"">0</Timestamp><DateUtc dt:dt=""string"">2018-10-17T17:54:27Z</DateUtc></StartTime><FrequencyChanges><FrequencyChange><Frequency dt:dt=""r8"">3215292</Frequency><Timestamp dt:dt=""r8"">5858481517608</Timestamp><Current dt:dt=""r8"">0</Current><DateUtc dt:dt=""string"">2018-10-17T17:54:27Z</DateUtc></FrequencyChange></FrequencyChanges></Clock>\n",KW_Experiment5A-27-1,59.945,1.0.0.105,2,146770285,Professional,2.0.10.353,2.0.10.353,10/17/2018,10/17/2018 17:54,13:54:27,2.0.10.248,2,2,1,2,,,,,,,,TrainingProc,BlockList,22,2,Distractor1.bmp,1,0,,0,1,243725,500,,0,0,purple,500,2,500,,horizontal,purple,Distractor1.bmp,yellow,Distractor1.bmp,blue,Distractor2.bmp,cyan,Distractor1.bmp,lime,Distractor2.bmp,red,Target2.bmp,,,,TrialProc,5,TrainingTrialList,0,2,-999999,0,244225,0,1,525,244750,Target2.bmp,red,2,,,,12,2,22
KW_Experiment5A,27,1,"<?xml version=""1.0""?>\n<Clock xmlns:dt=""urn:schemas-microsoft-com:datatypes""><Description dt:dt=""string"">E-Prime Primary Realtime Clock</Description><StartTime><Timestamp dt:dt=""int"">0</Timestamp><DateUtc dt:dt=""string"">2018-10-17T17:54:27Z</DateUtc></StartTime><FrequencyChanges><FrequencyChange><Frequency dt:dt=""r8"">3215292</Frequency><Timestamp dt:dt=""r8"">5858481517608</Timestamp><Current dt:dt=""r8"">0</Current><DateUtc dt:dt=""string"">2018-10-17T17:54:27Z</DateUtc></FrequencyChange></FrequencyChanges></Clock>\n",KW_Experiment5A-27-1,59.945,1.0.0.105,2,146770285,Professional,2.0.10.353,2.0.10.353,10/17/2018,10/17/2018 17:54,13:54:27,2.0.10.248,2,2,1,2,,,,,,,,TrainingProc,BlockList,23,2,Distractor2.bmp,2,0,,0,1,245777,600,,0,0,cyan,600,3,600,,horizontal,red,Target2.bmp,lime,Distractor2.bmp,yellow,Distractor2.bmp,purple,Distractor2.bmp,blue,Distractor1.bmp,cyan,Distractor2.bmp,,,,TrialProc,4,TrainingTrialList,1,2,-999999,0,246377,0,2,1181,247558,Target2.bmp,red,2,,,,7,2,23
KW_Experiment5A,27,1,"<?xml version=""1.0""?>\n<Clock xmlns:dt=""urn:schemas-microsoft-com:datatypes""><Description dt:dt=""string"">E-Prime Primary Realtime Clock</Description><StartTime><Timestamp dt:dt=""int"">0</Timestamp><DateUtc dt:dt=""string"">2018-10-17T17:54:27Z</DateUtc></StartTime><FrequencyChanges><FrequencyChange><Frequency dt:dt=""r8"">3215292</Frequency><Timestamp dt:dt=""r8"">5858481517608</Timestamp><Current dt:dt=""r8"">0</Current><DateUtc dt:dt=""string"">2018-10-17T17:54:27Z</DateUtc></FrequencyChange></FrequencyChanges></Clock>\n",KW_Experiment5A-27-1,59.945,1.0.0.105,2,146770285,Professional,2.0.10.353,2.0.10.353,10/17/2018,10/17/2018 17:54,13:54:27,2.0.10.248,2,2,1,2,,,,,,,,TrainingProc,BlockList,24,2,Distractor2.bmp,2,0,,0,1,248579,501,,0,0,red,500,2,500,1,horizontal,lime,Target2.bmp,red,Distractor2.bmp,blue,Distractor1.bmp,purple,Distractor2.bmp,yellow,Distractor2.bmp,cyan,Distractor2.bmp,,,,TrialProc,,TrainingTrialList,1,2,-999999,1,249080,0,2,406,249486,Target2.bmp,lime,2,,,,1,2,24
KW_Experiment5A,27,1,"<?xml version=""1.0""?>\n<Clock xmlns:dt=""urn:schemas-microsoft-com:datatypes""><Description dt:dt=""string"">E-Prime Primary Realtime Clock</Description><StartTime><Timestamp dt:dt=""int"">0</Timestamp><DateUtc dt:dt=""string"">2018-10-17T17:54:27Z</DateUtc></StartTime><FrequencyChanges><FrequencyChange><Frequency dt:dt=""r8"">3215292</Frequency><Timestamp dt:dt=""r8"">5858481517608</Timestamp><Current dt:dt=""r8"">0</Current><DateUtc dt:dt=""string"">2018-10-17T17:54:27Z</DateUtc></FrequencyChange></FrequencyChanges></Clock>\n",KW_Experiment5A-27-1,59.945,1.0.0.105,2,146770285,Professional,2.0.10.353,2.0.10.353,10/17/2018,10/17/2018 17:54,13:54:27,2.0.10.248,2,2,1,2,,,,,,,,TrainingProc,BlockList,25,1,Distractor2.bmp,2,0,,0,1,250498,600,,0,0,yellow,600,3,600,,vertical,red,Target1.bmp,blue,Distractor2.bmp,cyan,Distractor2.bmp,lime,Distractor1.bmp,purple,Distractor1.bmp,yellow,Distractor2.bmp,,,,TrialProc,2,TrainingTrialList,1,1,-999999,0,251098,0,1,1140,252238,Target1.bmp,red,1,,,,7,3,25
KW_Experiment5A,27,1,"<?xml version=""1.0""?>\n<Clock xmlns:dt=""urn:schemas-microsoft-com:datatypes""><Description dt:dt=""string"">E-Prime Primary Realtime Clock</Description><StartTime><Timestamp dt:dt=""int"">0</Timestamp><DateUtc dt:dt=""string"">2018-10-17T17:54:27Z</DateUtc></StartTime><FrequencyChanges><FrequencyChange><Frequency dt:dt=""r8"">3215292</Frequency><Timestamp dt:dt=""r8"">5858481517608</Timestamp><Current dt:dt=""r8"">0</Current><DateUtc dt:dt=""string"">2018-10-17T17:54:27Z</DateUtc></FrequencyChange></FrequencyChanges></Clock>\n",KW_Experiment5A-27-1,59.945,1.0.0.105,2,146770285,Professional,2.0.10.353,2.0.10.353,10/17/2018,10/17/2018 17:54,13:54:27,2.0.10.248,2,2,1,2,,,,,,,,TrainingProc,BlockList,26,1,Distractor1.bmp,1,0,,0,1,253250,400,,0,0,yellow,400,1,400,,vertical,yellow,Distractor1.bmp,purple,Distractor1.bmp,lime,Distractor2.bmp,blue,Distractor2.bmp,cyan,Distractor1.bmp,red,Target1.bmp,,,,TrialProc,2,TrainingTrialList,1,1,-999999,0,253650,0,1,1420,255070,Target1.bmp,red,1,,,,12,3,26
KW_Experiment5A,27,1,"<?xml version=""1.0""?>\n<Clock xmlns:dt=""urn:schemas-microsoft-com:datatypes""><Description dt:dt=""string"">E-Prime Primary Realtime Clock</Description><StartTime><Timestamp dt:dt=""int"">0</Timestamp><DateUtc dt:dt=""string"">2018-10-17T17:54:27Z</DateUtc></StartTime><FrequencyChanges><FrequencyChange><Frequency dt:dt=""r8"">3215292</Frequency><Timestamp dt:dt=""r8"">5858481517608</Timestamp><Current dt:dt=""r8"">0</Current><DateUtc dt:dt=""string"">2018-10-17T17:54:27Z</DateUtc></FrequencyChange></FrequencyChanges></Clock>\n",KW_Experiment5A-27-1,59.945,1.0.0.105,2,146770285,Professional,2.0.10.353,2.0.10.353,10/17/2018,10/17/2018 17:54,13:54:27,2.0.10.248,2,2,1,2,,,,,,,,TrainingProc,BlockList,27,2,Distractor1.bmp,1,0,,0,1,256086,601,,0,0,purple,600,3,600,,horizontal,purple,Distractor2.bmp,red,Target2.bmp,blue,Distractor1.bmp,yellow,Distractor2.bmp,cyan,Distractor1.bmp,lime,Distractor2.bmp,,,,TrialProc,5,TrainingTrialList,1,2,-999999,1,256687,0,2,735,257422,Target2.bmp,red,2,,,,8,3,27
KW_Experiment5A,27,1,"<?xml version=""1.0""?>\n<Clock xmlns:dt=""urn:schemas-microsoft-com:datatypes""><Description dt:dt=""string"">E-Prime Primary Realtime Clock</Description><StartTime><Timestamp dt:dt=""int"">0</Timestamp><DateUtc dt:dt=""string"">2018-10-17T17:54:27Z</DateUtc></StartTime><FrequencyChanges><FrequencyChange><Frequency dt:dt=""r8"">3215292</Frequency><Timestamp dt:dt=""r8"">5858481517608</Timestamp><Current dt:dt=""r8"">0</Current><DateUtc dt:dt=""string"">2018-10-17T17:54:27Z</DateUtc></FrequencyChange></FrequencyChanges></Clock>\n",KW_Experiment5A-27-1,59.945,1.0.0.105,2,146770285,Professional,2.0.10.353,2.0.10.353,10/17/2018,10/17/2018 17:54,13:54:27,2.0.10.248,2,2,1,2,,,,,,,,TrainingProc,BlockList,28,2,Distractor1.bmp,1,0,,0,1,258438,601,,0,0,blue,600,3,600,,horizontal,blue,Distractor1.bmp,yellow,Distractor1.bmp,lime,Distractor1.bmp,cyan,Distractor1.bmp,red,Target2.bmp,purple,Distractor1.bmp,,,,TrialProc,3,TrainingTrialList,1,2,-999999,1,259039,0,2,903,259942,Target2.bmp,red,2,,,,11,3,28
KW_Experiment5A,27,1,"<?xml version=""1.0""?>\n<Clock xmlns:dt=""urn:schemas-microsoft-com:datatypes""><Description dt:dt=""string"">E-Prime Primary Realtime Clock</Description><StartTime><Timestamp dt:dt=""int"">0</Timestamp><DateUtc dt:dt=""string"">2018-10-17T17:54:27Z</DateUtc></StartTime><FrequencyChanges><FrequencyChange><Frequency dt:dt=""r8"">3215292</Frequency><Timestamp dt:dt=""r8"">5858481517608</Timestamp><Current dt:dt=""r8"">0</Current><DateUtc dt:dt=""string"">2018-10-17T17:54:27Z</DateUtc></FrequencyChange></FrequencyChanges></Clock>\n",KW_Experiment5A-27-1,59.945,1.0.0.105,2,146770285,Professional,2.0.10.353,2.0.10.353,10/17/2018,10/17/2018 17:54,13:54:27,2.0.10.248,2,2,1,2,,,,,,,,TrainingProc,BlockList,29,1,Distractor1.bmp,1,0,,0,1,260957,601,,0,0,red,600,3,600,1,vertical,red,Distractor1.bmp,blue,Distractor1.bmp,yellow,Distractor1.bmp,lime,Target1.bmp,cyan,Distractor1.bmp,purple,Distractor1.bmp,,,,TrialProc,,TrainingTrialList,1,1,-999999,1,261558,0,1,976,262534,Target1.bmp,lime,1,,,,4,3,29
KW_Experiment5A,27,1,"<?xml version=""1.0""?>\n<Clock xmlns:dt=""urn:schemas-microsoft-com:datatypes""><Description dt:dt=""string"">E-Prime Primary Realtime Clock</Description><StartTime><Timestamp dt:dt=""int"">0</Timestamp><DateUtc dt:dt=""string"">2018-10-17T17:54:27Z</DateUtc></StartTime><FrequencyChanges><FrequencyChange><Frequency dt:dt=""r8"">3215292</Frequency><Timestamp dt:dt=""r8"">5858481517608</Timestamp><Current dt:dt=""r8"">0</Current><DateUtc dt:dt=""string"">2018-10-17T17:54:27Z</DateUtc></FrequencyChange></FrequencyChanges></Clock>\n",KW_Experiment5A-27-1,59.945,1.0.0.105,2,146770285,Professional,2.0.10.353,2.0.10.353,10/17/2018,10/17/2018 17:54,13:54:27,2.0.10.248,2,2,1,2,,,,,,,,TrainingProc,BlockList,30,1,Distractor1.bmp,1,0,,0,1,263560,400,,0,0,purple,400,1,400,,vertical,purple,Distractor1.bmp,lime,Distractor1.bmp,blue,Distractor1.bmp,red,Target1.bmp,cyan,Distractor1.bmp,yellow,Distractor1.bmp,,,,TrialProc,5,TrainingTrialList,1,1,-999999,0,263960,0,1,494,264454,Target1.bmp,red,1,,,,10,3,30
KW_Experiment5A,27,1,"<?xml version=""1.0""?>\n<Clock xmlns:dt=""urn:schemas-microsoft-com:datatypes""><Description dt:dt=""string"">E-Prime Primary Realtime Clock</Description><StartTime><Timestamp dt:dt=""int"">0</Timestamp><DateUtc dt:dt=""string"">2018-10-17T17:54:27Z</DateUtc></StartTime><FrequencyChanges><FrequencyChange><Frequency dt:dt=""r8"">3215292</Frequency><Timestamp dt:dt=""r8"">5858481517608</Timestamp><Current dt:dt=""r8"">0</Current><DateUtc dt:dt=""string"">2018-10-17T17:54:27Z</DateUtc></FrequencyChange></FrequencyChanges></Clock>\n",KW_Experiment5A-27-1,59.945,1.0.0.105,2,146770285,Professional,2.0.10.353,2.0.10.353,10/17/2018,10/17/2018 17:54,13:54:27,2.0.10.248,2,2,1,2,,,,,,,,TrainingProc,BlockList,31,2,Distractor2.bmp,2,0,,0,1,265478,500,,0,0,blue,500,2,500,3,horizontal,blue,Distractor1.bmp,cyan,Distractor2.bmp,purple,Distractor1.bmp,red,Distractor2.bmp,lime,Target2.bmp,yellow,Distractor2.bmp,,,,TrialProc,,TrainingTrialList,1,2,-999999,0,265978,0,2,523,266501,Target2.bmp,lime,2,,,,5,3,31
KW_Experiment5A,27,1,"<?xml version=""1.0""?>\n<Clock xmlns:dt=""urn:schemas-microsoft-com:datatypes""><Description dt:dt=""string"">E-Prime Primary Realtime Clock</Description><StartTime><Timestamp dt:dt=""int"">0</Timestamp><DateUtc dt:dt=""string"">2018-10-17T17:54:27Z</DateUtc></StartTime><FrequencyChanges><FrequencyChange><Frequency dt:dt=""r8"">3215292</Frequency><Timestamp dt:dt=""r8"">5858481517608</Timestamp><Current dt:dt=""r8"">0</Current><DateUtc dt:dt=""string"">2018-10-17T17:54:27Z</DateUtc></FrequencyChange></FrequencyChanges></Clock>\n",KW_Experiment5A-27-1,59.945,1.0.0.105,2,146770285,Professional,2.0.10.353,2.0.10.353,10/17/2018,10/17/2018 17:54,13:54:27,2.0.10.248,2,2,1,2,,,,,,,,TrainingProc,BlockList,32,2,Distractor1.bmp,1,0,,0,1,267513,501,,0,0,purple,500,2,500,,horizontal,purple,Distractor2.bmp,lime,Distractor2.bmp,blue,Distractor2.bmp,red,Target2.bmp,cyan,Distractor1.bmp,yellow,Distractor1.bmp,,,,TrialProc,5,TrainingTrialList,1,2,-999999,1,268014,0,2,1015,269029,Target2.bmp,red,2,,,,10,3,32
KW_Experiment5A,27,1,"<?xml version=""1.0""?>\n<Clock xmlns:dt=""urn:schemas-microsoft-com:datatypes""><Description dt:dt=""string"">E-Prime Primary Realtime Clock</Description><StartTime><Timestamp dt:dt=""int"">0</Timestamp><DateUtc dt:dt=""string"">2018-10-17T17:54:27Z</DateUtc></StartTime><FrequencyChanges><FrequencyChange><Frequency dt:dt=""r8"">3215292</Frequency><Timestamp dt:dt=""r8"">5858481517608</Timestamp><Current dt:dt=""r8"">0</Current><DateUtc dt:dt=""string"">2018-10-17T17:54:27Z</DateUtc></FrequencyChange></FrequencyChanges></Clock>\n",KW_Experiment5A-27-1,59.945,1.0.0.105,2,146770285,Professional,2.0.10.353,2.0.10.353,10/17/2018,10/17/2018 17:54,13:54:27,2.0.10.248,2,2,1,2,,,,,,,,TrainingProc,BlockList,33,2,Distractor2.bmp,2,0,,0,1,270049,500,,0,0,yellow,500,2,500,,horizontal,yellow,Distractor1.bmp,cyan,Distractor2.bmp,purple,Distractor2.bmp,lime,Distractor2.bmp,red,Target2.bmp,blue,Distractor2.bmp,,,,TrialProc,2,TrainingTrialList,0,2,-999999,0,270549,0,1,680,271229,Target2.bmp,red,2,,,,11,3,33
KW_Experiment5A,27,1,"<?xml version=""1.0""?>\n<Clock xmlns:dt=""urn:schemas-microsoft-com:datatypes""><Description dt:dt=""string"">E-Prime Primary Realtime Clock</Description><StartTime><Timestamp dt:dt=""int"">0</Timestamp><DateUtc dt:dt=""string"">2018-10-17T17:54:27Z</DateUtc></StartTime><FrequencyChanges><FrequencyChange><Frequency dt:dt=""r8"">3215292</Frequency><Timestamp dt:dt=""r8"">5858481517608</Timestamp><Current dt:dt=""r8"">0</Current><DateUtc dt:dt=""string"">2018-10-17T17:54:27Z</DateUtc></FrequencyChange></FrequencyChanges></Clock>\n",KW_Experiment5A-27-1,59.945,1.0.0.105,2,146770285,Professional,2.0.10.353,2.0.10.353,10/17/2018,10/17/2018 17:54,13:54:27,2.0.10.248,2,2,1,2,,,,,,,,TrainingProc,BlockList,34,1,Distractor1.bmp,1,0,,0,1,272251,600,,0,0,yellow,600,3,600,,vertical,red,Target1.bmp,cyan,Distractor1.bmp,purple,Distractor1.bmp,lime,Distractor1.bmp,blue,Distractor1.bmp,yellow,Distractor2.bmp,,,,TrialProc,2,TrainingTrialList,1,1,-999999,0,272851,0,1,954,273805,Target1.bmp,red,1,,,,7,3,34
KW_Experiment5A,27,1,"<?xml version=""1.0""?>\n<Clock xmlns:dt=""urn:schemas-microsoft-com:datatypes""><Description dt:dt=""string"">E-Prime Primary Realtime Clock</Description><StartTime><Timestamp dt:dt=""int"">0</Timestamp><DateUtc dt:dt=""string"">2018-10-17T17:54:27Z</DateUtc></StartTime><FrequencyChanges><FrequencyChange><Frequency dt:dt=""r8"">3215292</Frequency><Timestamp dt:dt=""r8"">5858481517608</Timestamp><Current dt:dt=""r8"">0</Current><DateUtc dt:dt=""string"">2018-10-17T17:54:27Z</DateUtc></FrequencyChange></FrequencyChanges></Clock>\n",KW_Experiment5A-27-1,59.945,1.0.0.105,2,146770285,Professional,2.0.10.353,2.0.10.353,10/17/2018,10/17/2018 17:54,13:54:27,2.0.10.248,2,2,1,2,,,,,,,,TrainingProc,BlockList,35,2,Distractor2.bmp,2,0,,0,1,274820,500,,0,0,cyan,500,2,500,4,horizontal,lime,Target2.bmp,cyan,Distractor2.bmp,purple,Distractor1.bmp,yellow,Distractor1.bmp,red,Distractor1.bmp,blue,Distractor1.bmp,,,,TrialProc,,TrainingTrialList,1,2,-999999,0,275320,0,2,541,275861,Target2.bmp,lime,2,,,,1,3,35
KW_Experiment5A,27,1,"<?xml version=""1.0""?>\n<Clock xmlns:dt=""urn:schemas-microsoft-com:datatypes""><Description dt:dt=""string"">E-Prime Primary Realtime Clock</Description><StartTime><Timestamp dt:dt=""int"">0</Timestamp><DateUtc dt:dt=""string"">2018-10-17T17:54:27Z</DateUtc></StartTime><FrequencyChanges><FrequencyChange><Frequency dt:dt=""r8"">3215292</Frequency><Timestamp dt:dt=""r8"">5858481517608</Timestamp><Current dt:dt=""r8"">0</Current><DateUtc dt:dt=""string"">2018-10-17T17:54:27Z</DateUtc></FrequencyChange></FrequencyChanges></Clock>\n",KW_Experiment5A-27-1,59.945,1.0.0.105,2,146770285,Professional,2.0.10.353,2.0.10.353,10/17/2018,10/17/2018 17:54,13:54:27,2.0.10.248,2,2,1,2,,,,,,,,TrainingProc,BlockList,36,1,Distractor1.bmp,1,0,,0,1,276872,500,,0,0,purple,500,2,500,,vertical,purple,Distractor1.bmp,cyan,Distractor2.bmp,lime,Distractor2.bmp,blue,Distractor1.bmp,yellow,Distractor1.bmp,red,Target1.bmp,,,,TrialProc,5,TrainingTrialList,1,1,-999999,0,277372,0,1,913,278285,Target1.bmp,red,1,,,,12,3,36
KW_Experiment5A,27,1,"<?xml version=""1.0""?>\n<Clock xmlns:dt=""urn:schemas-microsoft-com:datatypes""><Description dt:dt=""string"">E-Prime Primary Realtime Clock</Description><StartTime><Timestamp dt:dt=""int"">0</Timestamp><DateUtc dt:dt=""string"">2018-10-17T17:54:27Z</DateUtc></StartTime><FrequencyChanges><FrequencyChange><Frequency dt:dt=""r8"">3215292</Frequency><Timestamp dt:dt=""r8"">5858481517608</Timestamp><Current dt:dt=""r8"">0</Current><DateUtc dt:dt=""string"">2018-10-17T17:54:27Z</DateUtc></FrequencyChange></FrequencyChanges></Clock>\n",KW_Experiment5A-27-1,59.945,1.0.0.105,2,146770285,Professional,2.0.10.353,2.0.10.353,10/17/2018,10/17/2018 17:54,13:54:27,2.0.10.248,2,2,1,2,,,,,,,,TrainingProc,BlockList,37,1,Distractor2.bmp,2,0,,0,1,279307,501,,0,0,yellow,500,2,500,,vertical,yellow,Distractor2.bmp,purple,Distractor2.bmp,red,Target1.bmp,blue,Distractor2.bmp,cyan,Distractor1.bmp,lime,Distractor1.bmp,,,,TrialProc,2,TrainingTrialList,1,1,-999999,1,279808,0,1,821,280629,Target1.bmp,red,1,,,,9,3,37
KW_Experiment5A,27,1,"<?xml version=""1.0""?>\n<Clock xmlns:dt=""urn:schemas-microsoft-com:datatypes""><Description dt:dt=""string"">E-Prime Primary Realtime Clock</Description><StartTime><Timestamp dt:dt=""int"">0</Timestamp><DateUtc dt:dt=""string"">2018-10-17T17:54:27Z</DateUtc></StartTime><FrequencyChanges><FrequencyChange><Frequency dt:dt=""r8"">3215292</Frequency><Timestamp dt:dt=""r8"">5858481517608</Timestamp><Current dt:dt=""r8"">0</Current><DateUtc dt:dt=""string"">2018-10-17T17:54:27Z</DateUtc></FrequencyChange></FrequencyChanges></Clock>\n",KW_Experiment5A-27-1,59.945,1.0.0.105,2,146770285,Professional,2.0.10.353,2.0.10.353,10/17/2018,10/17/2018 17:54,13:54:27,2.0.10.248,2,2,1,2,,,,,,,,TrainingProc,BlockList,38,2,Distractor1.bmp,1,0,,0,1,281643,600,,0,0,blue,600,3,600,,horizontal,red,Target2.bmp,lime,Distractor1.bmp,cyan,Distractor1.bmp,purple,Distractor2.bmp,yellow,Distractor1.bmp,blue,Distractor1.bmp,,,,TrialProc,3,TrainingTrialList,1,2,-999999,0,282243,0,2,546,282789,Target2.bmp,red,2,,,,7,3,38
KW_Experiment5A,27,1,"<?xml version=""1.0""?>\n<Clock xmlns:dt=""urn:schemas-microsoft-com:datatypes""><Description dt:dt=""string"">E-Prime Primary Realtime Clock</Description><StartTime><Timestamp dt:dt=""int"">0</Timestamp><DateUtc dt:dt=""string"">2018-10-17T17:54:27Z</DateUtc></StartTime><FrequencyChanges><FrequencyChange><Frequency dt:dt=""r8"">3215292</Frequency><Timestamp dt:dt=""r8"">5858481517608</Timestamp><Current dt:dt=""r8"">0</Current><DateUtc dt:dt=""string"">2018-10-17T17:54:27Z</DateUtc></FrequencyChange></FrequencyChanges></Clock>\n",KW_Experiment5A-27-1,59.945,1.0.0.105,2,146770285,Professional,2.0.10.353,2.0.10.353,10/17/2018,10/17/2018 17:54,13:54:27,2.0.10.248,2,2,1,2,,,,,,,,TrainingProc,BlockList,39,2,Distractor2.bmp,2,0,,0,1,283811,501,,0,0,cyan,500,2,500,,horizontal,cyan,Distractor2.bmp,red,Target2.bmp,lime,Distractor2.bmp,yellow,Distractor2.bmp,purple,Distractor1.bmp,blue,Distractor1.bmp,,,,TrialProc,4,TrainingTrialList,1,2,-999999,1,284312,0,2,821,285133,Target2.bmp,red,2,,,,8,3,39
KW_Experiment5A,27,1,"<?xml version=""1.0""?>\n<Clock xmlns:dt=""urn:schemas-microsoft-com:datatypes""><Description dt:dt=""string"">E-Prime Primary Realtime Clock</Description><StartTime><Timestamp dt:dt=""int"">0</Timestamp><DateUtc dt:dt=""string"">2018-10-17T17:54:27Z</DateUtc></StartTime><FrequencyChanges><FrequencyChange><Frequency dt:dt=""r8"">3215292</Frequency><Timestamp dt:dt=""r8"">5858481517608</Timestamp><Current dt:dt=""r8"">0</Current><DateUtc dt:dt=""string"">2018-10-17T17:54:27Z</DateUtc></FrequencyChange></FrequencyChanges></Clock>\n",KW_Experiment5A-27-1,59.945,1.0.0.105,2,146770285,Professional,2.0.10.353,2.0.10.353,10/17/2018,10/17/2018 17:54,13:54:27,2.0.10.248,2,2,1,2,,,,,,,,TrainingProc,BlockList,40,2,Distractor1.bmp,1,0,,0,1,286147,400,,0,0,red,400,1,400,1,horizontal,red,Distractor1.bmp,lime,Target2.bmp,blue,Distractor1.bmp,yellow,Distractor1.bmp,purple,Distractor2.bmp,cyan,Distractor1.bmp,,,,TrialProc,,TrainingTrialList,1,2,-999999,0,286547,0,2,418,286965,Target2.bmp,lime,2,,,,2,3,40
KW_Experiment5A,27,1,"<?xml version=""1.0""?>\n<Clock xmlns:dt=""urn:schemas-microsoft-com:datatypes""><Description dt:dt=""string"">E-Prime Primary Realtime Clock</Description><StartTime><Timestamp dt:dt=""int"">0</Timestamp><DateUtc dt:dt=""string"">2018-10-17T17:54:27Z</DateUtc></StartTime><FrequencyChanges><FrequencyChange><Frequency dt:dt=""r8"">3215292</Frequency><Timestamp dt:dt=""r8"">5858481517608</Timestamp><Current dt:dt=""r8"">0</Current><DateUtc dt:dt=""string"">2018-10-17T17:54:27Z</DateUtc></FrequencyChange></FrequencyChanges></Clock>\n",KW_Experiment5A-27-1,59.945,1.0.0.105,2,146770285,Professional,2.0.10.353,2.0.10.353,10/17/2018,10/17/2018 17:54,13:54:27,2.0.10.248,2,2,1,2,,,,,,,,TrainingProc,BlockList,41,1,Distractor1.bmp,1,0,,0,1,287982,400,,0,0,lime,400,1,400,,vertical,lime,Distractor2.bmp,blue,Distractor1.bmp,red,Target1.bmp,purple,Distractor1.bmp,yellow,Distractor2.bmp,cyan,Distractor1.bmp,,,,TrialProc,6,TrainingTrialList,1,1,-999999,0,288382,0,1,863,289245,Target1.bmp,red,1,,,,9,3,41
KW_Experiment5A,27,1,"<?xml version=""1.0""?>\n<Clock xmlns:dt=""urn:schemas-microsoft-com:datatypes""><Description dt:dt=""string"">E-Prime Primary Realtime Clock</Description><StartTime><Timestamp dt:dt=""int"">0</Timestamp><DateUtc dt:dt=""string"">2018-10-17T17:54:27Z</DateUtc></StartTime><FrequencyChanges><FrequencyChange><Frequency dt:dt=""r8"">3215292</Frequency><Timestamp dt:dt=""r8"">5858481517608</Timestamp><Current dt:dt=""r8"">0</Current><DateUtc dt:dt=""string"">2018-10-17T17:54:27Z</DateUtc></FrequencyChange></FrequencyChanges></Clock>\n",KW_Experiment5A-27-1,59.945,1.0.0.105,2,146770285,Professional,2.0.10.353,2.0.10.353,10/17/2018,10/17/2018 17:54,13:54:27,2.0.10.248,2,2,1,2,,,,,,,,TrainingProc,BlockList,42,2,Distractor2.bmp,2,0,,0,1,290267,501,,0,0,blue,500,2,500,,horizontal,blue,Distractor2.bmp,yellow,Distractor2.bmp,lime,Distractor1.bmp,red,Target2.bmp,purple,Distractor2.bmp,cyan,Distractor2.bmp,,,,TrialProc,3,TrainingTrialList,1,2,-999999,1,290768,0,2,677,291445,Target2.bmp,red,2,,,,10,3,42
KW_Experiment5A,27,1,"<?xml version=""1.0""?>\n<Clock xmlns:dt=""urn:schemas-microsoft-com:datatypes""><Description dt:dt=""string"">E-Prime Primary Realtime Clock</Description><StartTime><Timestamp dt:dt=""int"">0</Timestamp><DateUtc dt:dt=""string"">2018-10-17T17:54:27Z</DateUtc></StartTime><FrequencyChanges><FrequencyChange><Frequency dt:dt=""r8"">3215292</Frequency><Timestamp dt:dt=""r8"">5858481517608</Timestamp><Current dt:dt=""r8"">0</Current><DateUtc dt:dt=""string"">2018-10-17T17:54:27Z</DateUtc></FrequencyChange></FrequencyChanges></Clock>\n",KW_Experiment5A-27-1,59.945,1.0.0.105,2,146770285,Professional,2.0.10.353,2.0.10.353,10/17/2018,10/17/2018 17:54,13:54:27,2.0.10.248,2,2,1,2,,,,,,,,TrainingProc,BlockList,43,1,Distractor2.bmp,2,0,,0,1,292469,400,,0,0,cyan,400,1,400,,vertical,cyan,Distractor2.bmp,yellow,Distractor1.bmp,purple,Distractor2.bmp,lime,Distractor2.bmp,red,Target1.bmp,blue,Distractor2.bmp,,,,TrialProc,4,TrainingTrialList,1,1,-999999,0,292869,0,1,632,293501,Target1.bmp,red,1,,,,11,3,43
KW_Experiment5A,27,1,"<?xml version=""1.0""?>\n<Clock xmlns:dt=""urn:schemas-microsoft-com:datatypes""><Description dt:dt=""string"">E-Prime Primary Realtime Clock</Description><StartTime><Timestamp dt:dt=""int"">0</Timestamp><DateUtc dt:dt=""string"">2018-10-17T17:54:27Z</DateUtc></StartTime><FrequencyChanges><FrequencyChange><Frequency dt:dt=""r8"">3215292</Frequency><Timestamp dt:dt=""r8"">5858481517608</Timestamp><Current dt:dt=""r8"">0</Current><DateUtc dt:dt=""string"">2018-10-17T17:54:27Z</DateUtc></FrequencyChange></FrequencyChanges></Clock>\n",KW_Experiment5A-27-1,59.945,1.0.0.105,2,146770285,Professional,2.0.10.353,2.0.10.353,10/17/2018,10/17/2018 17:54,13:54:27,2.0.10.248,2,2,1,2,,,,,,,,TrainingProc,BlockList,44,2,Distractor2.bmp,2,0,,0,1,294521,400,,0,0,purple,400,1,400,,horizontal,purple,Distractor1.bmp,red,Target2.bmp,lime,Distractor2.bmp,yellow,Distractor1.bmp,cyan,Distractor2.bmp,blue,Distractor2.bmp,,,,TrialProc,5,TrainingTrialList,1,2,-999999,0,294921,0,2,868,295789,Target2.bmp,red,2,,,,8,3,44
KW_Experiment5A,27,1,"<?xml version=""1.0""?>\n<Clock xmlns:dt=""urn:schemas-microsoft-com:datatypes""><Description dt:dt=""string"">E-Prime Primary Realtime Clock</Description><StartTime><Timestamp dt:dt=""int"">0</Timestamp><DateUtc dt:dt=""string"">2018-10-17T17:54:27Z</DateUtc></StartTime><FrequencyChanges><FrequencyChange><Frequency dt:dt=""r8"">3215292</Frequency><Timestamp dt:dt=""r8"">5858481517608</Timestamp><Current dt:dt=""r8"">0</Current><DateUtc dt:dt=""string"">2018-10-17T17:54:27Z</DateUtc></FrequencyChange></FrequencyChanges></Clock>\n",KW_Experiment5A-27-1,59.945,1.0.0.105,2,146770285,Professional,2.0.10.353,2.0.10.353,10/17/2018,10/17/2018 17:54,13:54:27,2.0.10.248,2,2,1,2,,,,,,,,TrainingProc,BlockList,45,1,Distractor2.bmp,2,0,,0,0,296806,501,,0,0,lime,500,2,500,,vertical,lime,Distractor2.bmp,blue,Distractor2.bmp,purple,Distractor1.bmp,yellow,Distractor2.bmp,cyan,Distractor2.bmp,red,Target1.bmp,,,,TrialProc,6,TrainingTrialList,1,1,-999999,1,297307,0,1,602,297909,Target1.bmp,red,1,,,,12,3,45
KW_Experiment5A,27,1,"<?xml version=""1.0""?>\n<Clock xmlns:dt=""urn:schemas-microsoft-com:datatypes""><Description dt:dt=""string"">E-Prime Primary Realtime Clock</Description><StartTime><Timestamp dt:dt=""int"">0</Timestamp><DateUtc dt:dt=""string"">2018-10-17T17:54:27Z</DateUtc></StartTime><FrequencyChanges><FrequencyChange><Frequency dt:dt=""r8"">3215292</Frequency><Timestamp dt:dt=""r8"">5858481517608</Timestamp><Current dt:dt=""r8"">0</Current><DateUtc dt:dt=""string"">2018-10-17T17:54:27Z</DateUtc></FrequencyChange></FrequencyChanges></Clock>\n",KW_Experiment5A-27-1,59.945,1.0.0.105,2,146770285,Professional,2.0.10.353,2.0.10.353,10/17/2018,10/17/2018 17:54,13:54:27,2.0.10.248,2,2,1,2,,,,,,,,TrainingProc,BlockList,46,2,Distractor1.bmp,1,0,,0,1,298925,601,,0,0,cyan,600,3,600,4,horizontal,cyan,Distractor1.bmp,red,Distractor1.bmp,blue,Distractor2.bmp,yellow,Distractor1.bmp,purple,Distractor2.bmp,lime,Target2.bmp,,,,TrialProc,,TrainingTrialList,1,2,-999999,1,299526,0,2,871,300397,Target2.bmp,lime,2,,,,6,3,46
KW_Experiment5A,27,1,"<?xml version=""1.0""?>\n<Clock xmlns:dt=""urn:schemas-microsoft-com:datatypes""><Description dt:dt=""string"">E-Prime Primary Realtime Clock</Description><StartTime><Timestamp dt:dt=""int"">0</Timestamp><DateUtc dt:dt=""string"">2018-10-17T17:54:27Z</DateUtc></StartTime><FrequencyChanges><FrequencyChange><Frequency dt:dt=""r8"">3215292</Frequency><Timestamp dt:dt=""r8"">5858481517608</Timestamp><Current dt:dt=""r8"">0</Current><DateUtc dt:dt=""string"">2018-10-17T17:54:27Z</DateUtc></FrequencyChange></FrequencyChanges></Clock>\n",KW_Experiment5A-27-1,59.945,1.0.0.105,2,146770285,Professional,2.0.10.353,2.0.10.353,10/17/2018,10/17/2018 17:54,13:54:27,2.0.10.248,2,2,1,2,,,,,,,,TrainingProc,BlockList,47,1,Distractor2.bmp,2,0,,0,1,301411,500,,0,0,yellow,500,2,500,2,vertical,yellow,Distractor2.bmp,blue,Distractor2.bmp,lime,Target1.bmp,purple,Distractor2.bmp,cyan,Distractor2.bmp,red,Distractor1.bmp,,,,TrialProc,,TrainingTrialList,1,1,-999999,0,301911,0,1,662,302573,Target1.bmp,lime,1,,,,3,3,47
KW_Experiment5A,27,1,"<?xml version=""1.0""?>\n<Clock xmlns:dt=""urn:schemas-microsoft-com:datatypes""><Description dt:dt=""string"">E-Prime Primary Realtime Clock</Description><StartTime><Timestamp dt:dt=""int"">0</Timestamp><DateUtc dt:dt=""string"">2018-10-17T17:54:27Z</DateUtc></StartTime><FrequencyChanges><FrequencyChange><Frequency dt:dt=""r8"">3215292</Frequency><Timestamp dt:dt=""r8"">5858481517608</Timestamp><Current dt:dt=""r8"">0</Current><DateUtc dt:dt=""string"">2018-10-17T17:54:27Z</DateUtc></FrequencyChange></FrequencyChanges></Clock>\n",KW_Experiment5A-27-1,59.945,1.0.0.105,2,146770285,Professional,2.0.10.353,2.0.10.353,10/17/2018,10/17/2018 17:54,13:54:27,2.0.10.248,2,2,1,2,,,,,,,,TrainingProc,BlockList,48,2,Distractor2.bmp,2,0,,0,1,303596,600,,0,0,cyan,600,3,600,,horizontal,cyan,Distractor2.bmp,blue,Distractor1.bmp,red,Target2.bmp,yellow,Distractor2.bmp,lime,Distractor1.bmp,purple,Distractor1.bmp,,,,TrialProc,4,TrainingTrialList,1,2,-999999,0,304196,0,2,601,304797,Target2.bmp,red,2,,,,9,3,48
KW_Experiment5A,27,1,"<?xml version=""1.0""?>\n<Clock xmlns:dt=""urn:schemas-microsoft-com:datatypes""><Description dt:dt=""string"">E-Prime Primary Realtime Clock</Description><StartTime><Timestamp dt:dt=""int"">0</Timestamp><DateUtc dt:dt=""string"">2018-10-17T17:54:27Z</DateUtc></StartTime><FrequencyChanges><FrequencyChange><Frequency dt:dt=""r8"">3215292</Frequency><Timestamp dt:dt=""r8"">5858481517608</Timestamp><Current dt:dt=""r8"">0</Current><DateUtc dt:dt=""string"">2018-10-17T17:54:27Z</DateUtc></FrequencyChange></FrequencyChanges></Clock>\n",KW_Experiment5A-27-1,59.945,1.0.0.105,2,146770285,Professional,2.0.10.353,2.0.10.353,10/17/2018,10/17/2018 17:54,13:54:27,2.0.10.248,3,2,1,3,,,,,,,,TrainingProc,BlockList,1,2,Distractor1.bmp,1,0,,0,29,308817,401,,0,0,yellow,400,1,400,,horizontal,yellow,Distractor1.bmp,blue,Distractor1.bmp,lime,Distractor1.bmp,cyan,Distractor2.bmp,red,Target2.bmp,purple,Distractor1.bmp,,,,TrialProc,2,TrainingTrialList,1,2,-999999,1,309218,0,2,1138,310356,Target2.bmp,red,2,,,,11,4,49
KW_Experiment5A,27,1,"<?xml version=""1.0""?>\n<Clock xmlns:dt=""urn:schemas-microsoft-com:datatypes""><Description dt:dt=""string"">E-Prime Primary Realtime Clock</Description><StartTime><Timestamp dt:dt=""int"">0</Timestamp><DateUtc dt:dt=""string"">2018-10-17T17:54:27Z</DateUtc></StartTime><FrequencyChanges><FrequencyChange><Frequency dt:dt=""r8"">3215292</Frequency><Timestamp dt:dt=""r8"">5858481517608</Timestamp><Current dt:dt=""r8"">0</Current><DateUtc dt:dt=""string"">2018-10-17T17:54:27Z</DateUtc></FrequencyChange></FrequencyChanges></Clock>\n",KW_Experiment5A-27-1,59.945,1.0.0.105,2,146770285,Professional,2.0.10.353,2.0.10.353,10/17/2018,10/17/2018 17:54,13:54:27,2.0.10.248,3,2,1,3,,,,,,,,TrainingProc,BlockList,2,2,Distractor2.bmp,2,0,,0,1,311370,400,,0,0,purple,400,1,400,5,horizontal,purple,Distractor2.bmp,yellow,Distractor2.bmp,blue,Distractor2.bmp,lime,Target2.bmp,red,Distractor2.bmp,cyan,Distractor2.bmp,,,,TrialProc,,TrainingTrialList,1,2,-999999,0,311770,0,2,786,312556,Target2.bmp,lime,2,,,,4,4,50
KW_Experiment5A,27,1,"<?xml version=""1.0""?>\n<Clock xmlns:dt=""urn:schemas-microsoft-com:datatypes""><Description dt:dt=""string"">E-Prime Primary Realtime Clock</Description><StartTime><Timestamp dt:dt=""int"">0</Timestamp><DateUtc dt:dt=""string"">2018-10-17T17:54:27Z</DateUtc></StartTime><FrequencyChanges><FrequencyChange><Frequency dt:dt=""r8"">3215292</Frequency><Timestamp dt:dt=""r8"">5858481517608</Timestamp><Current dt:dt=""r8"">0</Current><DateUtc dt:dt=""string"">2018-10-17T17:54:27Z</DateUtc></FrequencyChange></FrequencyChanges></Clock>\n",KW_Experiment5A-27-1,59.945,1.0.0.105,2,146770285,Professional,2.0.10.353,2.0.10.353,10/17/2018,10/17/2018 17:54,13:54:27,2.0.10.248,3,2,1,3,,,,,,,,TrainingProc,BlockList,3,2,Distractor2.bmp,2,0,,0,1,313572,400,,0,0,blue,400,1,400,,horizontal,red,Target2.bmp,purple,Distractor2.bmp,yellow,Distractor2.bmp,cyan,Distractor2.bmp,lime,Distractor1.bmp,blue,Distractor1.bmp,,,,TrialProc,3,TrainingTrialList,1,2,-999999,0,313972,0,2,832,314804,Target2.bmp,red,2,,,,7,4,51
KW_Experiment5A,27,1,"<?xml version=""1.0""?>\n<Clock xmlns:dt=""urn:schemas-microsoft-com:datatypes""><Description dt:dt=""string"">E-Prime Primary Realtime Clock</Description><StartTime><Timestamp dt:dt=""int"">0</Timestamp><DateUtc dt:dt=""string"">2018-10-17T17:54:27Z</DateUtc></StartTime><FrequencyChanges><FrequencyChange><Frequency dt:dt=""r8"">3215292</Frequency><Timestamp dt:dt=""r8"">5858481517608</Timestamp><Current dt:dt=""r8"">0</Current><DateUtc dt:dt=""string"">2018-10-17T17:54:27Z</DateUtc></FrequencyChange></FrequencyChanges></Clock>\n",KW_Experiment5A-27-1,59.945,1.0.0.105,2,146770285,Professional,2.0.10.353,2.0.10.353,10/17/2018,10/17/2018 17:54,13:54:27,2.0.10.248,3,2,1,3,,,,,,,,TrainingProc,BlockList,4,1,Distractor2.bmp,2,0,,0,1,315824,400,,0,0,cyan,400,1,400,,vertical,cyan,Distractor2.bmp,lime,Distractor2.bmp,blue,Distractor2.bmp,red,Target1.bmp,purple,Distractor2.bmp,yellow,Distractor1.bmp,,,,TrialProc,4,TrainingTrialList,1,1,-999999,0,316224,0,1,812,317036,Target1.bmp,red,1,,,,10,4,52
KW_Experiment5A,27,1,"<?xml version=""1.0""?>\n<Clock xmlns:dt=""urn:schemas-microsoft-com:datatypes""><Description dt:dt=""string"">E-Prime Primary Realtime Clock</Description><StartTime><Timestamp dt:dt=""int"">0</Timestamp><DateUtc dt:dt=""string"">2018-10-17T17:54:27Z</DateUtc></StartTime><FrequencyChanges><FrequencyChange><Frequency dt:dt=""r8"">3215292</Frequency><Timestamp dt:dt=""r8"">5858481517608</Timestamp><Current dt:dt=""r8"">0</Current><DateUtc dt:dt=""string"">2018-10-17T17:54:27Z</DateUtc></FrequencyChange></FrequencyChanges></Clock>\n",KW_Experiment5A-27-1,59.945,1.0.0.105,2,146770285,Professional,2.0.10.353,2.0.10.353,10/17/2018,10/17/2018 17:54,13:54:27,2.0.10.248,3,2,1,3,,,,,,,,TrainingProc,BlockList,5,1,Distractor1.bmp,1,0,,0,1,318059,400,,0,0,blue,400,1,400,3,vertical,blue,Distractor1.bmp,cyan,Distractor2.bmp,purple,Distractor2.bmp,red,Distractor2.bmp,lime,Target1.bmp,yellow,Distractor1.bmp,,,,TrialProc,,TrainingTrialList,0,1,-999999,0,318459,0,2,585,319044,Target1.bmp,lime,1,,,,5,4,53
KW_Experiment5A,27,1,"<?xml version=""1.0""?>\n<Clock xmlns:dt=""urn:schemas-microsoft-com:datatypes""><Description dt:dt=""string"">E-Prime Primary Realtime Clock</Description><StartTime><Timestamp dt:dt=""int"">0</Timestamp><DateUtc dt:dt=""string"">2018-10-17T17:54:27Z</DateUtc></StartTime><FrequencyChanges><FrequencyChange><Frequency dt:dt=""r8"">3215292</Frequency><Timestamp dt:dt=""r8"">5858481517608</Timestamp><Current dt:dt=""r8"">0</Current><DateUtc dt:dt=""string"">2018-10-17T17:54:27Z</DateUtc></FrequencyChange></FrequencyChanges></Clock>\n",KW_Experiment5A-27-1,59.945,1.0.0.105,2,146770285,Professional,2.0.10.353,2.0.10.353,10/17/2018,10/17/2018 17:54,13:54:27,2.0.10.248,3,2,1,3,,,,,,,,TrainingProc,BlockList,6,1,Distractor1.bmp,1,0,,0,1,320061,400,,0,0,cyan,400,1,400,,vertical,cyan,Distractor2.bmp,purple,Distractor2.bmp,blue,Distractor1.bmp,red,Target1.bmp,lime,Distractor1.bmp,yellow,Distractor2.bmp,,,,TrialProc,4,TrainingTrialList,0,1,-999999,0,320461,0,2,607,321068,Target1.bmp,red,1,,,,10,4,54
KW_Experiment5A,27,1,"<?xml version=""1.0""?>\n<Clock xmlns:dt=""urn:schemas-microsoft-com:datatypes""><Description dt:dt=""string"">E-Prime Primary Realtime Clock</Description><StartTime><Timestamp dt:dt=""int"">0</Timestamp><DateUtc dt:dt=""string"">2018-10-17T17:54:27Z</DateUtc></StartTime><FrequencyChanges><FrequencyChange><Frequency dt:dt=""r8"">3215292</Frequency><Timestamp dt:dt=""r8"">5858481517608</Timestamp><Current dt:dt=""r8"">0</Current><DateUtc dt:dt=""string"">2018-10-17T17:54:27Z</DateUtc></FrequencyChange></FrequencyChanges></Clock>\n",KW_Experiment5A-27-1,59.945,1.0.0.105,2,146770285,Professional,2.0.10.353,2.0.10.353,10/17/2018,10/17/2018 17:54,13:54:27,2.0.10.248,3,2,1,3,,,,,,,,TrainingProc,BlockList,7,2,Distractor2.bmp,2,0,,0,1,322079,501,,0,0,purple,500,2,500,5,horizontal,lime,Target2.bmp,purple,Distractor2.bmp,blue,Distractor2.bmp,yellow,Distractor2.bmp,cyan,Distractor1.bmp,red,Distractor1.bmp,,,,TrialProc,,TrainingTrialList,1,2,-999999,1,322580,0,2,904,323484,Target2.bmp,lime,2,,,,1,4,55
KW_Experiment5A,27,1,"<?xml version=""1.0""?>\n<Clock xmlns:dt=""urn:schemas-microsoft-com:datatypes""><Description dt:dt=""string"">E-Prime Primary Realtime Clock</Description><StartTime><Timestamp dt:dt=""int"">0</Timestamp><DateUtc dt:dt=""string"">2018-10-17T17:54:27Z</DateUtc></StartTime><FrequencyChanges><FrequencyChange><Frequency dt:dt=""r8"">3215292</Frequency><Timestamp dt:dt=""r8"">5858481517608</Timestamp><Current dt:dt=""r8"">0</Current><DateUtc dt:dt=""string"">2018-10-17T17:54:27Z</DateUtc></FrequencyChange></FrequencyChanges></Clock>\n",KW_Experiment5A-27-1,59.945,1.0.0.105,2,146770285,Professional,2.0.10.353,2.0.10.353,10/17/2018,10/17/2018 17:54,13:54:27,2.0.10.248,3,2,1,3,,,,,,,,TrainingProc,BlockList,8,2,Distractor1.bmp,1,0,,0,1,324498,601,,0,0,yellow,600,3,600,2,horizontal,yellow,Distractor2.bmp,lime,Target2.bmp,cyan,Distractor1.bmp,purple,Distractor1.bmp,red,Distractor1.bmp,blue,Distractor1.bmp,,,,TrialProc,,TrainingTrialList,1,2,-999999,1,325099,0,2,945,326044,Target2.bmp,lime,2,,,,2,4,56
KW_Experiment5A,27,1,"<?xml version=""1.0""?>\n<Clock xmlns:dt=""urn:schemas-microsoft-com:datatypes""><Description dt:dt=""string"">E-Prime Primary Realtime Clock</Description><StartTime><Timestamp dt:dt=""int"">0</Timestamp><DateUtc dt:dt=""string"">2018-10-17T17:54:27Z</DateUtc></StartTime><FrequencyChanges><FrequencyChange><Frequency dt:dt=""r8"">3215292</Frequency><Timestamp dt:dt=""r8"">5858481517608</Timestamp><Current dt:dt=""r8"">0</Current><DateUtc dt:dt=""string"">2018-10-17T17:54:27Z</DateUtc></FrequencyChange></FrequencyChanges></Clock>\n",KW_Experiment5A-27-1,59.945,1.0.0.105,2,146770285,Professional,2.0.10.353,2.0.10.353,10/17/2018,10/17/2018 17:54,13:54:27,2.0.10.248,3,2,1,3,,,,,,,,TrainingProc,BlockList,9,2,Distractor2.bmp,2,0,,0,1,327067,601,,0,0,lime,600,3,600,,horizontal,lime,Distractor1.bmp,red,Target2.bmp,purple,Distractor2.bmp,cyan,Distractor1.bmp,blue,Distractor1.bmp,yellow,Distractor1.bmp,,,,TrialProc,6,TrainingTrialList,0,2,-999999,1,327668,0,1,688,328356,Target2.bmp,red,2,,,,8,4,57
KW_Experiment5A,27,1,"<?xml version=""1.0""?>\n<Clock xmlns:dt=""urn:schemas-microsoft-com:datatypes""><Description dt:dt=""string"">E-Prime Primary Realtime Clock</Description><StartTime><Timestamp dt:dt=""int"">0</Timestamp><DateUtc dt:dt=""string"">2018-10-17T17:54:27Z</DateUtc></StartTime><FrequencyChanges><FrequencyChange><Frequency dt:dt=""r8"">3215292</Frequency><Timestamp dt:dt=""r8"">5858481517608</Timestamp><Current dt:dt=""r8"">0</Current><DateUtc dt:dt=""string"">2018-10-17T17:54:27Z</DateUtc></FrequencyChange></FrequencyChanges></Clock>\n",KW_Experiment5A-27-1,59.945,1.0.0.105,2,146770285,Professional,2.0.10.353,2.0.10.353,10/17/2018,10/17/2018 17:54,13:54:27,2.0.10.248,3,2,1,3,,,,,,,,TrainingProc,BlockList,10,1,Distractor1.bmp,1,0,,0,1,329369,601,,0,0,lime,600,3,600,,vertical,lime,Distractor1.bmp,cyan,Distractor2.bmp,blue,Distractor2.bmp,yellow,Distractor1.bmp,purple,Distractor2.bmp,red,Target1.bmp,,,,TrialProc,6,TrainingTrialList,1,1,-999999,1,329970,0,1,650,330620,Target1.bmp,red,1,,,,12,4,58
KW_Experiment5A,27,1,"<?xml version=""1.0""?>\n<Clock xmlns:dt=""urn:schemas-microsoft-com:datatypes""><Description dt:dt=""string"">E-Prime Primary Realtime Clock</Description><StartTime><Timestamp dt:dt=""int"">0</Timestamp><DateUtc dt:dt=""string"">2018-10-17T17:54:27Z</DateUtc></StartTime><FrequencyChanges><FrequencyChange><Frequency dt:dt=""r8"">3215292</Frequency><Timestamp dt:dt=""r8"">5858481517608</Timestamp><Current dt:dt=""r8"">0</Current><DateUtc dt:dt=""string"">2018-10-17T17:54:27Z</DateUtc></FrequencyChange></FrequencyChanges></Clock>\n",KW_Experiment5A-27-1,59.945,1.0.0.105,2,146770285,Professional,2.0.10.353,2.0.10.353,10/17/2018,10/17/2018 17:54,13:54:27,2.0.10.248,3,2,1,3,,,,,,,,TrainingProc,BlockList,11,1,Distractor2.bmp,2,0,,0,1,331638,501,,0,0,blue,500,2,500,,vertical,blue,Distractor1.bmp,red,Target1.bmp,yellow,Distractor2.bmp,purple,Distractor1.bmp,cyan,Distractor1.bmp,lime,Distractor2.bmp,,,,TrialProc,3,TrainingTrialList,1,1,-999999,1,332139,0,1,1121,333260,Target1.bmp,red,1,,,,8,4,59
KW_Experiment5A,27,1,"<?xml version=""1.0""?>\n<Clock xmlns:dt=""urn:schemas-microsoft-com:datatypes""><Description dt:dt=""string"">E-Prime Primary Realtime Clock</Description><StartTime><Timestamp dt:dt=""int"">0</Timestamp><DateUtc dt:dt=""string"">2018-10-17T17:54:27Z</DateUtc></StartTime><FrequencyChanges><FrequencyChange><Frequency dt:dt=""r8"">3215292</Frequency><Timestamp dt:dt=""r8"">5858481517608</Timestamp><Current dt:dt=""r8"">0</Current><DateUtc dt:dt=""string"">2018-10-17T17:54:27Z</DateUtc></FrequencyChange></FrequencyChanges></Clock>\n",KW_Experiment5A-27-1,59.945,1.0.0.105,2,146770285,Professional,2.0.10.353,2.0.10.353,10/17/2018,10/17/2018 17:54,13:54:27,2.0.10.248,3,2,1,3,,,,,,,,TrainingProc,BlockList,12,2,Distractor1.bmp,1,0,,0,1,334274,600,,0,0,purple,600,3,600,,horizontal,purple,Distractor1.bmp,blue,Distractor2.bmp,yellow,Distractor2.bmp,lime,Distractor1.bmp,cyan,Distractor1.bmp,red,Target2.bmp,,,,TrialProc,5,TrainingTrialList,1,2,-999999,0,334874,0,2,530,335404,Target2.bmp,red,2,,,,12,4,60
KW_Experiment5A,27,1,"<?xml version=""1.0""?>\n<Clock xmlns:dt=""urn:schemas-microsoft-com:datatypes""><Description dt:dt=""string"">E-Prime Primary Realtime Clock</Description><StartTime><Timestamp dt:dt=""int"">0</Timestamp><DateUtc dt:dt=""string"">2018-10-17T17:54:27Z</DateUtc></StartTime><FrequencyChanges><FrequencyChange><Frequency dt:dt=""r8"">3215292</Frequency><Timestamp dt:dt=""r8"">5858481517608</Timestamp><Current dt:dt=""r8"">0</Current><DateUtc dt:dt=""string"">2018-10-17T17:54:27Z</DateUtc></FrequencyChange></FrequencyChanges></Clock>\n",KW_Experiment5A-27-1,59.945,1.0.0.105,2,146770285,Professional,2.0.10.353,2.0.10.353,10/17/2018,10/17/2018 17:54,13:54:27,2.0.10.248,3,2,1,3,,,,,,,,TrainingProc,BlockList,13,1,Distractor2.bmp,2,0,,0,1,336426,500,,0,0,blue,500,2,500,,vertical,red,Target1.bmp,yellow,Distractor2.bmp,lime,Distractor2.bmp,purple,Distractor2.bmp,cyan,Distractor1.bmp,blue,Distractor2.bmp,,,,TrialProc,3,TrainingTrialList,1,1,-999999,0,336926,0,1,1214,338140,Target1.bmp,red,1,,,,7,4,61
KW_Experiment5A,27,1,"<?xml version=""1.0""?>\n<Clock xmlns:dt=""urn:schemas-microsoft-com:datatypes""><Description dt:dt=""string"">E-Prime Primary Realtime Clock</Description><StartTime><Timestamp dt:dt=""int"">0</Timestamp><DateUtc dt:dt=""string"">2018-10-17T17:54:27Z</DateUtc></StartTime><FrequencyChanges><FrequencyChange><Frequency dt:dt=""r8"">3215292</Frequency><Timestamp dt:dt=""r8"">5858481517608</Timestamp><Current dt:dt=""r8"">0</Current><DateUtc dt:dt=""string"">2018-10-17T17:54:27Z</DateUtc></FrequencyChange></FrequencyChanges></Clock>\n",KW_Experiment5A-27-1,59.945,1.0.0.105,2,146770285,Professional,2.0.10.353,2.0.10.353,10/17/2018,10/17/2018 17:54,13:54:27,2.0.10.248,3,2,1,3,,,,,,,,TrainingProc,BlockList,14,2,Distractor1.bmp,1,0,,0,1,339162,500,,0,0,cyan,500,2,500,,horizontal,cyan,Distractor1.bmp,purple,Distractor1.bmp,lime,Distractor2.bmp,yellow,Distractor2.bmp,red,Target2.bmp,blue,Distractor1.bmp,,,,TrialProc,4,TrainingTrialList,1,2,-999999,0,339662,0,2,942,340604,Target2.bmp,red,2,,,,11,4,62
KW_Experiment5A,27,1,"<?xml version=""1.0""?>\n<Clock xmlns:dt=""urn:schemas-microsoft-com:datatypes""><Description dt:dt=""string"">E-Prime Primary Realtime Clock</Description><StartTime><Timestamp dt:dt=""int"">0</Timestamp><DateUtc dt:dt=""string"">2018-10-17T17:54:27Z</DateUtc></StartTime><FrequencyChanges><FrequencyChange><Frequency dt:dt=""r8"">3215292</Frequency><Timestamp dt:dt=""r8"">5858481517608</Timestamp><Current dt:dt=""r8"">0</Current><DateUtc dt:dt=""string"">2018-10-17T17:54:27Z</DateUtc></FrequencyChange></FrequencyChanges></Clock>\n",KW_Experiment5A-27-1,59.945,1.0.0.105,2,146770285,Professional,2.0.10.353,2.0.10.353,10/17/2018,10/17/2018 17:54,13:54:27,2.0.10.248,3,2,1,3,,,,,,,,TrainingProc,BlockList,15,2,Distractor2.bmp,2,0,,1,0,341630,601,,0,0,purple,600,3,600,,horizontal,red,Target2.bmp,yellow,Distractor2.bmp,blue,Distractor2.bmp,lime,Distractor2.bmp,cyan,Distractor1.bmp,purple,Distractor2.bmp,,,,TrialProc,5,TrainingTrialList,1,2,-999999,1,342231,0,2,501,342732,Target2.bmp,red,2,,,,7,4,63
KW_Experiment5A,27,1,"<?xml version=""1.0""?>\n<Clock xmlns:dt=""urn:schemas-microsoft-com:datatypes""><Description dt:dt=""string"">E-Prime Primary Realtime Clock</Description><StartTime><Timestamp dt:dt=""int"">0</Timestamp><DateUtc dt:dt=""string"">2018-10-17T17:54:27Z</DateUtc></StartTime><FrequencyChanges><FrequencyChange><Frequency dt:dt=""r8"">3215292</Frequency><Timestamp dt:dt=""r8"">5858481517608</Timestamp><Current dt:dt=""r8"">0</Current><DateUtc dt:dt=""string"">2018-10-17T17:54:27Z</DateUtc></FrequencyChange></FrequencyChanges></Clock>\n",KW_Experiment5A-27-1,59.945,1.0.0.105,2,146770285,Professional,2.0.10.353,2.0.10.353,10/17/2018,10/17/2018 17:54,13:54:27,2.0.10.248,3,2,1,3,,,,,,,,TrainingProc,BlockList,16,2,Distractor2.bmp,2,0,,0,1,343749,500,,0,0,purple,500,2,500,5,horizontal,purple,Distractor1.bmp,red,Distractor1.bmp,lime,Target2.bmp,blue,Distractor2.bmp,yellow,Distractor2.bmp,cyan,Distractor1.bmp,,,,TrialProc,,TrainingTrialList,1,2,-999999,0,344249,0,2,667,344916,Target2.bmp,lime,2,,,,3,4,64
KW_Experiment5A,27,1,"<?xml version=""1.0""?>\n<Clock xmlns:dt=""urn:schemas-microsoft-com:datatypes""><Description dt:dt=""string"">E-Prime Primary Realtime Clock</Description><StartTime><Timestamp dt:dt=""int"">0</Timestamp><DateUtc dt:dt=""string"">2018-10-17T17:54:27Z</DateUtc></StartTime><FrequencyChanges><FrequencyChange><Frequency dt:dt=""r8"">3215292</Frequency><Timestamp dt:dt=""r8"">5858481517608</Timestamp><Current dt:dt=""r8"">0</Current><DateUtc dt:dt=""string"">2018-10-17T17:54:27Z</DateUtc></FrequencyChange></FrequencyChanges></Clock>\n",KW_Experiment5A-27-1,59.945,1.0.0.105,2,146770285,Professional,2.0.10.353,2.0.10.353,10/17/2018,10/17/2018 17:54,13:54:27,2.0.10.248,3,2,1,3,,,,,,,,TrainingProc,BlockList,17,2,Distractor1.bmp,1,0,,0,1,345934,601,,0,0,purple,600,3,600,,horizontal,purple,Distractor2.bmp,red,Target2.bmp,yellow,Distractor1.bmp,cyan,Distractor2.bmp,lime,Distractor2.bmp,blue,Distractor1.bmp,,,,TrialProc,5,TrainingTrialList,1,2,-999999,1,346535,0,2,645,347180,Target2.bmp,red,2,,,,8,4,65
KW_Experiment5A,27,1,"<?xml version=""1.0""?>\n<Clock xmlns:dt=""urn:schemas-microsoft-com:datatypes""><Description dt:dt=""string"">E-Prime Primary Realtime Clock</Description><StartTime><Timestamp dt:dt=""int"">0</Timestamp><DateUtc dt:dt=""string"">2018-10-17T17:54:27Z</DateUtc></StartTime><FrequencyChanges><FrequencyChange><Frequency dt:dt=""r8"">3215292</Frequency><Timestamp dt:dt=""r8"">5858481517608</Timestamp><Current dt:dt=""r8"">0</Current><DateUtc dt:dt=""string"">2018-10-17T17:54:27Z</DateUtc></FrequencyChange></FrequencyChanges></Clock>\n",KW_Experiment5A-27-1,59.945,1.0.0.105,2,146770285,Professional,2.0.10.353,2.0.10.353,10/17/2018,10/17/2018 17:54,13:54:27,2.0.10.248,3,2,1,3,,,,,,,,TrainingProc,BlockList,18,1,Distractor2.bmp,2,0,,0,1,348203,400,,0,0,lime,400,1,400,,vertical,lime,Distractor2.bmp,cyan,Distractor1.bmp,red,Target1.bmp,purple,Distractor2.bmp,blue,Distractor1.bmp,yellow,Distractor1.bmp,,,,TrialProc,6,TrainingTrialList,0,1,-999999,0,348603,0,2,776,349379,Target1.bmp,red,1,,,,9,4,66
KW_Experiment5A,27,1,"<?xml version=""1.0""?>\n<Clock xmlns:dt=""urn:schemas-microsoft-com:datatypes""><Description dt:dt=""string"">E-Prime Primary Realtime Clock</Description><StartTime><Timestamp dt:dt=""int"">0</Timestamp><DateUtc dt:dt=""string"">2018-10-17T17:54:27Z</DateUtc></StartTime><FrequencyChanges><FrequencyChange><Frequency dt:dt=""r8"">3215292</Frequency><Timestamp dt:dt=""r8"">5858481517608</Timestamp><Current dt:dt=""r8"">0</Current><DateUtc dt:dt=""string"">2018-10-17T17:54:27Z</DateUtc></FrequencyChange></FrequencyChanges></Clock>\n",KW_Experiment5A-27-1,59.945,1.0.0.105,2,146770285,Professional,2.0.10.353,2.0.10.353,10/17/2018,10/17/2018 17:54,13:54:27,2.0.10.248,3,2,1,3,,,,,,,,TrainingProc,BlockList,19,2,Distractor1.bmp,1,0,,0,1,350405,400,,0,0,purple,400,1,400,,horizontal,purple,Distractor1.bmp,cyan,Distractor2.bmp,yellow,Distractor2.bmp,blue,Distractor1.bmp,lime,Distractor1.bmp,red,Target2.bmp,,,,TrialProc,5,TrainingTrialList,1,2,-999999,0,350805,0,2,422,351227,Target2.bmp,red,2,,,,12,4,67
KW_Experiment5A,27,1,"<?xml version=""1.0""?>\n<Clock xmlns:dt=""urn:schemas-microsoft-com:datatypes""><Description dt:dt=""string"">E-Prime Primary Realtime Clock</Description><StartTime><Timestamp dt:dt=""int"">0</Timestamp><DateUtc dt:dt=""string"">2018-10-17T17:54:27Z</DateUtc></StartTime><FrequencyChanges><FrequencyChange><Frequency dt:dt=""r8"">3215292</Frequency><Timestamp dt:dt=""r8"">5858481517608</Timestamp><Current dt:dt=""r8"">0</Current><DateUtc dt:dt=""string"">2018-10-17T17:54:27Z</DateUtc></FrequencyChange></FrequencyChanges></Clock>\n",KW_Experiment5A-27-1,59.945,1.0.0.105,2,146770285,Professional,2.0.10.353,2.0.10.353,10/17/2018,10/17/2018 17:54,13:54:27,2.0.10.248,3,2,1,3,,,,,,,,TrainingProc,BlockList,20,2,Distractor2.bmp,2,0,,0,1,352240,601,,0,0,yellow,600,3,600,2,horizontal,yellow,Distractor2.bmp,purple,Distractor1.bmp,cyan,Distractor2.bmp,red,Distractor1.bmp,blue,Distractor1.bmp,lime,Target2.bmp,,,,TrialProc,,TrainingTrialList,1,2,-999999,1,352841,0,2,322,353163,Target2.bmp,lime,2,,,,6,4,68
KW_Experiment5A,27,1,"<?xml version=""1.0""?>\n<Clock xmlns:dt=""urn:schemas-microsoft-com:datatypes""><Description dt:dt=""string"">E-Prime Primary Realtime Clock</Description><StartTime><Timestamp dt:dt=""int"">0</Timestamp><DateUtc dt:dt=""string"">2018-10-17T17:54:27Z</DateUtc></StartTime><FrequencyChanges><FrequencyChange><Frequency dt:dt=""r8"">3215292</Frequency><Timestamp dt:dt=""r8"">5858481517608</Timestamp><Current dt:dt=""r8"">0</Current><DateUtc dt:dt=""string"">2018-10-17T17:54:27Z</DateUtc></FrequencyChange></FrequencyChanges></Clock>\n",KW_Experiment5A-27-1,59.945,1.0.0.105,2,146770285,Professional,2.0.10.353,2.0.10.353,10/17/2018,10/17/2018 17:54,13:54:27,2.0.10.248,3,2,1,3,,,,,,,,TrainingProc,BlockList,21,2,Distractor1.bmp,1,0,,0,1,354175,501,,0,0,lime,500,2,500,,horizontal,lime,Distractor1.bmp,blue,Distractor2.bmp,yellow,Distractor1.bmp,cyan,Distractor2.bmp,red,Target2.bmp,purple,Distractor1.bmp,,,,TrialProc,6,TrainingTrialList,1,2,-999999,1,354676,0,2,1583,356259,Target2.bmp,red,2,,,,11,4,69
KW_Experiment5A,27,1,"<?xml version=""1.0""?>\n<Clock xmlns:dt=""urn:schemas-microsoft-com:datatypes""><Description dt:dt=""string"">E-Prime Primary Realtime Clock</Description><StartTime><Timestamp dt:dt=""int"">0</Timestamp><DateUtc dt:dt=""string"">2018-10-17T17:54:27Z</DateUtc></StartTime><FrequencyChanges><FrequencyChange><Frequency dt:dt=""r8"">3215292</Frequency><Timestamp dt:dt=""r8"">5858481517608</Timestamp><Current dt:dt=""r8"">0</Current><DateUtc dt:dt=""string"">2018-10-17T17:54:27Z</DateUtc></FrequencyChange></FrequencyChanges></Clock>\n",KW_Experiment5A-27-1,59.945,1.0.0.105,2,146770285,Professional,2.0.10.353,2.0.10.353,10/17/2018,10/17/2018 17:54,13:54:27,2.0.10.248,3,2,1,3,,,,,,,,TrainingProc,BlockList,22,1,Distractor1.bmp,1,0,,0,1,357278,601,,0,0,blue,600,3,600,,vertical,blue,Distractor2.bmp,cyan,Distractor2.bmp,red,Target1.bmp,yellow,Distractor1.bmp,lime,Distractor1.bmp,purple,Distractor2.bmp,,,,TrialProc,3,TrainingTrialList,0,1,-999999,1,357879,0,2,700,358579,Target1.bmp,red,1,,,,9,4,70
KW_Experiment5A,27,1,"<?xml version=""1.0""?>\n<Clock xmlns:dt=""urn:schemas-microsoft-com:datatypes""><Description dt:dt=""string"">E-Prime Primary Realtime Clock</Description><StartTime><Timestamp dt:dt=""int"">0</Timestamp><DateUtc dt:dt=""string"">2018-10-17T17:54:27Z</DateUtc></StartTime><FrequencyChanges><FrequencyChange><Frequency dt:dt=""r8"">3215292</Frequency><Timestamp dt:dt=""r8"">5858481517608</Timestamp><Current dt:dt=""r8"">0</Current><DateUtc dt:dt=""string"">2018-10-17T17:54:27Z</DateUtc></FrequencyChange></FrequencyChanges></Clock>\n",KW_Experiment5A-27-1,59.945,1.0.0.105,2,146770285,Professional,2.0.10.353,2.0.10.353,10/17/2018,10/17/2018 17:54,13:54:27,2.0.10.248,3,2,1,3,,,,,,,,TrainingProc,BlockList,23,1,Distractor2.bmp,2,0,,0,1,359597,400,,0,0,yellow,400,1,400,,vertical,yellow,Distractor2.bmp,blue,Distractor2.bmp,red,Target1.bmp,lime,Distractor2.bmp,cyan,Distractor2.bmp,purple,Distractor2.bmp,,,,TrialProc,2,TrainingTrialList,1,1,-999999,0,359997,0,1,622,360619,Target1.bmp,red,1,,,,9,4,71
KW_Experiment5A,27,1,"<?xml version=""1.0""?>\n<Clock xmlns:dt=""urn:schemas-microsoft-com:datatypes""><Description dt:dt=""string"">E-Prime Primary Realtime Clock</Description><StartTime><Timestamp dt:dt=""int"">0</Timestamp><DateUtc dt:dt=""string"">2018-10-17T17:54:27Z</DateUtc></StartTime><FrequencyChanges><FrequencyChange><Frequency dt:dt=""r8"">3215292</Frequency><Timestamp dt:dt=""r8"">5858481517608</Timestamp><Current dt:dt=""r8"">0</Current><DateUtc dt:dt=""string"">2018-10-17T17:54:27Z</DateUtc></FrequencyChange></FrequencyChanges></Clock>\n",KW_Experiment5A-27-1,59.945,1.0.0.105,2,146770285,Professional,2.0.10.353,2.0.10.353,10/17/2018,10/17/2018 17:54,13:54:27,2.0.10.248,3,2,1,3,,,,,,,,TrainingProc,BlockList,24,2,Distractor2.bmp,2,0,,0,1,361632,400,,0,0,purple,400,1,400,,horizontal,purple,Distractor2.bmp,yellow,Distractor2.bmp,lime,Distractor1.bmp,red,Target2.bmp,cyan,Distractor2.bmp,blue,Distractor2.bmp,,,,TrialProc,5,TrainingTrialList,1,2,-999999,0,362032,0,2,883,362915,Target2.bmp,red,2,,,,10,4,72
KW_Experiment5A,27,1,"<?xml version=""1.0""?>\n<Clock xmlns:dt=""urn:schemas-microsoft-com:datatypes""><Description dt:dt=""string"">E-Prime Primary Realtime Clock</Description><StartTime><Timestamp dt:dt=""int"">0</Timestamp><DateUtc dt:dt=""string"">2018-10-17T17:54:27Z</DateUtc></StartTime><FrequencyChanges><FrequencyChange><Frequency dt:dt=""r8"">3215292</Frequency><Timestamp dt:dt=""r8"">5858481517608</Timestamp><Current dt:dt=""r8"">0</Current><DateUtc dt:dt=""string"">2018-10-17T17:54:27Z</DateUtc></FrequencyChange></FrequencyChanges></Clock>\n",KW_Experiment5A-27-1,59.945,1.0.0.105,2,146770285,Professional,2.0.10.353,2.0.10.353,10/17/2018,10/17/2018 17:54,13:54:27,2.0.10.248,3,2,1,3,,,,,,,,TrainingProc,BlockList,25,2,Distractor1.bmp,1,0,,0,1,363934,601,,0,0,yellow,600,3,600,2,horizontal,yellow,Distractor1.bmp,cyan,Distractor2.bmp,lime,Target2.bmp,blue,Distractor1.bmp,red,Distractor2.bmp,purple,Distractor2.bmp,,,,TrialProc,,TrainingTrialList,0,2,-999999,1,364535,0,1,756,365291,Target2.bmp,lime,2,,,,3,5,73
KW_Experiment5A,27,1,"<?xml version=""1.0""?>\n<Clock xmlns:dt=""urn:schemas-microsoft-com:datatypes""><Description dt:dt=""string"">E-Prime Primary Realtime Clock</Description><StartTime><Timestamp dt:dt=""int"">0</Timestamp><DateUtc dt:dt=""string"">2018-10-17T17:54:27Z</DateUtc></StartTime><FrequencyChanges><FrequencyChange><Frequency dt:dt=""r8"">3215292</Frequency><Timestamp dt:dt=""r8"">5858481517608</Timestamp><Current dt:dt=""r8"">0</Current><DateUtc dt:dt=""string"">2018-10-17T17:54:27Z</DateUtc></FrequencyChange></FrequencyChanges></Clock>\n",KW_Experiment5A-27-1,59.945,1.0.0.105,2,146770285,Professional,2.0.10.353,2.0.10.353,10/17/2018,10/17/2018 17:54,13:54:27,2.0.10.248,3,2,1,3,,,,,,,,TrainingProc,BlockList,26,2,Distractor2.bmp,2,0,,0,1,366303,500,,0,0,cyan,500,2,500,,horizontal,cyan,Distractor2.bmp,blue,Distractor2.bmp,lime,Distractor1.bmp,red,Target2.bmp,purple,Distractor2.bmp,yellow,Distractor2.bmp,,,,TrialProc,4,TrainingTrialList,1,2,-999999,0,366803,0,2,728,367531,Target2.bmp,red,2,,,,10,5,74
KW_Experiment5A,27,1,"<?xml version=""1.0""?>\n<Clock xmlns:dt=""urn:schemas-microsoft-com:datatypes""><Description dt:dt=""string"">E-Prime Primary Realtime Clock</Description><StartTime><Timestamp dt:dt=""int"">0</Timestamp><DateUtc dt:dt=""string"">2018-10-17T17:54:27Z</DateUtc></StartTime><FrequencyChanges><FrequencyChange><Frequency dt:dt=""r8"">3215292</Frequency><Timestamp dt:dt=""r8"">5858481517608</Timestamp><Current dt:dt=""r8"">0</Current><DateUtc dt:dt=""string"">2018-10-17T17:54:27Z</DateUtc></FrequencyChange></FrequencyChanges></Clock>\n",KW_Experiment5A-27-1,59.945,1.0.0.105,2,146770285,Professional,2.0.10.353,2.0.10.353,10/17/2018,10/17/2018 17:54,13:54:27,2.0.10.248,3,2,1,3,,,,,,,,TrainingProc,BlockList,27,2,Distractor2.bmp,2,0,,0,1,368555,500,,0,0,cyan,500,2,500,,horizontal,cyan,Distractor2.bmp,yellow,Distractor2.bmp,lime,Distractor2.bmp,blue,Distractor1.bmp,purple,Distractor1.bmp,red,Target2.bmp,,,,TrialProc,4,TrainingTrialList,1,2,-999999,0,369055,0,2,740,369795,Target2.bmp,red,2,,,,12,5,75
KW_Experiment5A,27,1,"<?xml version=""1.0""?>\n<Clock xmlns:dt=""urn:schemas-microsoft-com:datatypes""><Description dt:dt=""string"">E-Prime Primary Realtime Clock</Description><StartTime><Timestamp dt:dt=""int"">0</Timestamp><DateUtc dt:dt=""string"">2018-10-17T17:54:27Z</DateUtc></StartTime><FrequencyChanges><FrequencyChange><Frequency dt:dt=""r8"">3215292</Frequency><Timestamp dt:dt=""r8"">5858481517608</Timestamp><Current dt:dt=""r8"">0</Current><DateUtc dt:dt=""string"">2018-10-17T17:54:27Z</DateUtc></FrequencyChange></FrequencyChanges></Clock>\n",KW_Experiment5A-27-1,59.945,1.0.0.105,2,146770285,Professional,2.0.10.353,2.0.10.353,10/17/2018,10/17/2018 17:54,13:54:27,2.0.10.248,3,2,1,3,,,,,,,,TrainingProc,BlockList,28,2,Distractor2.bmp,2,0,,0,1,370807,601,,0,0,yellow,600,3,600,,horizontal,yellow,Distractor2.bmp,blue,Distractor2.bmp,purple,Distractor1.bmp,cyan,Distractor2.bmp,red,Target2.bmp,lime,Distractor2.bmp,,,,TrialProc,2,TrainingTrialList,1,2,-999999,1,371408,0,2,947,372355,Target2.bmp,red,2,,,,11,5,76
KW_Experiment5A,27,1,"<?xml version=""1.0""?>\n<Clock xmlns:dt=""urn:schemas-microsoft-com:datatypes""><Description dt:dt=""string"">E-Prime Primary Realtime Clock</Description><StartTime><Timestamp dt:dt=""int"">0</Timestamp><DateUtc dt:dt=""string"">2018-10-17T17:54:27Z</DateUtc></StartTime><FrequencyChanges><FrequencyChange><Frequency dt:dt=""r8"">3215292</Frequency><Timestamp dt:dt=""r8"">5858481517608</Timestamp><Current dt:dt=""r8"">0</Current><DateUtc dt:dt=""string"">2018-10-17T17:54:27Z</DateUtc></FrequencyChange></FrequencyChanges></Clock>\n",KW_Experiment5A-27-1,59.945,1.0.0.105,2,146770285,Professional,2.0.10.353,2.0.10.353,10/17/2018,10/17/2018 17:54,13:54:27,2.0.10.248,3,2,1,3,,,,,,,,TrainingProc,BlockList,29,1,Distractor1.bmp,1,0,,0,1,373376,400,,0,0,purple,400,1,400,,vertical,purple,Distractor1.bmp,yellow,Distractor2.bmp,blue,Distractor2.bmp,cyan,Distractor2.bmp,lime,Distractor1.bmp,red,Target1.bmp,,,,TrialProc,5,TrainingTrialList,1,1,-999999,0,373776,0,1,811,374587,Target1.bmp,red,1,,,,12,5,77
KW_Experiment5A,27,1,"<?xml version=""1.0""?>\n<Clock xmlns:dt=""urn:schemas-microsoft-com:datatypes""><Description dt:dt=""string"">E-Prime Primary Realtime Clock</Description><StartTime><Timestamp dt:dt=""int"">0</Timestamp><DateUtc dt:dt=""string"">2018-10-17T17:54:27Z</DateUtc></StartTime><FrequencyChanges><FrequencyChange><Frequency dt:dt=""r8"">3215292</Frequency><Timestamp dt:dt=""r8"">5858481517608</Timestamp><Current dt:dt=""r8"">0</Current><DateUtc dt:dt=""string"">2018-10-17T17:54:27Z</DateUtc></FrequencyChange></FrequencyChanges></Clock>\n",KW_Experiment5A-27-1,59.945,1.0.0.105,2,146770285,Professional,2.0.10.353,2.0.10.353,10/17/2018,10/17/2018 17:54,13:54:27,2.0.10.248,3,2,1,3,,,,,,,,TrainingProc,BlockList,30,2,Distractor1.bmp,1,0,,0,1,375611,501,,0,0,purple,500,2,500,,horizontal,purple,Distractor1.bmp,lime,Distractor2.bmp,yellow,Distractor2.bmp,red,Target2.bmp,cyan,Distractor1.bmp,blue,Distractor1.bmp,,,,TrialProc,5,TrainingTrialList,1,2,-999999,1,376112,0,2,1147,377259,Target2.bmp,red,2,,,,10,5,78
KW_Experiment5A,27,1,"<?xml version=""1.0""?>\n<Clock xmlns:dt=""urn:schemas-microsoft-com:datatypes""><Description dt:dt=""string"">E-Prime Primary Realtime Clock</Description><StartTime><Timestamp dt:dt=""int"">0</Timestamp><DateUtc dt:dt=""string"">2018-10-17T17:54:27Z</DateUtc></StartTime><FrequencyChanges><FrequencyChange><Frequency dt:dt=""r8"">3215292</Frequency><Timestamp dt:dt=""r8"">5858481517608</Timestamp><Current dt:dt=""r8"">0</Current><DateUtc dt:dt=""string"">2018-10-17T17:54:27Z</DateUtc></FrequencyChange></FrequencyChanges></Clock>\n",KW_Experiment5A-27-1,59.945,1.0.0.105,2,146770285,Professional,2.0.10.353,2.0.10.353,10/17/2018,10/17/2018 17:54,13:54:27,2.0.10.248,3,2,1,3,,,,,,,,TrainingProc,BlockList,31,1,Distractor2.bmp,2,0,,1,0,378280,601,,0,0,blue,600,3,600,,vertical,red,Target1.bmp,lime,Distractor2.bmp,cyan,Distractor1.bmp,purple,Distractor2.bmp,yellow,Distractor1.bmp,blue,Distractor2.bmp,,,,TrialProc,3,TrainingTrialList,1,1,-999999,1,378881,0,1,610,379491,Target1.bmp,red,1,,,,7,5,79
KW_Experiment5A,27,1,"<?xml version=""1.0""?>\n<Clock xmlns:dt=""urn:schemas-microsoft-com:datatypes""><Description dt:dt=""string"">E-Prime Primary Realtime Clock</Description><StartTime><Timestamp dt:dt=""int"">0</Timestamp><DateUtc dt:dt=""string"">2018-10-17T17:54:27Z</DateUtc></StartTime><FrequencyChanges><FrequencyChange><Frequency dt:dt=""r8"">3215292</Frequency><Timestamp dt:dt=""r8"">5858481517608</Timestamp><Current dt:dt=""r8"">0</Current><DateUtc dt:dt=""string"">2018-10-17T17:54:27Z</DateUtc></FrequencyChange></FrequencyChanges></Clock>\n",KW_Experiment5A-27-1,59.945,1.0.0.105,2,146770285,Professional,2.0.10.353,2.0.10.353,10/17/2018,10/17/2018 17:54,13:54:27,2.0.10.248,3,2,1,3,,,,,,,,TrainingProc,BlockList,32,2,Distractor1.bmp,1,0,,0,1,380516,500,,0,0,purple,500,2,500,5,horizontal,purple,Distractor1.bmp,blue,Distractor1.bmp,cyan,Distractor1.bmp,lime,Target2.bmp,yellow,Distractor1.bmp,red,Distractor2.bmp,,,,TrialProc,,TrainingTrialList,1,2,-999999,0,381016,0,2,923,381939,Target2.bmp,lime,2,,,,4,5,80
KW_Experiment5A,27,1,"<?xml version=""1.0""?>\n<Clock xmlns:dt=""urn:schemas-microsoft-com:datatypes""><Description dt:dt=""string"">E-Prime Primary Realtime Clock</Description><StartTime><Timestamp dt:dt=""int"">0</Timestamp><DateUtc dt:dt=""string"">2018-10-17T17:54:27Z</DateUtc></StartTime><FrequencyChanges><FrequencyChange><Frequency dt:dt=""r8"">3215292</Frequency><Timestamp dt:dt=""r8"">5858481517608</Timestamp><Current dt:dt=""r8"">0</Current><DateUtc dt:dt=""string"">2018-10-17T17:54:27Z</DateUtc></FrequencyChange></FrequencyChanges></Clock>\n",KW_Experiment5A-27-1,59.945,1.0.0.105,2,146770285,Professional,2.0.10.353,2.0.10.353,10/17/2018,10/17/2018 17:54,13:54:27,2.0.10.248,3,2,1,3,,,,,,,,TrainingProc,BlockList,33,1,Distractor2.bmp,2,0,,0,1,382951,401,,0,0,purple,400,1,400,5,vertical,purple,Distractor2.bmp,lime,Target1.bmp,yellow,Distractor2.bmp,red,Distractor1.bmp,blue,Distractor1.bmp,cyan,Distractor1.bmp,,,,TrialProc,,TrainingTrialList,1,1,-999999,1,383352,0,1,1275,384627,Target1.bmp,lime,1,,,,2,5,81
KW_Experiment5A,27,1,"<?xml version=""1.0""?>\n<Clock xmlns:dt=""urn:schemas-microsoft-com:datatypes""><Description dt:dt=""string"">E-Prime Primary Realtime Clock</Description><StartTime><Timestamp dt:dt=""int"">0</Timestamp><DateUtc dt:dt=""string"">2018-10-17T17:54:27Z</DateUtc></StartTime><FrequencyChanges><FrequencyChange><Frequency dt:dt=""r8"">3215292</Frequency><Timestamp dt:dt=""r8"">5858481517608</Timestamp><Current dt:dt=""r8"">0</Current><DateUtc dt:dt=""string"">2018-10-17T17:54:27Z</DateUtc></FrequencyChange></FrequencyChanges></Clock>\n",KW_Experiment5A-27-1,59.945,1.0.0.105,2,146770285,Professional,2.0.10.353,2.0.10.353,10/17/2018,10/17/2018 17:54,13:54:27,2.0.10.248,3,2,1,3,,,,,,,,TrainingProc,BlockList,34,2,Distractor1.bmp,1,0,,0,1,385637,501,,0,0,yellow,500,2,500,,horizontal,yellow,Distractor2.bmp,red,Target2.bmp,lime,Distractor1.bmp,cyan,Distractor1.bmp,blue,Distractor2.bmp,purple,Distractor1.bmp,,,,TrialProc,2,TrainingTrialList,1,2,-999999,1,386138,0,2,1081,387219,Target2.bmp,red,2,,,,8,5,82
KW_Experiment5A,27,1,"<?xml version=""1.0""?>\n<Clock xmlns:dt=""urn:schemas-microsoft-com:datatypes""><Description dt:dt=""string"">E-Prime Primary Realtime Clock</Description><StartTime><Timestamp dt:dt=""int"">0</Timestamp><DateUtc dt:dt=""string"">2018-10-17T17:54:27Z</DateUtc></StartTime><FrequencyChanges><FrequencyChange><Frequency dt:dt=""r8"">3215292</Frequency><Timestamp dt:dt=""r8"">5858481517608</Timestamp><Current dt:dt=""r8"">0</Current><DateUtc dt:dt=""string"">2018-10-17T17:54:27Z</DateUtc></FrequencyChange></FrequencyChanges></Clock>\n",KW_Experiment5A-27-1,59.945,1.0.0.105,2,146770285,Professional,2.0.10.353,2.0.10.353,10/17/2018,10/17/2018 17:54,13:54:27,2.0.10.248,3,2,1,3,,,,,,,,TrainingProc,BlockList,35,2,Distractor1.bmp,1,0,,0,1,388240,500,,0,0,purple,500,2,500,5,horizontal,purple,Distractor1.bmp,cyan,Distractor1.bmp,yellow,Distractor1.bmp,red,Distractor1.bmp,blue,Distractor1.bmp,lime,Target2.bmp,,,,TrialProc,,TrainingTrialList,1,2,-999999,0,388740,0,2,974,389714,Target2.bmp,lime,2,,,,6,5,83
KW_Experiment5A,27,1,"<?xml version=""1.0""?>\n<Clock xmlns:dt=""urn:schemas-microsoft-com:datatypes""><Description dt:dt=""string"">E-Prime Primary Realtime Clock</Description><StartTime><Timestamp dt:dt=""int"">0</Timestamp><DateUtc dt:dt=""string"">2018-10-17T17:54:27Z</DateUtc></StartTime><FrequencyChanges><FrequencyChange><Frequency dt:dt=""r8"">3215292</Frequency><Timestamp dt:dt=""r8"">5858481517608</Timestamp><Current dt:dt=""r8"">0</Current><DateUtc dt:dt=""string"">2018-10-17T17:54:27Z</DateUtc></FrequencyChange></FrequencyChanges></Clock>\n",KW_Experiment5A-27-1,59.945,1.0.0.105,2,146770285,Professional,2.0.10.353,2.0.10.353,10/17/2018,10/17/2018 17:54,13:54:27,2.0.10.248,3,2,1,3,,,,,,,,TrainingProc,BlockList,36,2,Distractor1.bmp,1,0,,0,1,390725,400,,0,0,blue,400,1,400,,horizontal,blue,Distractor1.bmp,lime,Distractor1.bmp,red,Target2.bmp,cyan,Distractor1.bmp,purple,Distractor1.bmp,yellow,Distractor2.bmp,,,,TrialProc,3,TrainingTrialList,1,2,-999999,0,391125,0,2,1149,392274,Target2.bmp,red,2,,,,9,5,84
KW_Experiment5A,27,1,"<?xml version=""1.0""?>\n<Clock xmlns:dt=""urn:schemas-microsoft-com:datatypes""><Description dt:dt=""string"">E-Prime Primary Realtime Clock</Description><StartTime><Timestamp dt:dt=""int"">0</Timestamp><DateUtc dt:dt=""string"">2018-10-17T17:54:27Z</DateUtc></StartTime><FrequencyChanges><FrequencyChange><Frequency dt:dt=""r8"">3215292</Frequency><Timestamp dt:dt=""r8"">5858481517608</Timestamp><Current dt:dt=""r8"">0</Current><DateUtc dt:dt=""string"">2018-10-17T17:54:27Z</DateUtc></FrequencyChange></FrequencyChanges></Clock>\n",KW_Experiment5A-27-1,59.945,1.0.0.105,2,146770285,Professional,2.0.10.353,2.0.10.353,10/17/2018,10/17/2018 17:54,13:54:27,2.0.10.248,3,2,1,3,,,,,,,,TrainingProc,BlockList,37,1,Distractor2.bmp,2,0,,0,1,393294,400,,0,0,purple,400,1,400,,vertical,purple,Distractor2.bmp,red,Target1.bmp,lime,Distractor2.bmp,cyan,Distractor1.bmp,blue,Distractor1.bmp,yellow,Distractor2.bmp,,,,TrialProc,5,TrainingTrialList,1,1,-999999,0,393694,0,1,836,394530,Target1.bmp,red,1,,,,8,5,85
KW_Experiment5A,27,1,"<?xml version=""1.0""?>\n<Clock xmlns:dt=""urn:schemas-microsoft-com:datatypes""><Description dt:dt=""string"">E-Prime Primary Realtime Clock</Description><StartTime><Timestamp dt:dt=""int"">0</Timestamp><DateUtc dt:dt=""string"">2018-10-17T17:54:27Z</DateUtc></StartTime><FrequencyChanges><FrequencyChange><Frequency dt:dt=""r8"">3215292</Frequency><Timestamp dt:dt=""r8"">5858481517608</Timestamp><Current dt:dt=""r8"">0</Current><DateUtc dt:dt=""string"">2018-10-17T17:54:27Z</DateUtc></FrequencyChange></FrequencyChanges></Clock>\n",KW_Experiment5A-27-1,59.945,1.0.0.105,2,146770285,Professional,2.0.10.353,2.0.10.353,10/17/2018,10/17/2018 17:54,13:54:27,2.0.10.248,3,2,1,3,,,,,,,,TrainingProc,BlockList,38,1,Distractor1.bmp,1,0,,0,1,395546,400,,0,0,purple,400,1,400,5,vertical,lime,Target1.bmp,purple,Distractor1.bmp,red,Distractor1.bmp,yellow,Distractor1.bmp,cyan,Distractor2.bmp,blue,Distractor2.bmp,,,,TrialProc,,TrainingTrialList,0,1,-999999,0,395946,0,2,592,396538,Target1.bmp,lime,1,,,,1,5,86
KW_Experiment5A,27,1,"<?xml version=""1.0""?>\n<Clock xmlns:dt=""urn:schemas-microsoft-com:datatypes""><Description dt:dt=""string"">E-Prime Primary Realtime Clock</Description><StartTime><Timestamp dt:dt=""int"">0</Timestamp><DateUtc dt:dt=""string"">2018-10-17T17:54:27Z</DateUtc></StartTime><FrequencyChanges><FrequencyChange><Frequency dt:dt=""r8"">3215292</Frequency><Timestamp dt:dt=""r8"">5858481517608</Timestamp><Current dt:dt=""r8"">0</Current><DateUtc dt:dt=""string"">2018-10-17T17:54:27Z</DateUtc></FrequencyChange></FrequencyChanges></Clock>\n",KW_Experiment5A-27-1,59.945,1.0.0.105,2,146770285,Professional,2.0.10.353,2.0.10.353,10/17/2018,10/17/2018 17:54,13:54:27,2.0.10.248,3,2,1,3,,,,,,,,TrainingProc,BlockList,39,2,Distractor2.bmp,2,0,,0,1,397565,500,,0,0,purple,500,2,500,,horizontal,purple,Distractor2.bmp,lime,Distractor2.bmp,yellow,Distractor2.bmp,blue,Distractor2.bmp,cyan,Distractor1.bmp,red,Target2.bmp,,,,TrialProc,5,TrainingTrialList,1,2,-999999,0,398065,0,2,897,398962,Target2.bmp,red,2,,,,12,5,87
KW_Experiment5A,27,1,"<?xml version=""1.0""?>\n<Clock xmlns:dt=""urn:schemas-microsoft-com:datatypes""><Description dt:dt=""string"">E-Prime Primary Realtime Clock</Description><StartTime><Timestamp dt:dt=""int"">0</Timestamp><DateUtc dt:dt=""string"">2018-10-17T17:54:27Z</DateUtc></StartTime><FrequencyChanges><FrequencyChange><Frequency dt:dt=""r8"">3215292</Frequency><Timestamp dt:dt=""r8"">5858481517608</Timestamp><Current dt:dt=""r8"">0</Current><DateUtc dt:dt=""string"">2018-10-17T17:54:27Z</DateUtc></FrequencyChange></FrequencyChanges></Clock>\n",KW_Experiment5A-27-1,59.945,1.0.0.105,2,146770285,Professional,2.0.10.353,2.0.10.353,10/17/2018,10/17/2018 17:54,13:54:27,2.0.10.248,3,2,1,3,,,,,,,,TrainingProc,BlockList,40,1,Distractor2.bmp,2,0,,1,0,399983,601,,0,0,purple,600,3,600,,vertical,purple,Distractor2.bmp,lime,Distractor1.bmp,blue,Distractor1.bmp,cyan,Distractor2.bmp,red,Target1.bmp,yellow,Distractor2.bmp,,,,TrialProc,5,TrainingTrialList,1,1,-999999,1,400584,0,1,730,401314,Target1.bmp,red,1,,,,11,5,88
KW_Experiment5A,27,1,"<?xml version=""1.0""?>\n<Clock xmlns:dt=""urn:schemas-microsoft-com:datatypes""><Description dt:dt=""string"">E-Prime Primary Realtime Clock</Description><StartTime><Timestamp dt:dt=""int"">0</Timestamp><DateUtc dt:dt=""string"">2018-10-17T17:54:27Z</DateUtc></StartTime><FrequencyChanges><FrequencyChange><Frequency dt:dt=""r8"">3215292</Frequency><Timestamp dt:dt=""r8"">5858481517608</Timestamp><Current dt:dt=""r8"">0</Current><DateUtc dt:dt=""string"">2018-10-17T17:54:27Z</DateUtc></FrequencyChange></FrequencyChanges></Clock>\n",KW_Experiment5A-27-1,59.945,1.0.0.105,2,146770285,Professional,2.0.10.353,2.0.10.353,10/17/2018,10/17/2018 17:54,13:54:27,2.0.10.248,3,2,1,3,,,,,,,,TrainingProc,BlockList,41,1,Distractor2.bmp,2,0,,0,1,402336,600,,0,0,purple,600,3,600,,vertical,purple,Distractor1.bmp,red,Target1.bmp,yellow,Distractor2.bmp,cyan,Distractor1.bmp,lime,Distractor2.bmp,blue,Distractor1.bmp,,,,TrialProc,5,TrainingTrialList,1,1,-999999,0,402936,0,1,1802,404738,Target1.bmp,red,1,,,,8,5,89
KW_Experiment5A,27,1,"<?xml version=""1.0""?>\n<Clock xmlns:dt=""urn:schemas-microsoft-com:datatypes""><Description dt:dt=""string"">E-Prime Primary Realtime Clock</Description><StartTime><Timestamp dt:dt=""int"">0</Timestamp><DateUtc dt:dt=""string"">2018-10-17T17:54:27Z</DateUtc></StartTime><FrequencyChanges><FrequencyChange><Frequency dt:dt=""r8"">3215292</Frequency><Timestamp dt:dt=""r8"">5858481517608</Timestamp><Current dt:dt=""r8"">0</Current><DateUtc dt:dt=""string"">2018-10-17T17:54:27Z</DateUtc></FrequencyChange></FrequencyChanges></Clock>\n",KW_Experiment5A-27-1,59.945,1.0.0.105,2,146770285,Professional,2.0.10.353,2.0.10.353,10/17/2018,10/17/2018 17:54,13:54:27,2.0.10.248,3,2,1,3,,,,,,,,TrainingProc,BlockList,42,1,Distractor2.bmp,2,0,,0,1,405755,501,,0,0,cyan,500,2,500,,vertical,red,Target1.bmp,blue,Distractor2.bmp,yellow,Distractor1.bmp,lime,Distractor1.bmp,purple,Distractor2.bmp,cyan,Distractor2.bmp,,,,TrialProc,4,TrainingTrialList,1,1,-999999,1,406256,0,1,626,406882,Target1.bmp,red,1,,,,7,5,90
