ExperimentName,Subject,Session,Clock.Information,DataFile.Basename,Display.RefreshRate,ExperimentVersion,Group,RandomSeed,RuntimeCapabilities,RuntimeVersion,RuntimeVersionExpected,SessionDate,SessionStartDateTimeUtc,SessionTime,StudioVersion,Block,BlockList,BlockList.Cycle,BlockList.Sample,PostTestQ1.RESP,PostTestQ1CJ.RESP,PostTestQ2.RESP,PostTestQ2CJ.RESP,PostTestQ3.RESP,PostTestQ3CJ.RESP,PostTestSlide.RESP,Procedure[Block],Running[Block],Trial,CorrectResponse,Distractor,DistractorList,Fixation.ACC,Fixation.CRESP,Fixation.DurationError,Fixation.OnsetDelay,Fixation.OnsetTime,Fixation.OnsetToOnsetTime,Fixation.RESP,Fixation.RT,Fixation.RTTime,ItemColor,Jitter,JitterList,JitterTime,Lime0List,Orientation,Pos1Color,Pos1Item,Pos2Color,Pos2Item,Pos3Color,Pos3Item,Pos4Color,Pos4Item,Pos5Color,Pos5Item,Pos6Color,Pos6Item,PracticeTrialList,PracticeTrialList.Cycle,PracticeTrialList.Sample,Procedure[Trial],Red0List,Running[Trial],Stimulus.ACC,Stimulus.CRESP,Stimulus.DurationError,Stimulus.OnsetDelay,Stimulus.OnsetTime,Stimulus.OnsetToOnsetTime,Stimulus.RESP,Stimulus.RT,Stimulus.RTTime,Target,TargetColor,TargetList,TestTrialList,TestTrialList.Cycle,TestTrialList.Sample,TrainingTrialList,TrainingTrialList.Cycle,TrainingTrialList.Sample
KW_Experiment5A,35,1,"<?xml version=""1.0""?>\n<Clock xmlns:dt=""urn:schemas-microsoft-com:datatypes""><Description dt:dt=""string"">E-Prime Primary Realtime Clock</Description><StartTime><Timestamp dt:dt=""int"">0</Timestamp><DateUtc dt:dt=""string"">2018-10-18T20:57:25Z</DateUtc></StartTime><FrequencyChanges><FrequencyChange><Frequency dt:dt=""r8"">3215244</Frequency><Timestamp dt:dt=""r8"">7455000455434</Timestamp><Current dt:dt=""r8"">0</Current><DateUtc dt:dt=""string"">2018-10-18T20:57:25Z</DateUtc></FrequencyChange></FrequencyChanges></Clock>\n",KW_Experiment5A-35-1,59.945,1.0.0.105,2,-1062150000,Professional,2.0.10.353,2.0.10.353,10/18/2018,10/18/2018 20:57,16:57:26,2.0.10.248,1,1,1,1,,,,,,,,PracticeProc,BlockList,1,2,Distractor1.bmp,1,0,,0,41,163988,501,,0,0,cyan,500,2,500,4,horizontal,yellow,Distractor1.bmp,cyan,Distractor2.bmp,lime,Target2.bmp,blue,Distractor1.bmp,purple,Distractor1.bmp,red,Distractor1.bmp,3,1,1,TrialProc,,PracticeTrialList,1,2,-999999,1,164489,0,2,3066,167555,Target2.bmp,lime,2,,,,,,
KW_Experiment5A,35,1,"<?xml version=""1.0""?>\n<Clock xmlns:dt=""urn:schemas-microsoft-com:datatypes""><Description dt:dt=""string"">E-Prime Primary Realtime Clock</Description><StartTime><Timestamp dt:dt=""int"">0</Timestamp><DateUtc dt:dt=""string"">2018-10-18T20:57:25Z</DateUtc></StartTime><FrequencyChanges><FrequencyChange><Frequency dt:dt=""r8"">3215244</Frequency><Timestamp dt:dt=""r8"">7455000455434</Timestamp><Current dt:dt=""r8"">0</Current><DateUtc dt:dt=""string"">2018-10-18T20:57:25Z</DateUtc></FrequencyChange></FrequencyChanges></Clock>\n",KW_Experiment5A-35-1,59.945,1.0.0.105,2,-1062150000,Professional,2.0.10.353,2.0.10.353,10/18/2018,10/18/2018 20:57,16:57:26,2.0.10.248,1,1,1,1,,,,,,,,PracticeProc,BlockList,2,2,Distractor1.bmp,1,0,,0,1,168576,600,,0,0,purple,600,3,600,,horizontal,cyan,Distractor1.bmp,yellow,Distractor2.bmp,blue,Distractor1.bmp,lime,Distractor2.bmp,purple,Distractor2.bmp,red,Target2.bmp,6,1,2,TrialProc,5,PracticeTrialList,1,2,-999999,0,169176,0,2,1979,171155,Target2.bmp,red,2,,,,,,
KW_Experiment5A,35,1,"<?xml version=""1.0""?>\n<Clock xmlns:dt=""urn:schemas-microsoft-com:datatypes""><Description dt:dt=""string"">E-Prime Primary Realtime Clock</Description><StartTime><Timestamp dt:dt=""int"">0</Timestamp><DateUtc dt:dt=""string"">2018-10-18T20:57:25Z</DateUtc></StartTime><FrequencyChanges><FrequencyChange><Frequency dt:dt=""r8"">3215244</Frequency><Timestamp dt:dt=""r8"">7455000455434</Timestamp><Current dt:dt=""r8"">0</Current><DateUtc dt:dt=""string"">2018-10-18T20:57:25Z</DateUtc></FrequencyChange></FrequencyChanges></Clock>\n",KW_Experiment5A-35-1,59.945,1.0.0.105,2,-1062150000,Professional,2.0.10.353,2.0.10.353,10/18/2018,10/18/2018 20:57,16:57:26,2.0.10.248,1,1,1,1,,,,,,,,PracticeProc,BlockList,3,2,Distractor2.bmp,2,0,,0,1,172179,501,,0,0,red,500,2,500,1,horizontal,lime,Target2.bmp,cyan,Distractor2.bmp,blue,Distractor1.bmp,purple,Distractor2.bmp,yellow,Distractor1.bmp,red,Distractor2.bmp,1,1,3,TrialProc,,PracticeTrialList,1,2,-999999,1,172680,0,2,1107,173787,Target2.bmp,lime,2,,,,,,
KW_Experiment5A,35,1,"<?xml version=""1.0""?>\n<Clock xmlns:dt=""urn:schemas-microsoft-com:datatypes""><Description dt:dt=""string"">E-Prime Primary Realtime Clock</Description><StartTime><Timestamp dt:dt=""int"">0</Timestamp><DateUtc dt:dt=""string"">2018-10-18T20:57:25Z</DateUtc></StartTime><FrequencyChanges><FrequencyChange><Frequency dt:dt=""r8"">3215244</Frequency><Timestamp dt:dt=""r8"">7455000455434</Timestamp><Current dt:dt=""r8"">0</Current><DateUtc dt:dt=""string"">2018-10-18T20:57:25Z</DateUtc></FrequencyChange></FrequencyChanges></Clock>\n",KW_Experiment5A-35-1,59.945,1.0.0.105,2,-1062150000,Professional,2.0.10.353,2.0.10.353,10/18/2018,10/18/2018 20:57,16:57:26,2.0.10.248,1,1,1,1,,,,,,,,PracticeProc,BlockList,4,1,Distractor1.bmp,1,0,,0,1,174815,400,,0,0,red,400,1,400,1,vertical,yellow,Distractor1.bmp,cyan,Distractor1.bmp,purple,Distractor1.bmp,red,Distractor1.bmp,lime,Target1.bmp,blue,Distractor1.bmp,5,1,4,TrialProc,,PracticeTrialList,1,1,-999999,0,175215,0,1,932,176147,Target1.bmp,lime,1,,,,,,
KW_Experiment5A,35,1,"<?xml version=""1.0""?>\n<Clock xmlns:dt=""urn:schemas-microsoft-com:datatypes""><Description dt:dt=""string"">E-Prime Primary Realtime Clock</Description><StartTime><Timestamp dt:dt=""int"">0</Timestamp><DateUtc dt:dt=""string"">2018-10-18T20:57:25Z</DateUtc></StartTime><FrequencyChanges><FrequencyChange><Frequency dt:dt=""r8"">3215244</Frequency><Timestamp dt:dt=""r8"">7455000455434</Timestamp><Current dt:dt=""r8"">0</Current><DateUtc dt:dt=""string"">2018-10-18T20:57:25Z</DateUtc></FrequencyChange></FrequencyChanges></Clock>\n",KW_Experiment5A-35-1,59.945,1.0.0.105,2,-1062150000,Professional,2.0.10.353,2.0.10.353,10/18/2018,10/18/2018 20:57,16:57:26,2.0.10.248,1,1,1,1,,,,,,,,PracticeProc,BlockList,5,1,Distractor1.bmp,1,0,,0,1,177167,400,,0,0,lime,400,1,400,,vertical,cyan,Distractor2.bmp,purple,Distractor1.bmp,lime,Distractor2.bmp,red,Target1.bmp,yellow,Distractor1.bmp,blue,Distractor2.bmp,4,1,5,TrialProc,6,PracticeTrialList,1,1,-999999,0,177567,0,1,1380,178947,Target1.bmp,red,1,,,,,,
KW_Experiment5A,35,1,"<?xml version=""1.0""?>\n<Clock xmlns:dt=""urn:schemas-microsoft-com:datatypes""><Description dt:dt=""string"">E-Prime Primary Realtime Clock</Description><StartTime><Timestamp dt:dt=""int"">0</Timestamp><DateUtc dt:dt=""string"">2018-10-18T20:57:25Z</DateUtc></StartTime><FrequencyChanges><FrequencyChange><Frequency dt:dt=""r8"">3215244</Frequency><Timestamp dt:dt=""r8"">7455000455434</Timestamp><Current dt:dt=""r8"">0</Current><DateUtc dt:dt=""string"">2018-10-18T20:57:25Z</DateUtc></FrequencyChange></FrequencyChanges></Clock>\n",KW_Experiment5A-35-1,59.945,1.0.0.105,2,-1062150000,Professional,2.0.10.353,2.0.10.353,10/18/2018,10/18/2018 20:57,16:57:26,2.0.10.248,1,1,1,1,,,,,,,,PracticeProc,BlockList,6,1,Distractor2.bmp,2,0,,0,1,179970,600,,0,0,blue,600,3,600,,vertical,blue,Distractor2.bmp,red,Target1.bmp,lime,Distractor2.bmp,cyan,Distractor1.bmp,purple,Distractor2.bmp,yellow,Distractor1.bmp,2,1,6,TrialProc,3,PracticeTrialList,1,1,-999999,0,180570,0,1,769,181339,Target1.bmp,red,1,,,,,,
KW_Experiment5A,35,1,"<?xml version=""1.0""?>\n<Clock xmlns:dt=""urn:schemas-microsoft-com:datatypes""><Description dt:dt=""string"">E-Prime Primary Realtime Clock</Description><StartTime><Timestamp dt:dt=""int"">0</Timestamp><DateUtc dt:dt=""string"">2018-10-18T20:57:25Z</DateUtc></StartTime><FrequencyChanges><FrequencyChange><Frequency dt:dt=""r8"">3215244</Frequency><Timestamp dt:dt=""r8"">7455000455434</Timestamp><Current dt:dt=""r8"">0</Current><DateUtc dt:dt=""string"">2018-10-18T20:57:25Z</DateUtc></FrequencyChange></FrequencyChanges></Clock>\n",KW_Experiment5A-35-1,59.945,1.0.0.105,2,-1062150000,Professional,2.0.10.353,2.0.10.353,10/18/2018,10/18/2018 20:57,16:57:26,2.0.10.248,2,2,1,2,,,,,,,,TrainingProc,BlockList,1,1,Distractor2.bmp,2,0,,1,13,188744,501,,0,0,blue,500,2,500,,vertical,blue,Distractor1.bmp,yellow,Distractor1.bmp,red,Target1.bmp,lime,Distractor2.bmp,purple,Distractor2.bmp,cyan,Distractor2.bmp,,,,TrialProc,3,TrainingTrialList,1,1,-999999,1,189245,0,1,710,189955,Target1.bmp,red,1,,,,9,2,1
KW_Experiment5A,35,1,"<?xml version=""1.0""?>\n<Clock xmlns:dt=""urn:schemas-microsoft-com:datatypes""><Description dt:dt=""string"">E-Prime Primary Realtime Clock</Description><StartTime><Timestamp dt:dt=""int"">0</Timestamp><DateUtc dt:dt=""string"">2018-10-18T20:57:25Z</DateUtc></StartTime><FrequencyChanges><FrequencyChange><Frequency dt:dt=""r8"">3215244</Frequency><Timestamp dt:dt=""r8"">7455000455434</Timestamp><Current dt:dt=""r8"">0</Current><DateUtc dt:dt=""string"">2018-10-18T20:57:25Z</DateUtc></FrequencyChange></FrequencyChanges></Clock>\n",KW_Experiment5A-35-1,59.945,1.0.0.105,2,-1062150000,Professional,2.0.10.353,2.0.10.353,10/18/2018,10/18/2018 20:57,16:57:26,2.0.10.248,2,2,1,2,,,,,,,,TrainingProc,BlockList,2,1,Distractor2.bmp,2,0,,0,1,190980,500,,0,0,blue,500,2,500,,vertical,blue,Distractor2.bmp,cyan,Distractor2.bmp,red,Target1.bmp,yellow,Distractor2.bmp,lime,Distractor1.bmp,purple,Distractor1.bmp,,,,TrialProc,3,TrainingTrialList,1,1,-999999,0,191480,0,1,763,192243,Target1.bmp,red,1,,,,9,2,2
KW_Experiment5A,35,1,"<?xml version=""1.0""?>\n<Clock xmlns:dt=""urn:schemas-microsoft-com:datatypes""><Description dt:dt=""string"">E-Prime Primary Realtime Clock</Description><StartTime><Timestamp dt:dt=""int"">0</Timestamp><DateUtc dt:dt=""string"">2018-10-18T20:57:25Z</DateUtc></StartTime><FrequencyChanges><FrequencyChange><Frequency dt:dt=""r8"">3215244</Frequency><Timestamp dt:dt=""r8"">7455000455434</Timestamp><Current dt:dt=""r8"">0</Current><DateUtc dt:dt=""string"">2018-10-18T20:57:25Z</DateUtc></FrequencyChange></FrequencyChanges></Clock>\n",KW_Experiment5A-35-1,59.945,1.0.0.105,2,-1062150000,Professional,2.0.10.353,2.0.10.353,10/18/2018,10/18/2018 20:57,16:57:26,2.0.10.248,2,2,1,2,,,,,,,,TrainingProc,BlockList,3,2,Distractor2.bmp,2,0,,0,1,193265,601,,0,0,purple,600,3,600,,horizontal,purple,Distractor2.bmp,cyan,Distractor1.bmp,yellow,Distractor1.bmp,lime,Distractor2.bmp,blue,Distractor2.bmp,red,Target2.bmp,,,,TrialProc,5,TrainingTrialList,1,2,-999999,1,193866,0,2,713,194579,Target2.bmp,red,2,,,,12,2,3
KW_Experiment5A,35,1,"<?xml version=""1.0""?>\n<Clock xmlns:dt=""urn:schemas-microsoft-com:datatypes""><Description dt:dt=""string"">E-Prime Primary Realtime Clock</Description><StartTime><Timestamp dt:dt=""int"">0</Timestamp><DateUtc dt:dt=""string"">2018-10-18T20:57:25Z</DateUtc></StartTime><FrequencyChanges><FrequencyChange><Frequency dt:dt=""r8"">3215244</Frequency><Timestamp dt:dt=""r8"">7455000455434</Timestamp><Current dt:dt=""r8"">0</Current><DateUtc dt:dt=""string"">2018-10-18T20:57:25Z</DateUtc></FrequencyChange></FrequencyChanges></Clock>\n",KW_Experiment5A-35-1,59.945,1.0.0.105,2,-1062150000,Professional,2.0.10.353,2.0.10.353,10/18/2018,10/18/2018 20:57,16:57:26,2.0.10.248,2,2,1,2,,,,,,,,TrainingProc,BlockList,4,1,Distractor2.bmp,2,0,,0,1,195601,400,,0,0,lime,400,1,400,,vertical,red,Target1.bmp,cyan,Distractor2.bmp,blue,Distractor1.bmp,yellow,Distractor2.bmp,purple,Distractor1.bmp,lime,Distractor2.bmp,,,,TrialProc,6,TrainingTrialList,1,1,-999999,0,196001,0,1,818,196819,Target1.bmp,red,1,,,,7,2,4
KW_Experiment5A,35,1,"<?xml version=""1.0""?>\n<Clock xmlns:dt=""urn:schemas-microsoft-com:datatypes""><Description dt:dt=""string"">E-Prime Primary Realtime Clock</Description><StartTime><Timestamp dt:dt=""int"">0</Timestamp><DateUtc dt:dt=""string"">2018-10-18T20:57:25Z</DateUtc></StartTime><FrequencyChanges><FrequencyChange><Frequency dt:dt=""r8"">3215244</Frequency><Timestamp dt:dt=""r8"">7455000455434</Timestamp><Current dt:dt=""r8"">0</Current><DateUtc dt:dt=""string"">2018-10-18T20:57:25Z</DateUtc></FrequencyChange></FrequencyChanges></Clock>\n",KW_Experiment5A-35-1,59.945,1.0.0.105,2,-1062150000,Professional,2.0.10.353,2.0.10.353,10/18/2018,10/18/2018 20:57,16:57:26,2.0.10.248,2,2,1,2,,,,,,,,TrainingProc,BlockList,5,1,Distractor1.bmp,1,0,,0,1,197836,601,,0,0,purple,600,3,600,,vertical,purple,Distractor1.bmp,red,Target1.bmp,lime,Distractor1.bmp,cyan,Distractor2.bmp,blue,Distractor1.bmp,yellow,Distractor2.bmp,,,,TrialProc,5,TrainingTrialList,1,1,-999999,1,198437,0,1,686,199123,Target1.bmp,red,1,,,,8,2,5
KW_Experiment5A,35,1,"<?xml version=""1.0""?>\n<Clock xmlns:dt=""urn:schemas-microsoft-com:datatypes""><Description dt:dt=""string"">E-Prime Primary Realtime Clock</Description><StartTime><Timestamp dt:dt=""int"">0</Timestamp><DateUtc dt:dt=""string"">2018-10-18T20:57:25Z</DateUtc></StartTime><FrequencyChanges><FrequencyChange><Frequency dt:dt=""r8"">3215244</Frequency><Timestamp dt:dt=""r8"">7455000455434</Timestamp><Current dt:dt=""r8"">0</Current><DateUtc dt:dt=""string"">2018-10-18T20:57:25Z</DateUtc></FrequencyChange></FrequencyChanges></Clock>\n",KW_Experiment5A-35-1,59.945,1.0.0.105,2,-1062150000,Professional,2.0.10.353,2.0.10.353,10/18/2018,10/18/2018 20:57,16:57:26,2.0.10.248,2,2,1,2,,,,,,,,TrainingProc,BlockList,6,1,Distractor1.bmp,1,0,,0,1,200138,501,,0,0,lime,500,2,500,,vertical,red,Target1.bmp,cyan,Distractor1.bmp,purple,Distractor2.bmp,yellow,Distractor2.bmp,blue,Distractor2.bmp,lime,Distractor2.bmp,,,,TrialProc,6,TrainingTrialList,1,1,-999999,1,200639,0,1,868,201507,Target1.bmp,red,1,,,,7,2,6
KW_Experiment5A,35,1,"<?xml version=""1.0""?>\n<Clock xmlns:dt=""urn:schemas-microsoft-com:datatypes""><Description dt:dt=""string"">E-Prime Primary Realtime Clock</Description><StartTime><Timestamp dt:dt=""int"">0</Timestamp><DateUtc dt:dt=""string"">2018-10-18T20:57:25Z</DateUtc></StartTime><FrequencyChanges><FrequencyChange><Frequency dt:dt=""r8"">3215244</Frequency><Timestamp dt:dt=""r8"">7455000455434</Timestamp><Current dt:dt=""r8"">0</Current><DateUtc dt:dt=""string"">2018-10-18T20:57:25Z</DateUtc></FrequencyChange></FrequencyChanges></Clock>\n",KW_Experiment5A-35-1,59.945,1.0.0.105,2,-1062150000,Professional,2.0.10.353,2.0.10.353,10/18/2018,10/18/2018 20:57,16:57:26,2.0.10.248,2,2,1,2,,,,,,,,TrainingProc,BlockList,7,2,Distractor1.bmp,1,0,,0,1,202524,600,,0,0,cyan,600,3,600,,horizontal,cyan,Distractor2.bmp,blue,Distractor2.bmp,purple,Distractor1.bmp,yellow,Distractor1.bmp,red,Target2.bmp,lime,Distractor1.bmp,,,,TrialProc,4,TrainingTrialList,1,2,-999999,0,203124,0,2,791,203915,Target2.bmp,red,2,,,,11,2,7
KW_Experiment5A,35,1,"<?xml version=""1.0""?>\n<Clock xmlns:dt=""urn:schemas-microsoft-com:datatypes""><Description dt:dt=""string"">E-Prime Primary Realtime Clock</Description><StartTime><Timestamp dt:dt=""int"">0</Timestamp><DateUtc dt:dt=""string"">2018-10-18T20:57:25Z</DateUtc></StartTime><FrequencyChanges><FrequencyChange><Frequency dt:dt=""r8"">3215244</Frequency><Timestamp dt:dt=""r8"">7455000455434</Timestamp><Current dt:dt=""r8"">0</Current><DateUtc dt:dt=""string"">2018-10-18T20:57:25Z</DateUtc></FrequencyChange></FrequencyChanges></Clock>\n",KW_Experiment5A-35-1,59.945,1.0.0.105,2,-1062150000,Professional,2.0.10.353,2.0.10.353,10/18/2018,10/18/2018 20:57,16:57:26,2.0.10.248,2,2,1,2,,,,,,,,TrainingProc,BlockList,8,2,Distractor2.bmp,2,0,,0,1,204926,601,,0,0,yellow,600,3,600,2,horizontal,yellow,Distractor1.bmp,cyan,Distractor1.bmp,red,Distractor1.bmp,lime,Target2.bmp,blue,Distractor2.bmp,purple,Distractor2.bmp,,,,TrialProc,,TrainingTrialList,0,2,-999999,1,205527,0,1,1011,206538,Target2.bmp,lime,2,,,,4,2,8
KW_Experiment5A,35,1,"<?xml version=""1.0""?>\n<Clock xmlns:dt=""urn:schemas-microsoft-com:datatypes""><Description dt:dt=""string"">E-Prime Primary Realtime Clock</Description><StartTime><Timestamp dt:dt=""int"">0</Timestamp><DateUtc dt:dt=""string"">2018-10-18T20:57:25Z</DateUtc></StartTime><FrequencyChanges><FrequencyChange><Frequency dt:dt=""r8"">3215244</Frequency><Timestamp dt:dt=""r8"">7455000455434</Timestamp><Current dt:dt=""r8"">0</Current><DateUtc dt:dt=""string"">2018-10-18T20:57:25Z</DateUtc></FrequencyChange></FrequencyChanges></Clock>\n",KW_Experiment5A-35-1,59.945,1.0.0.105,2,-1062150000,Professional,2.0.10.353,2.0.10.353,10/18/2018,10/18/2018 20:57,16:57:26,2.0.10.248,2,2,1,2,,,,,,,,TrainingProc,BlockList,9,2,Distractor1.bmp,1,0,,0,1,207562,400,,0,0,cyan,400,1,400,4,horizontal,cyan,Distractor2.bmp,red,Distractor1.bmp,blue,Distractor1.bmp,purple,Distractor2.bmp,lime,Target2.bmp,yellow,Distractor1.bmp,,,,TrialProc,,TrainingTrialList,1,2,-999999,0,207962,0,2,968,208930,Target2.bmp,lime,2,,,,5,2,9
KW_Experiment5A,35,1,"<?xml version=""1.0""?>\n<Clock xmlns:dt=""urn:schemas-microsoft-com:datatypes""><Description dt:dt=""string"">E-Prime Primary Realtime Clock</Description><StartTime><Timestamp dt:dt=""int"">0</Timestamp><DateUtc dt:dt=""string"">2018-10-18T20:57:25Z</DateUtc></StartTime><FrequencyChanges><FrequencyChange><Frequency dt:dt=""r8"">3215244</Frequency><Timestamp dt:dt=""r8"">7455000455434</Timestamp><Current dt:dt=""r8"">0</Current><DateUtc dt:dt=""string"">2018-10-18T20:57:25Z</DateUtc></FrequencyChange></FrequencyChanges></Clock>\n",KW_Experiment5A-35-1,59.945,1.0.0.105,2,-1062150000,Professional,2.0.10.353,2.0.10.353,10/18/2018,10/18/2018 20:57,16:57:26,2.0.10.248,2,2,1,2,,,,,,,,TrainingProc,BlockList,10,1,Distractor2.bmp,2,0,,0,1,209947,501,,0,0,red,500,2,500,1,vertical,lime,Target1.bmp,red,Distractor2.bmp,yellow,Distractor1.bmp,purple,Distractor2.bmp,cyan,Distractor1.bmp,blue,Distractor1.bmp,,,,TrialProc,,TrainingTrialList,1,1,-999999,1,210448,0,1,970,211418,Target1.bmp,lime,1,,,,1,2,10
KW_Experiment5A,35,1,"<?xml version=""1.0""?>\n<Clock xmlns:dt=""urn:schemas-microsoft-com:datatypes""><Description dt:dt=""string"">E-Prime Primary Realtime Clock</Description><StartTime><Timestamp dt:dt=""int"">0</Timestamp><DateUtc dt:dt=""string"">2018-10-18T20:57:25Z</DateUtc></StartTime><FrequencyChanges><FrequencyChange><Frequency dt:dt=""r8"">3215244</Frequency><Timestamp dt:dt=""r8"">7455000455434</Timestamp><Current dt:dt=""r8"">0</Current><DateUtc dt:dt=""string"">2018-10-18T20:57:25Z</DateUtc></FrequencyChange></FrequencyChanges></Clock>\n",KW_Experiment5A-35-1,59.945,1.0.0.105,2,-1062150000,Professional,2.0.10.353,2.0.10.353,10/18/2018,10/18/2018 20:57,16:57:26,2.0.10.248,2,2,1,2,,,,,,,,TrainingProc,BlockList,11,1,Distractor2.bmp,2,0,,0,1,212433,600,,0,0,blue,600,3,600,,vertical,blue,Distractor2.bmp,yellow,Distractor1.bmp,cyan,Distractor1.bmp,lime,Distractor1.bmp,purple,Distractor1.bmp,red,Target1.bmp,,,,TrialProc,3,TrainingTrialList,1,1,-999999,0,213033,0,1,649,213682,Target1.bmp,red,1,,,,12,2,11
KW_Experiment5A,35,1,"<?xml version=""1.0""?>\n<Clock xmlns:dt=""urn:schemas-microsoft-com:datatypes""><Description dt:dt=""string"">E-Prime Primary Realtime Clock</Description><StartTime><Timestamp dt:dt=""int"">0</Timestamp><DateUtc dt:dt=""string"">2018-10-18T20:57:25Z</DateUtc></StartTime><FrequencyChanges><FrequencyChange><Frequency dt:dt=""r8"">3215244</Frequency><Timestamp dt:dt=""r8"">7455000455434</Timestamp><Current dt:dt=""r8"">0</Current><DateUtc dt:dt=""string"">2018-10-18T20:57:25Z</DateUtc></FrequencyChange></FrequencyChanges></Clock>\n",KW_Experiment5A-35-1,59.945,1.0.0.105,2,-1062150000,Professional,2.0.10.353,2.0.10.353,10/18/2018,10/18/2018 20:57,16:57:26,2.0.10.248,2,2,1,2,,,,,,,,TrainingProc,BlockList,12,2,Distractor1.bmp,1,0,,0,1,214702,600,,0,0,purple,600,3,600,5,horizontal,purple,Distractor1.bmp,cyan,Distractor1.bmp,blue,Distractor1.bmp,red,Distractor1.bmp,yellow,Distractor2.bmp,lime,Target2.bmp,,,,TrialProc,,TrainingTrialList,1,2,-999999,0,215302,0,2,564,215866,Target2.bmp,lime,2,,,,6,2,12
KW_Experiment5A,35,1,"<?xml version=""1.0""?>\n<Clock xmlns:dt=""urn:schemas-microsoft-com:datatypes""><Description dt:dt=""string"">E-Prime Primary Realtime Clock</Description><StartTime><Timestamp dt:dt=""int"">0</Timestamp><DateUtc dt:dt=""string"">2018-10-18T20:57:25Z</DateUtc></StartTime><FrequencyChanges><FrequencyChange><Frequency dt:dt=""r8"">3215244</Frequency><Timestamp dt:dt=""r8"">7455000455434</Timestamp><Current dt:dt=""r8"">0</Current><DateUtc dt:dt=""string"">2018-10-18T20:57:25Z</DateUtc></FrequencyChange></FrequencyChanges></Clock>\n",KW_Experiment5A-35-1,59.945,1.0.0.105,2,-1062150000,Professional,2.0.10.353,2.0.10.353,10/18/2018,10/18/2018 20:57,16:57:26,2.0.10.248,2,2,1,2,,,,,,,,TrainingProc,BlockList,13,1,Distractor2.bmp,2,0,,0,1,216887,500,,0,0,cyan,500,2,500,,vertical,cyan,Distractor1.bmp,lime,Distractor2.bmp,blue,Distractor2.bmp,red,Target1.bmp,yellow,Distractor2.bmp,purple,Distractor1.bmp,,,,TrialProc,4,TrainingTrialList,1,1,-999999,0,217387,0,1,919,218306,Target1.bmp,red,1,,,,10,2,13
KW_Experiment5A,35,1,"<?xml version=""1.0""?>\n<Clock xmlns:dt=""urn:schemas-microsoft-com:datatypes""><Description dt:dt=""string"">E-Prime Primary Realtime Clock</Description><StartTime><Timestamp dt:dt=""int"">0</Timestamp><DateUtc dt:dt=""string"">2018-10-18T20:57:25Z</DateUtc></StartTime><FrequencyChanges><FrequencyChange><Frequency dt:dt=""r8"">3215244</Frequency><Timestamp dt:dt=""r8"">7455000455434</Timestamp><Current dt:dt=""r8"">0</Current><DateUtc dt:dt=""string"">2018-10-18T20:57:25Z</DateUtc></FrequencyChange></FrequencyChanges></Clock>\n",KW_Experiment5A-35-1,59.945,1.0.0.105,2,-1062150000,Professional,2.0.10.353,2.0.10.353,10/18/2018,10/18/2018 20:57,16:57:26,2.0.10.248,2,2,1,2,,,,,,,,TrainingProc,BlockList,14,2,Distractor1.bmp,1,0,,0,1,219323,400,,0,0,lime,400,1,400,,horizontal,lime,Distractor1.bmp,cyan,Distractor1.bmp,blue,Distractor1.bmp,purple,Distractor1.bmp,red,Target2.bmp,yellow,Distractor1.bmp,,,,TrialProc,6,TrainingTrialList,1,2,-999999,0,219723,0,2,631,220354,Target2.bmp,red,2,,,,11,2,14
KW_Experiment5A,35,1,"<?xml version=""1.0""?>\n<Clock xmlns:dt=""urn:schemas-microsoft-com:datatypes""><Description dt:dt=""string"">E-Prime Primary Realtime Clock</Description><StartTime><Timestamp dt:dt=""int"">0</Timestamp><DateUtc dt:dt=""string"">2018-10-18T20:57:25Z</DateUtc></StartTime><FrequencyChanges><FrequencyChange><Frequency dt:dt=""r8"">3215244</Frequency><Timestamp dt:dt=""r8"">7455000455434</Timestamp><Current dt:dt=""r8"">0</Current><DateUtc dt:dt=""string"">2018-10-18T20:57:25Z</DateUtc></FrequencyChange></FrequencyChanges></Clock>\n",KW_Experiment5A-35-1,59.945,1.0.0.105,2,-1062150000,Professional,2.0.10.353,2.0.10.353,10/18/2018,10/18/2018 20:57,16:57:26,2.0.10.248,2,2,1,2,,,,,,,,TrainingProc,BlockList,15,2,Distractor2.bmp,2,0,,1,0,221374,501,,0,0,lime,500,2,500,,horizontal,lime,Distractor2.bmp,cyan,Distractor2.bmp,red,Target2.bmp,purple,Distractor2.bmp,yellow,Distractor2.bmp,blue,Distractor2.bmp,,,,TrialProc,6,TrainingTrialList,1,2,-999999,1,221875,0,2,1415,223290,Target2.bmp,red,2,,,,9,2,15
KW_Experiment5A,35,1,"<?xml version=""1.0""?>\n<Clock xmlns:dt=""urn:schemas-microsoft-com:datatypes""><Description dt:dt=""string"">E-Prime Primary Realtime Clock</Description><StartTime><Timestamp dt:dt=""int"">0</Timestamp><DateUtc dt:dt=""string"">2018-10-18T20:57:25Z</DateUtc></StartTime><FrequencyChanges><FrequencyChange><Frequency dt:dt=""r8"">3215244</Frequency><Timestamp dt:dt=""r8"">7455000455434</Timestamp><Current dt:dt=""r8"">0</Current><DateUtc dt:dt=""string"">2018-10-18T20:57:25Z</DateUtc></FrequencyChange></FrequencyChanges></Clock>\n",KW_Experiment5A-35-1,59.945,1.0.0.105,2,-1062150000,Professional,2.0.10.353,2.0.10.353,10/18/2018,10/18/2018 20:57,16:57:26,2.0.10.248,2,2,1,2,,,,,,,,TrainingProc,BlockList,16,2,Distractor2.bmp,2,0,,0,1,224311,600,,0,0,blue,600,3,600,,horizontal,blue,Distractor1.bmp,red,Target2.bmp,yellow,Distractor2.bmp,cyan,Distractor2.bmp,lime,Distractor2.bmp,purple,Distractor1.bmp,,,,TrialProc,3,TrainingTrialList,1,2,-999999,0,224911,0,2,507,225418,Target2.bmp,red,2,,,,8,2,16
KW_Experiment5A,35,1,"<?xml version=""1.0""?>\n<Clock xmlns:dt=""urn:schemas-microsoft-com:datatypes""><Description dt:dt=""string"">E-Prime Primary Realtime Clock</Description><StartTime><Timestamp dt:dt=""int"">0</Timestamp><DateUtc dt:dt=""string"">2018-10-18T20:57:25Z</DateUtc></StartTime><FrequencyChanges><FrequencyChange><Frequency dt:dt=""r8"">3215244</Frequency><Timestamp dt:dt=""r8"">7455000455434</Timestamp><Current dt:dt=""r8"">0</Current><DateUtc dt:dt=""string"">2018-10-18T20:57:25Z</DateUtc></FrequencyChange></FrequencyChanges></Clock>\n",KW_Experiment5A-35-1,59.945,1.0.0.105,2,-1062150000,Professional,2.0.10.353,2.0.10.353,10/18/2018,10/18/2018 20:57,16:57:26,2.0.10.248,2,2,1,2,,,,,,,,TrainingProc,BlockList,17,2,Distractor2.bmp,2,0,,0,1,226429,401,,0,0,yellow,400,1,400,,horizontal,yellow,Distractor1.bmp,blue,Distractor2.bmp,purple,Distractor1.bmp,lime,Distractor1.bmp,red,Target2.bmp,cyan,Distractor2.bmp,,,,TrialProc,2,TrainingTrialList,1,2,-999999,1,226830,0,2,476,227306,Target2.bmp,red,2,,,,11,2,17
KW_Experiment5A,35,1,"<?xml version=""1.0""?>\n<Clock xmlns:dt=""urn:schemas-microsoft-com:datatypes""><Description dt:dt=""string"">E-Prime Primary Realtime Clock</Description><StartTime><Timestamp dt:dt=""int"">0</Timestamp><DateUtc dt:dt=""string"">2018-10-18T20:57:25Z</DateUtc></StartTime><FrequencyChanges><FrequencyChange><Frequency dt:dt=""r8"">3215244</Frequency><Timestamp dt:dt=""r8"">7455000455434</Timestamp><Current dt:dt=""r8"">0</Current><DateUtc dt:dt=""string"">2018-10-18T20:57:25Z</DateUtc></FrequencyChange></FrequencyChanges></Clock>\n",KW_Experiment5A-35-1,59.945,1.0.0.105,2,-1062150000,Professional,2.0.10.353,2.0.10.353,10/18/2018,10/18/2018 20:57,16:57:26,2.0.10.248,2,2,1,2,,,,,,,,TrainingProc,BlockList,18,1,Distractor2.bmp,2,0,,0,1,228331,600,,0,0,red,600,3,600,1,vertical,red,Distractor1.bmp,cyan,Distractor1.bmp,lime,Target1.bmp,blue,Distractor2.bmp,yellow,Distractor2.bmp,purple,Distractor2.bmp,,,,TrialProc,,TrainingTrialList,0,1,-999999,0,228931,0,2,831,229762,Target1.bmp,lime,1,,,,3,2,18
KW_Experiment5A,35,1,"<?xml version=""1.0""?>\n<Clock xmlns:dt=""urn:schemas-microsoft-com:datatypes""><Description dt:dt=""string"">E-Prime Primary Realtime Clock</Description><StartTime><Timestamp dt:dt=""int"">0</Timestamp><DateUtc dt:dt=""string"">2018-10-18T20:57:25Z</DateUtc></StartTime><FrequencyChanges><FrequencyChange><Frequency dt:dt=""r8"">3215244</Frequency><Timestamp dt:dt=""r8"">7455000455434</Timestamp><Current dt:dt=""r8"">0</Current><DateUtc dt:dt=""string"">2018-10-18T20:57:25Z</DateUtc></FrequencyChange></FrequencyChanges></Clock>\n",KW_Experiment5A-35-1,59.945,1.0.0.105,2,-1062150000,Professional,2.0.10.353,2.0.10.353,10/18/2018,10/18/2018 20:57,16:57:26,2.0.10.248,2,2,1,2,,,,,,,,TrainingProc,BlockList,19,1,Distractor2.bmp,2,0,,0,1,230783,501,,0,0,cyan,500,2,500,,vertical,red,Target1.bmp,blue,Distractor2.bmp,purple,Distractor2.bmp,lime,Distractor1.bmp,yellow,Distractor1.bmp,cyan,Distractor2.bmp,,,,TrialProc,4,TrainingTrialList,1,1,-999999,1,231284,0,1,1030,232314,Target1.bmp,red,1,,,,7,2,19
KW_Experiment5A,35,1,"<?xml version=""1.0""?>\n<Clock xmlns:dt=""urn:schemas-microsoft-com:datatypes""><Description dt:dt=""string"">E-Prime Primary Realtime Clock</Description><StartTime><Timestamp dt:dt=""int"">0</Timestamp><DateUtc dt:dt=""string"">2018-10-18T20:57:25Z</DateUtc></StartTime><FrequencyChanges><FrequencyChange><Frequency dt:dt=""r8"">3215244</Frequency><Timestamp dt:dt=""r8"">7455000455434</Timestamp><Current dt:dt=""r8"">0</Current><DateUtc dt:dt=""string"">2018-10-18T20:57:25Z</DateUtc></FrequencyChange></FrequencyChanges></Clock>\n",KW_Experiment5A-35-1,59.945,1.0.0.105,2,-1062150000,Professional,2.0.10.353,2.0.10.353,10/18/2018,10/18/2018 20:57,16:57:26,2.0.10.248,2,2,1,2,,,,,,,,TrainingProc,BlockList,20,1,Distractor2.bmp,2,0,,0,1,233336,400,,0,0,cyan,400,1,400,4,vertical,cyan,Distractor1.bmp,lime,Target1.bmp,blue,Distractor2.bmp,purple,Distractor1.bmp,red,Distractor2.bmp,yellow,Distractor1.bmp,,,,TrialProc,,TrainingTrialList,1,1,-999999,0,233736,0,1,562,234298,Target1.bmp,lime,1,,,,2,2,20
KW_Experiment5A,35,1,"<?xml version=""1.0""?>\n<Clock xmlns:dt=""urn:schemas-microsoft-com:datatypes""><Description dt:dt=""string"">E-Prime Primary Realtime Clock</Description><StartTime><Timestamp dt:dt=""int"">0</Timestamp><DateUtc dt:dt=""string"">2018-10-18T20:57:25Z</DateUtc></StartTime><FrequencyChanges><FrequencyChange><Frequency dt:dt=""r8"">3215244</Frequency><Timestamp dt:dt=""r8"">7455000455434</Timestamp><Current dt:dt=""r8"">0</Current><DateUtc dt:dt=""string"">2018-10-18T20:57:25Z</DateUtc></FrequencyChange></FrequencyChanges></Clock>\n",KW_Experiment5A-35-1,59.945,1.0.0.105,2,-1062150000,Professional,2.0.10.353,2.0.10.353,10/18/2018,10/18/2018 20:57,16:57:26,2.0.10.248,2,2,1,2,,,,,,,,TrainingProc,BlockList,21,1,Distractor2.bmp,2,0,,0,1,235321,400,,0,0,yellow,400,1,400,,vertical,yellow,Distractor2.bmp,lime,Distractor1.bmp,cyan,Distractor1.bmp,red,Target1.bmp,blue,Distractor2.bmp,purple,Distractor2.bmp,,,,TrialProc,2,TrainingTrialList,1,1,-999999,0,235721,0,1,1521,237242,Target1.bmp,red,1,,,,10,2,21
KW_Experiment5A,35,1,"<?xml version=""1.0""?>\n<Clock xmlns:dt=""urn:schemas-microsoft-com:datatypes""><Description dt:dt=""string"">E-Prime Primary Realtime Clock</Description><StartTime><Timestamp dt:dt=""int"">0</Timestamp><DateUtc dt:dt=""string"">2018-10-18T20:57:25Z</DateUtc></StartTime><FrequencyChanges><FrequencyChange><Frequency dt:dt=""r8"">3215244</Frequency><Timestamp dt:dt=""r8"">7455000455434</Timestamp><Current dt:dt=""r8"">0</Current><DateUtc dt:dt=""string"">2018-10-18T20:57:25Z</DateUtc></FrequencyChange></FrequencyChanges></Clock>\n",KW_Experiment5A-35-1,59.945,1.0.0.105,2,-1062150000,Professional,2.0.10.353,2.0.10.353,10/18/2018,10/18/2018 20:57,16:57:26,2.0.10.248,2,2,1,2,,,,,,,,TrainingProc,BlockList,22,1,Distractor2.bmp,2,0,,0,1,238257,600,,0,0,yellow,600,3,600,,vertical,yellow,Distractor2.bmp,cyan,Distractor2.bmp,lime,Distractor2.bmp,blue,Distractor1.bmp,purple,Distractor1.bmp,red,Target1.bmp,,,,TrialProc,2,TrainingTrialList,1,1,-999999,0,238857,0,1,641,239498,Target1.bmp,red,1,,,,12,2,22
KW_Experiment5A,35,1,"<?xml version=""1.0""?>\n<Clock xmlns:dt=""urn:schemas-microsoft-com:datatypes""><Description dt:dt=""string"">E-Prime Primary Realtime Clock</Description><StartTime><Timestamp dt:dt=""int"">0</Timestamp><DateUtc dt:dt=""string"">2018-10-18T20:57:25Z</DateUtc></StartTime><FrequencyChanges><FrequencyChange><Frequency dt:dt=""r8"">3215244</Frequency><Timestamp dt:dt=""r8"">7455000455434</Timestamp><Current dt:dt=""r8"">0</Current><DateUtc dt:dt=""string"">2018-10-18T20:57:25Z</DateUtc></FrequencyChange></FrequencyChanges></Clock>\n",KW_Experiment5A-35-1,59.945,1.0.0.105,2,-1062150000,Professional,2.0.10.353,2.0.10.353,10/18/2018,10/18/2018 20:57,16:57:26,2.0.10.248,2,2,1,2,,,,,,,,TrainingProc,BlockList,23,2,Distractor2.bmp,2,0,,0,1,240509,500,,0,0,yellow,500,2,500,,horizontal,yellow,Distractor2.bmp,blue,Distractor2.bmp,lime,Distractor1.bmp,red,Target2.bmp,cyan,Distractor2.bmp,purple,Distractor1.bmp,,,,TrialProc,2,TrainingTrialList,1,2,-999999,0,241009,0,2,809,241818,Target2.bmp,red,2,,,,10,2,23
KW_Experiment5A,35,1,"<?xml version=""1.0""?>\n<Clock xmlns:dt=""urn:schemas-microsoft-com:datatypes""><Description dt:dt=""string"">E-Prime Primary Realtime Clock</Description><StartTime><Timestamp dt:dt=""int"">0</Timestamp><DateUtc dt:dt=""string"">2018-10-18T20:57:25Z</DateUtc></StartTime><FrequencyChanges><FrequencyChange><Frequency dt:dt=""r8"">3215244</Frequency><Timestamp dt:dt=""r8"">7455000455434</Timestamp><Current dt:dt=""r8"">0</Current><DateUtc dt:dt=""string"">2018-10-18T20:57:25Z</DateUtc></FrequencyChange></FrequencyChanges></Clock>\n",KW_Experiment5A-35-1,59.945,1.0.0.105,2,-1062150000,Professional,2.0.10.353,2.0.10.353,10/18/2018,10/18/2018 20:57,16:57:26,2.0.10.248,2,2,1,2,,,,,,,,TrainingProc,BlockList,24,1,Distractor2.bmp,2,0,,0,1,242828,400,,0,0,purple,400,1,400,,vertical,purple,Distractor2.bmp,red,Target1.bmp,yellow,Distractor2.bmp,blue,Distractor2.bmp,lime,Distractor2.bmp,cyan,Distractor1.bmp,,,,TrialProc,5,TrainingTrialList,1,1,-999999,0,243228,0,1,430,243658,Target1.bmp,red,1,,,,8,2,24
KW_Experiment5A,35,1,"<?xml version=""1.0""?>\n<Clock xmlns:dt=""urn:schemas-microsoft-com:datatypes""><Description dt:dt=""string"">E-Prime Primary Realtime Clock</Description><StartTime><Timestamp dt:dt=""int"">0</Timestamp><DateUtc dt:dt=""string"">2018-10-18T20:57:25Z</DateUtc></StartTime><FrequencyChanges><FrequencyChange><Frequency dt:dt=""r8"">3215244</Frequency><Timestamp dt:dt=""r8"">7455000455434</Timestamp><Current dt:dt=""r8"">0</Current><DateUtc dt:dt=""string"">2018-10-18T20:57:25Z</DateUtc></FrequencyChange></FrequencyChanges></Clock>\n",KW_Experiment5A-35-1,59.945,1.0.0.105,2,-1062150000,Professional,2.0.10.353,2.0.10.353,10/18/2018,10/18/2018 20:57,16:57:26,2.0.10.248,2,2,1,2,,,,,,,,TrainingProc,BlockList,25,2,Distractor2.bmp,2,0,,0,1,244679,501,,0,0,lime,500,2,500,,horizontal,lime,Distractor2.bmp,cyan,Distractor2.bmp,red,Target2.bmp,blue,Distractor2.bmp,yellow,Distractor2.bmp,purple,Distractor1.bmp,,,,TrialProc,6,TrainingTrialList,1,2,-999999,1,245180,0,2,470,245650,Target2.bmp,red,2,,,,9,3,25
KW_Experiment5A,35,1,"<?xml version=""1.0""?>\n<Clock xmlns:dt=""urn:schemas-microsoft-com:datatypes""><Description dt:dt=""string"">E-Prime Primary Realtime Clock</Description><StartTime><Timestamp dt:dt=""int"">0</Timestamp><DateUtc dt:dt=""string"">2018-10-18T20:57:25Z</DateUtc></StartTime><FrequencyChanges><FrequencyChange><Frequency dt:dt=""r8"">3215244</Frequency><Timestamp dt:dt=""r8"">7455000455434</Timestamp><Current dt:dt=""r8"">0</Current><DateUtc dt:dt=""string"">2018-10-18T20:57:25Z</DateUtc></FrequencyChange></FrequencyChanges></Clock>\n",KW_Experiment5A-35-1,59.945,1.0.0.105,2,-1062150000,Professional,2.0.10.353,2.0.10.353,10/18/2018,10/18/2018 20:57,16:57:26,2.0.10.248,2,2,1,2,,,,,,,,TrainingProc,BlockList,26,2,Distractor2.bmp,2,0,,0,1,246665,600,,0,0,blue,600,3,600,,horizontal,blue,Distractor2.bmp,cyan,Distractor1.bmp,purple,Distractor2.bmp,red,Target2.bmp,lime,Distractor2.bmp,yellow,Distractor2.bmp,,,,TrialProc,3,TrainingTrialList,1,2,-999999,0,247265,0,2,753,248018,Target2.bmp,red,2,,,,10,3,26
KW_Experiment5A,35,1,"<?xml version=""1.0""?>\n<Clock xmlns:dt=""urn:schemas-microsoft-com:datatypes""><Description dt:dt=""string"">E-Prime Primary Realtime Clock</Description><StartTime><Timestamp dt:dt=""int"">0</Timestamp><DateUtc dt:dt=""string"">2018-10-18T20:57:25Z</DateUtc></StartTime><FrequencyChanges><FrequencyChange><Frequency dt:dt=""r8"">3215244</Frequency><Timestamp dt:dt=""r8"">7455000455434</Timestamp><Current dt:dt=""r8"">0</Current><DateUtc dt:dt=""string"">2018-10-18T20:57:25Z</DateUtc></FrequencyChange></FrequencyChanges></Clock>\n",KW_Experiment5A-35-1,59.945,1.0.0.105,2,-1062150000,Professional,2.0.10.353,2.0.10.353,10/18/2018,10/18/2018 20:57,16:57:26,2.0.10.248,2,2,1,2,,,,,,,,TrainingProc,BlockList,27,1,Distractor1.bmp,1,0,,0,1,249033,401,,0,0,blue,400,1,400,,vertical,blue,Distractor1.bmp,yellow,Distractor2.bmp,red,Target1.bmp,purple,Distractor1.bmp,lime,Distractor2.bmp,cyan,Distractor1.bmp,,,,TrialProc,3,TrainingTrialList,1,1,-999999,1,249434,0,1,696,250130,Target1.bmp,red,1,,,,9,3,27
KW_Experiment5A,35,1,"<?xml version=""1.0""?>\n<Clock xmlns:dt=""urn:schemas-microsoft-com:datatypes""><Description dt:dt=""string"">E-Prime Primary Realtime Clock</Description><StartTime><Timestamp dt:dt=""int"">0</Timestamp><DateUtc dt:dt=""string"">2018-10-18T20:57:25Z</DateUtc></StartTime><FrequencyChanges><FrequencyChange><Frequency dt:dt=""r8"">3215244</Frequency><Timestamp dt:dt=""r8"">7455000455434</Timestamp><Current dt:dt=""r8"">0</Current><DateUtc dt:dt=""string"">2018-10-18T20:57:25Z</DateUtc></FrequencyChange></FrequencyChanges></Clock>\n",KW_Experiment5A-35-1,59.945,1.0.0.105,2,-1062150000,Professional,2.0.10.353,2.0.10.353,10/18/2018,10/18/2018 20:57,16:57:26,2.0.10.248,2,2,1,2,,,,,,,,TrainingProc,BlockList,28,2,Distractor2.bmp,2,0,,0,1,251152,601,,0,0,purple,600,3,600,,horizontal,purple,Distractor1.bmp,yellow,Distractor1.bmp,lime,Distractor2.bmp,blue,Distractor1.bmp,red,Target2.bmp,cyan,Distractor2.bmp,,,,TrialProc,5,TrainingTrialList,1,2,-999999,1,251753,0,2,473,252226,Target2.bmp,red,2,,,,11,3,28
KW_Experiment5A,35,1,"<?xml version=""1.0""?>\n<Clock xmlns:dt=""urn:schemas-microsoft-com:datatypes""><Description dt:dt=""string"">E-Prime Primary Realtime Clock</Description><StartTime><Timestamp dt:dt=""int"">0</Timestamp><DateUtc dt:dt=""string"">2018-10-18T20:57:25Z</DateUtc></StartTime><FrequencyChanges><FrequencyChange><Frequency dt:dt=""r8"">3215244</Frequency><Timestamp dt:dt=""r8"">7455000455434</Timestamp><Current dt:dt=""r8"">0</Current><DateUtc dt:dt=""string"">2018-10-18T20:57:25Z</DateUtc></FrequencyChange></FrequencyChanges></Clock>\n",KW_Experiment5A-35-1,59.945,1.0.0.105,2,-1062150000,Professional,2.0.10.353,2.0.10.353,10/18/2018,10/18/2018 20:57,16:57:26,2.0.10.248,2,2,1,2,,,,,,,,TrainingProc,BlockList,29,1,Distractor2.bmp,2,0,,0,1,253237,501,,0,0,purple,500,2,500,,vertical,purple,Distractor2.bmp,red,Target1.bmp,lime,Distractor2.bmp,yellow,Distractor1.bmp,blue,Distractor1.bmp,cyan,Distractor2.bmp,,,,TrialProc,5,TrainingTrialList,1,1,-999999,1,253738,0,1,472,254210,Target1.bmp,red,1,,,,8,3,29
KW_Experiment5A,35,1,"<?xml version=""1.0""?>\n<Clock xmlns:dt=""urn:schemas-microsoft-com:datatypes""><Description dt:dt=""string"">E-Prime Primary Realtime Clock</Description><StartTime><Timestamp dt:dt=""int"">0</Timestamp><DateUtc dt:dt=""string"">2018-10-18T20:57:25Z</DateUtc></StartTime><FrequencyChanges><FrequencyChange><Frequency dt:dt=""r8"">3215244</Frequency><Timestamp dt:dt=""r8"">7455000455434</Timestamp><Current dt:dt=""r8"">0</Current><DateUtc dt:dt=""string"">2018-10-18T20:57:25Z</DateUtc></FrequencyChange></FrequencyChanges></Clock>\n",KW_Experiment5A-35-1,59.945,1.0.0.105,2,-1062150000,Professional,2.0.10.353,2.0.10.353,10/18/2018,10/18/2018 20:57,16:57:26,2.0.10.248,2,2,1,2,,,,,,,,TrainingProc,BlockList,30,2,Distractor1.bmp,1,0,,0,1,255222,401,,0,0,yellow,400,1,400,,horizontal,yellow,Distractor1.bmp,red,Target2.bmp,blue,Distractor1.bmp,purple,Distractor1.bmp,lime,Distractor2.bmp,cyan,Distractor1.bmp,,,,TrialProc,2,TrainingTrialList,1,2,-999999,1,255623,0,2,451,256074,Target2.bmp,red,2,,,,8,3,30
KW_Experiment5A,35,1,"<?xml version=""1.0""?>\n<Clock xmlns:dt=""urn:schemas-microsoft-com:datatypes""><Description dt:dt=""string"">E-Prime Primary Realtime Clock</Description><StartTime><Timestamp dt:dt=""int"">0</Timestamp><DateUtc dt:dt=""string"">2018-10-18T20:57:25Z</DateUtc></StartTime><FrequencyChanges><FrequencyChange><Frequency dt:dt=""r8"">3215244</Frequency><Timestamp dt:dt=""r8"">7455000455434</Timestamp><Current dt:dt=""r8"">0</Current><DateUtc dt:dt=""string"">2018-10-18T20:57:25Z</DateUtc></FrequencyChange></FrequencyChanges></Clock>\n",KW_Experiment5A-35-1,59.945,1.0.0.105,2,-1062150000,Professional,2.0.10.353,2.0.10.353,10/18/2018,10/18/2018 20:57,16:57:26,2.0.10.248,2,2,1,2,,,,,,,,TrainingProc,BlockList,31,2,Distractor1.bmp,1,0,,0,1,257091,400,,0,0,purple,400,1,400,,horizontal,purple,Distractor1.bmp,yellow,Distractor1.bmp,cyan,Distractor1.bmp,blue,Distractor2.bmp,red,Target2.bmp,lime,Distractor1.bmp,,,,TrialProc,5,TrainingTrialList,1,2,-999999,0,257491,0,2,623,258114,Target2.bmp,red,2,,,,11,3,31
KW_Experiment5A,35,1,"<?xml version=""1.0""?>\n<Clock xmlns:dt=""urn:schemas-microsoft-com:datatypes""><Description dt:dt=""string"">E-Prime Primary Realtime Clock</Description><StartTime><Timestamp dt:dt=""int"">0</Timestamp><DateUtc dt:dt=""string"">2018-10-18T20:57:25Z</DateUtc></StartTime><FrequencyChanges><FrequencyChange><Frequency dt:dt=""r8"">3215244</Frequency><Timestamp dt:dt=""r8"">7455000455434</Timestamp><Current dt:dt=""r8"">0</Current><DateUtc dt:dt=""string"">2018-10-18T20:57:25Z</DateUtc></FrequencyChange></FrequencyChanges></Clock>\n",KW_Experiment5A-35-1,59.945,1.0.0.105,2,-1062150000,Professional,2.0.10.353,2.0.10.353,10/18/2018,10/18/2018 20:57,16:57:26,2.0.10.248,2,2,1,2,,,,,,,,TrainingProc,BlockList,32,1,Distractor1.bmp,1,0,,0,1,259126,400,,0,0,blue,400,1,400,,vertical,blue,Distractor1.bmp,yellow,Distractor1.bmp,cyan,Distractor1.bmp,red,Target1.bmp,purple,Distractor1.bmp,lime,Distractor2.bmp,,,,TrialProc,3,TrainingTrialList,0,1,-999999,0,259526,0,2,588,260114,Target1.bmp,red,1,,,,10,3,32
KW_Experiment5A,35,1,"<?xml version=""1.0""?>\n<Clock xmlns:dt=""urn:schemas-microsoft-com:datatypes""><Description dt:dt=""string"">E-Prime Primary Realtime Clock</Description><StartTime><Timestamp dt:dt=""int"">0</Timestamp><DateUtc dt:dt=""string"">2018-10-18T20:57:25Z</DateUtc></StartTime><FrequencyChanges><FrequencyChange><Frequency dt:dt=""r8"">3215244</Frequency><Timestamp dt:dt=""r8"">7455000455434</Timestamp><Current dt:dt=""r8"">0</Current><DateUtc dt:dt=""string"">2018-10-18T20:57:25Z</DateUtc></FrequencyChange></FrequencyChanges></Clock>\n",KW_Experiment5A-35-1,59.945,1.0.0.105,2,-1062150000,Professional,2.0.10.353,2.0.10.353,10/18/2018,10/18/2018 20:57,16:57:26,2.0.10.248,2,2,1,2,,,,,,,,TrainingProc,BlockList,33,2,Distractor1.bmp,1,0,,0,1,261128,500,,0,0,yellow,500,2,500,2,horizontal,yellow,Distractor2.bmp,cyan,Distractor2.bmp,lime,Target2.bmp,red,Distractor1.bmp,blue,Distractor1.bmp,purple,Distractor2.bmp,,,,TrialProc,,TrainingTrialList,1,2,-999999,0,261628,0,2,742,262370,Target2.bmp,lime,2,,,,3,3,33
KW_Experiment5A,35,1,"<?xml version=""1.0""?>\n<Clock xmlns:dt=""urn:schemas-microsoft-com:datatypes""><Description dt:dt=""string"">E-Prime Primary Realtime Clock</Description><StartTime><Timestamp dt:dt=""int"">0</Timestamp><DateUtc dt:dt=""string"">2018-10-18T20:57:25Z</DateUtc></StartTime><FrequencyChanges><FrequencyChange><Frequency dt:dt=""r8"">3215244</Frequency><Timestamp dt:dt=""r8"">7455000455434</Timestamp><Current dt:dt=""r8"">0</Current><DateUtc dt:dt=""string"">2018-10-18T20:57:25Z</DateUtc></FrequencyChange></FrequencyChanges></Clock>\n",KW_Experiment5A-35-1,59.945,1.0.0.105,2,-1062150000,Professional,2.0.10.353,2.0.10.353,10/18/2018,10/18/2018 20:57,16:57:26,2.0.10.248,2,2,1,2,,,,,,,,TrainingProc,BlockList,34,1,Distractor1.bmp,1,0,,0,1,263380,600,,0,0,blue,600,3,600,3,vertical,blue,Distractor2.bmp,purple,Distractor1.bmp,yellow,Distractor2.bmp,lime,Target1.bmp,cyan,Distractor1.bmp,red,Distractor2.bmp,,,,TrialProc,,TrainingTrialList,0,1,-999999,0,263980,0,2,702,264682,Target1.bmp,lime,1,,,,4,3,34
KW_Experiment5A,35,1,"<?xml version=""1.0""?>\n<Clock xmlns:dt=""urn:schemas-microsoft-com:datatypes""><Description dt:dt=""string"">E-Prime Primary Realtime Clock</Description><StartTime><Timestamp dt:dt=""int"">0</Timestamp><DateUtc dt:dt=""string"">2018-10-18T20:57:25Z</DateUtc></StartTime><FrequencyChanges><FrequencyChange><Frequency dt:dt=""r8"">3215244</Frequency><Timestamp dt:dt=""r8"">7455000455434</Timestamp><Current dt:dt=""r8"">0</Current><DateUtc dt:dt=""string"">2018-10-18T20:57:25Z</DateUtc></FrequencyChange></FrequencyChanges></Clock>\n",KW_Experiment5A-35-1,59.945,1.0.0.105,2,-1062150000,Professional,2.0.10.353,2.0.10.353,10/18/2018,10/18/2018 20:57,16:57:26,2.0.10.248,2,2,1,2,,,,,,,,TrainingProc,BlockList,35,2,Distractor1.bmp,1,0,,0,1,265699,600,,0,0,purple,600,3,600,,horizontal,purple,Distractor1.bmp,cyan,Distractor1.bmp,yellow,Distractor2.bmp,blue,Distractor1.bmp,lime,Distractor2.bmp,red,Target2.bmp,,,,TrialProc,5,TrainingTrialList,1,2,-999999,0,266299,0,2,5447,271746,Target2.bmp,red,2,,,,12,3,35
KW_Experiment5A,35,1,"<?xml version=""1.0""?>\n<Clock xmlns:dt=""urn:schemas-microsoft-com:datatypes""><Description dt:dt=""string"">E-Prime Primary Realtime Clock</Description><StartTime><Timestamp dt:dt=""int"">0</Timestamp><DateUtc dt:dt=""string"">2018-10-18T20:57:25Z</DateUtc></StartTime><FrequencyChanges><FrequencyChange><Frequency dt:dt=""r8"">3215244</Frequency><Timestamp dt:dt=""r8"">7455000455434</Timestamp><Current dt:dt=""r8"">0</Current><DateUtc dt:dt=""string"">2018-10-18T20:57:25Z</DateUtc></FrequencyChange></FrequencyChanges></Clock>\n",KW_Experiment5A-35-1,59.945,1.0.0.105,2,-1062150000,Professional,2.0.10.353,2.0.10.353,10/18/2018,10/18/2018 20:57,16:57:26,2.0.10.248,2,2,1,2,,,,,,,,TrainingProc,BlockList,36,1,Distractor1.bmp,1,0,,0,1,272772,500,,0,0,yellow,500,2,500,,vertical,yellow,Distractor1.bmp,cyan,Distractor2.bmp,lime,Distractor1.bmp,blue,Distractor2.bmp,purple,Distractor1.bmp,red,Target1.bmp,,,,TrialProc,2,TrainingTrialList,1,1,-999999,0,273272,0,1,1114,274386,Target1.bmp,red,1,,,,12,3,36
KW_Experiment5A,35,1,"<?xml version=""1.0""?>\n<Clock xmlns:dt=""urn:schemas-microsoft-com:datatypes""><Description dt:dt=""string"">E-Prime Primary Realtime Clock</Description><StartTime><Timestamp dt:dt=""int"">0</Timestamp><DateUtc dt:dt=""string"">2018-10-18T20:57:25Z</DateUtc></StartTime><FrequencyChanges><FrequencyChange><Frequency dt:dt=""r8"">3215244</Frequency><Timestamp dt:dt=""r8"">7455000455434</Timestamp><Current dt:dt=""r8"">0</Current><DateUtc dt:dt=""string"">2018-10-18T20:57:25Z</DateUtc></FrequencyChange></FrequencyChanges></Clock>\n",KW_Experiment5A-35-1,59.945,1.0.0.105,2,-1062150000,Professional,2.0.10.353,2.0.10.353,10/18/2018,10/18/2018 20:57,16:57:26,2.0.10.248,2,2,1,2,,,,,,,,TrainingProc,BlockList,37,1,Distractor1.bmp,1,0,,0,1,275408,400,,0,0,cyan,400,1,400,4,vertical,cyan,Distractor2.bmp,red,Distractor2.bmp,purple,Distractor2.bmp,yellow,Distractor1.bmp,lime,Target1.bmp,blue,Distractor1.bmp,,,,TrialProc,,TrainingTrialList,1,1,-999999,0,275808,0,1,1434,277242,Target1.bmp,lime,1,,,,5,3,37
KW_Experiment5A,35,1,"<?xml version=""1.0""?>\n<Clock xmlns:dt=""urn:schemas-microsoft-com:datatypes""><Description dt:dt=""string"">E-Prime Primary Realtime Clock</Description><StartTime><Timestamp dt:dt=""int"">0</Timestamp><DateUtc dt:dt=""string"">2018-10-18T20:57:25Z</DateUtc></StartTime><FrequencyChanges><FrequencyChange><Frequency dt:dt=""r8"">3215244</Frequency><Timestamp dt:dt=""r8"">7455000455434</Timestamp><Current dt:dt=""r8"">0</Current><DateUtc dt:dt=""string"">2018-10-18T20:57:25Z</DateUtc></FrequencyChange></FrequencyChanges></Clock>\n",KW_Experiment5A-35-1,59.945,1.0.0.105,2,-1062150000,Professional,2.0.10.353,2.0.10.353,10/18/2018,10/18/2018 20:57,16:57:26,2.0.10.248,2,2,1,2,,,,,,,,TrainingProc,BlockList,38,1,Distractor1.bmp,1,0,,0,1,278260,601,,0,0,yellow,600,3,600,2,vertical,lime,Target1.bmp,yellow,Distractor1.bmp,red,Distractor1.bmp,cyan,Distractor1.bmp,purple,Distractor2.bmp,blue,Distractor2.bmp,,,,TrialProc,,TrainingTrialList,1,1,-999999,1,278861,0,1,1501,280362,Target1.bmp,lime,1,,,,1,3,38
KW_Experiment5A,35,1,"<?xml version=""1.0""?>\n<Clock xmlns:dt=""urn:schemas-microsoft-com:datatypes""><Description dt:dt=""string"">E-Prime Primary Realtime Clock</Description><StartTime><Timestamp dt:dt=""int"">0</Timestamp><DateUtc dt:dt=""string"">2018-10-18T20:57:25Z</DateUtc></StartTime><FrequencyChanges><FrequencyChange><Frequency dt:dt=""r8"">3215244</Frequency><Timestamp dt:dt=""r8"">7455000455434</Timestamp><Current dt:dt=""r8"">0</Current><DateUtc dt:dt=""string"">2018-10-18T20:57:25Z</DateUtc></FrequencyChange></FrequencyChanges></Clock>\n",KW_Experiment5A-35-1,59.945,1.0.0.105,2,-1062150000,Professional,2.0.10.353,2.0.10.353,10/18/2018,10/18/2018 20:57,16:57:26,2.0.10.248,2,2,1,2,,,,,,,,TrainingProc,BlockList,39,1,Distractor1.bmp,1,0,,0,1,281380,600,,0,0,cyan,600,3,600,,vertical,cyan,Distractor1.bmp,red,Target1.bmp,blue,Distractor1.bmp,yellow,Distractor1.bmp,lime,Distractor2.bmp,purple,Distractor2.bmp,,,,TrialProc,4,TrainingTrialList,1,1,-999999,0,281980,0,1,518,282498,Target1.bmp,red,1,,,,8,3,39
KW_Experiment5A,35,1,"<?xml version=""1.0""?>\n<Clock xmlns:dt=""urn:schemas-microsoft-com:datatypes""><Description dt:dt=""string"">E-Prime Primary Realtime Clock</Description><StartTime><Timestamp dt:dt=""int"">0</Timestamp><DateUtc dt:dt=""string"">2018-10-18T20:57:25Z</DateUtc></StartTime><FrequencyChanges><FrequencyChange><Frequency dt:dt=""r8"">3215244</Frequency><Timestamp dt:dt=""r8"">7455000455434</Timestamp><Current dt:dt=""r8"">0</Current><DateUtc dt:dt=""string"">2018-10-18T20:57:25Z</DateUtc></FrequencyChange></FrequencyChanges></Clock>\n",KW_Experiment5A-35-1,59.945,1.0.0.105,2,-1062150000,Professional,2.0.10.353,2.0.10.353,10/18/2018,10/18/2018 20:57,16:57:26,2.0.10.248,2,2,1,2,,,,,,,,TrainingProc,BlockList,40,1,Distractor2.bmp,2,0,,0,1,283515,501,,0,0,lime,500,2,500,,vertical,red,Target1.bmp,purple,Distractor2.bmp,cyan,Distractor1.bmp,blue,Distractor1.bmp,yellow,Distractor2.bmp,lime,Distractor1.bmp,,,,TrialProc,6,TrainingTrialList,1,1,-999999,1,284016,0,1,1034,285050,Target1.bmp,red,1,,,,7,3,40
KW_Experiment5A,35,1,"<?xml version=""1.0""?>\n<Clock xmlns:dt=""urn:schemas-microsoft-com:datatypes""><Description dt:dt=""string"">E-Prime Primary Realtime Clock</Description><StartTime><Timestamp dt:dt=""int"">0</Timestamp><DateUtc dt:dt=""string"">2018-10-18T20:57:25Z</DateUtc></StartTime><FrequencyChanges><FrequencyChange><Frequency dt:dt=""r8"">3215244</Frequency><Timestamp dt:dt=""r8"">7455000455434</Timestamp><Current dt:dt=""r8"">0</Current><DateUtc dt:dt=""string"">2018-10-18T20:57:25Z</DateUtc></FrequencyChange></FrequencyChanges></Clock>\n",KW_Experiment5A-35-1,59.945,1.0.0.105,2,-1062150000,Professional,2.0.10.353,2.0.10.353,10/18/2018,10/18/2018 20:57,16:57:26,2.0.10.248,2,2,1,2,,,,,,,,TrainingProc,BlockList,41,1,Distractor1.bmp,1,0,,1,0,286067,401,,0,0,cyan,400,1,400,,vertical,cyan,Distractor1.bmp,purple,Distractor2.bmp,red,Target1.bmp,yellow,Distractor1.bmp,blue,Distractor2.bmp,lime,Distractor2.bmp,,,,TrialProc,4,TrainingTrialList,1,1,-999999,1,286468,0,1,526,286994,Target1.bmp,red,1,,,,9,3,41
KW_Experiment5A,35,1,"<?xml version=""1.0""?>\n<Clock xmlns:dt=""urn:schemas-microsoft-com:datatypes""><Description dt:dt=""string"">E-Prime Primary Realtime Clock</Description><StartTime><Timestamp dt:dt=""int"">0</Timestamp><DateUtc dt:dt=""string"">2018-10-18T20:57:25Z</DateUtc></StartTime><FrequencyChanges><FrequencyChange><Frequency dt:dt=""r8"">3215244</Frequency><Timestamp dt:dt=""r8"">7455000455434</Timestamp><Current dt:dt=""r8"">0</Current><DateUtc dt:dt=""string"">2018-10-18T20:57:25Z</DateUtc></FrequencyChange></FrequencyChanges></Clock>\n",KW_Experiment5A-35-1,59.945,1.0.0.105,2,-1062150000,Professional,2.0.10.353,2.0.10.353,10/18/2018,10/18/2018 20:57,16:57:26,2.0.10.248,2,2,1,2,,,,,,,,TrainingProc,BlockList,42,1,Distractor1.bmp,1,0,,0,1,288019,401,,0,0,purple,400,1,400,5,vertical,purple,Distractor2.bmp,lime,Target1.bmp,blue,Distractor1.bmp,yellow,Distractor1.bmp,cyan,Distractor1.bmp,red,Distractor2.bmp,,,,TrialProc,,TrainingTrialList,1,1,-999999,1,288420,0,1,398,288818,Target1.bmp,lime,1,,,,2,3,42
KW_Experiment5A,35,1,"<?xml version=""1.0""?>\n<Clock xmlns:dt=""urn:schemas-microsoft-com:datatypes""><Description dt:dt=""string"">E-Prime Primary Realtime Clock</Description><StartTime><Timestamp dt:dt=""int"">0</Timestamp><DateUtc dt:dt=""string"">2018-10-18T20:57:25Z</DateUtc></StartTime><FrequencyChanges><FrequencyChange><Frequency dt:dt=""r8"">3215244</Frequency><Timestamp dt:dt=""r8"">7455000455434</Timestamp><Current dt:dt=""r8"">0</Current><DateUtc dt:dt=""string"">2018-10-18T20:57:25Z</DateUtc></FrequencyChange></FrequencyChanges></Clock>\n",KW_Experiment5A-35-1,59.945,1.0.0.105,2,-1062150000,Professional,2.0.10.353,2.0.10.353,10/18/2018,10/18/2018 20:57,16:57:26,2.0.10.248,2,2,1,2,,,,,,,,TrainingProc,BlockList,43,1,Distractor2.bmp,2,0,,0,1,289838,400,,0,0,lime,400,1,400,,vertical,red,Target1.bmp,purple,Distractor2.bmp,blue,Distractor1.bmp,yellow,Distractor1.bmp,cyan,Distractor2.bmp,lime,Distractor2.bmp,,,,TrialProc,6,TrainingTrialList,1,1,-999999,0,290238,0,1,820,291058,Target1.bmp,red,1,,,,7,3,43
KW_Experiment5A,35,1,"<?xml version=""1.0""?>\n<Clock xmlns:dt=""urn:schemas-microsoft-com:datatypes""><Description dt:dt=""string"">E-Prime Primary Realtime Clock</Description><StartTime><Timestamp dt:dt=""int"">0</Timestamp><DateUtc dt:dt=""string"">2018-10-18T20:57:25Z</DateUtc></StartTime><FrequencyChanges><FrequencyChange><Frequency dt:dt=""r8"">3215244</Frequency><Timestamp dt:dt=""r8"">7455000455434</Timestamp><Current dt:dt=""r8"">0</Current><DateUtc dt:dt=""string"">2018-10-18T20:57:25Z</DateUtc></FrequencyChange></FrequencyChanges></Clock>\n",KW_Experiment5A-35-1,59.945,1.0.0.105,2,-1062150000,Professional,2.0.10.353,2.0.10.353,10/18/2018,10/18/2018 20:57,16:57:26,2.0.10.248,2,2,1,2,,,,,,,,TrainingProc,BlockList,44,1,Distractor2.bmp,2,0,,0,1,292073,400,,0,0,yellow,400,1,400,,vertical,red,Target1.bmp,cyan,Distractor2.bmp,lime,Distractor1.bmp,purple,Distractor2.bmp,blue,Distractor1.bmp,yellow,Distractor2.bmp,,,,TrialProc,2,TrainingTrialList,1,1,-999999,0,292473,0,1,529,293002,Target1.bmp,red,1,,,,7,3,44
KW_Experiment5A,35,1,"<?xml version=""1.0""?>\n<Clock xmlns:dt=""urn:schemas-microsoft-com:datatypes""><Description dt:dt=""string"">E-Prime Primary Realtime Clock</Description><StartTime><Timestamp dt:dt=""int"">0</Timestamp><DateUtc dt:dt=""string"">2018-10-18T20:57:25Z</DateUtc></StartTime><FrequencyChanges><FrequencyChange><Frequency dt:dt=""r8"">3215244</Frequency><Timestamp dt:dt=""r8"">7455000455434</Timestamp><Current dt:dt=""r8"">0</Current><DateUtc dt:dt=""string"">2018-10-18T20:57:25Z</DateUtc></FrequencyChange></FrequencyChanges></Clock>\n",KW_Experiment5A-35-1,59.945,1.0.0.105,2,-1062150000,Professional,2.0.10.353,2.0.10.353,10/18/2018,10/18/2018 20:57,16:57:26,2.0.10.248,2,2,1,2,,,,,,,,TrainingProc,BlockList,45,2,Distractor2.bmp,2,0,,0,1,294025,500,,0,0,cyan,500,2,500,4,horizontal,cyan,Distractor2.bmp,yellow,Distractor1.bmp,blue,Distractor1.bmp,purple,Distractor1.bmp,red,Distractor1.bmp,lime,Target2.bmp,,,,TrialProc,,TrainingTrialList,1,2,-999999,0,294525,0,2,1061,295586,Target2.bmp,lime,2,,,,6,3,45
KW_Experiment5A,35,1,"<?xml version=""1.0""?>\n<Clock xmlns:dt=""urn:schemas-microsoft-com:datatypes""><Description dt:dt=""string"">E-Prime Primary Realtime Clock</Description><StartTime><Timestamp dt:dt=""int"">0</Timestamp><DateUtc dt:dt=""string"">2018-10-18T20:57:25Z</DateUtc></StartTime><FrequencyChanges><FrequencyChange><Frequency dt:dt=""r8"">3215244</Frequency><Timestamp dt:dt=""r8"">7455000455434</Timestamp><Current dt:dt=""r8"">0</Current><DateUtc dt:dt=""string"">2018-10-18T20:57:25Z</DateUtc></FrequencyChange></FrequencyChanges></Clock>\n",KW_Experiment5A-35-1,59.945,1.0.0.105,2,-1062150000,Professional,2.0.10.353,2.0.10.353,10/18/2018,10/18/2018 20:57,16:57:26,2.0.10.248,2,2,1,2,,,,,,,,TrainingProc,BlockList,46,1,Distractor1.bmp,1,0,,0,1,296611,500,,0,0,lime,500,2,500,,vertical,lime,Distractor1.bmp,blue,Distractor1.bmp,cyan,Distractor1.bmp,purple,Distractor1.bmp,yellow,Distractor1.bmp,red,Target1.bmp,,,,TrialProc,6,TrainingTrialList,1,1,-999999,0,297111,0,1,659,297770,Target1.bmp,red,1,,,,12,3,46
KW_Experiment5A,35,1,"<?xml version=""1.0""?>\n<Clock xmlns:dt=""urn:schemas-microsoft-com:datatypes""><Description dt:dt=""string"">E-Prime Primary Realtime Clock</Description><StartTime><Timestamp dt:dt=""int"">0</Timestamp><DateUtc dt:dt=""string"">2018-10-18T20:57:25Z</DateUtc></StartTime><FrequencyChanges><FrequencyChange><Frequency dt:dt=""r8"">3215244</Frequency><Timestamp dt:dt=""r8"">7455000455434</Timestamp><Current dt:dt=""r8"">0</Current><DateUtc dt:dt=""string"">2018-10-18T20:57:25Z</DateUtc></FrequencyChange></FrequencyChanges></Clock>\n",KW_Experiment5A-35-1,59.945,1.0.0.105,2,-1062150000,Professional,2.0.10.353,2.0.10.353,10/18/2018,10/18/2018 20:57,16:57:26,2.0.10.248,2,2,1,2,,,,,,,,TrainingProc,BlockList,47,2,Distractor2.bmp,2,0,,0,1,298779,501,,0,0,cyan,500,2,500,,horizontal,cyan,Distractor1.bmp,purple,Distractor2.bmp,blue,Distractor1.bmp,yellow,Distractor2.bmp,red,Target2.bmp,lime,Distractor2.bmp,,,,TrialProc,4,TrainingTrialList,1,2,-999999,1,299280,0,2,754,300034,Target2.bmp,red,2,,,,11,3,47
KW_Experiment5A,35,1,"<?xml version=""1.0""?>\n<Clock xmlns:dt=""urn:schemas-microsoft-com:datatypes""><Description dt:dt=""string"">E-Prime Primary Realtime Clock</Description><StartTime><Timestamp dt:dt=""int"">0</Timestamp><DateUtc dt:dt=""string"">2018-10-18T20:57:25Z</DateUtc></StartTime><FrequencyChanges><FrequencyChange><Frequency dt:dt=""r8"">3215244</Frequency><Timestamp dt:dt=""r8"">7455000455434</Timestamp><Current dt:dt=""r8"">0</Current><DateUtc dt:dt=""string"">2018-10-18T20:57:25Z</DateUtc></FrequencyChange></FrequencyChanges></Clock>\n",KW_Experiment5A-35-1,59.945,1.0.0.105,2,-1062150000,Professional,2.0.10.353,2.0.10.353,10/18/2018,10/18/2018 20:57,16:57:26,2.0.10.248,2,2,1,2,,,,,,,,TrainingProc,BlockList,48,1,Distractor1.bmp,1,0,,0,1,301048,601,,0,0,lime,600,3,600,,vertical,lime,Distractor1.bmp,yellow,Distractor1.bmp,blue,Distractor1.bmp,red,Target1.bmp,purple,Distractor1.bmp,cyan,Distractor1.bmp,,,,TrialProc,6,TrainingTrialList,1,1,-999999,1,301649,0,1,577,302226,Target1.bmp,red,1,,,,10,3,48
KW_Experiment5A,35,1,"<?xml version=""1.0""?>\n<Clock xmlns:dt=""urn:schemas-microsoft-com:datatypes""><Description dt:dt=""string"">E-Prime Primary Realtime Clock</Description><StartTime><Timestamp dt:dt=""int"">0</Timestamp><DateUtc dt:dt=""string"">2018-10-18T20:57:25Z</DateUtc></StartTime><FrequencyChanges><FrequencyChange><Frequency dt:dt=""r8"">3215244</Frequency><Timestamp dt:dt=""r8"">7455000455434</Timestamp><Current dt:dt=""r8"">0</Current><DateUtc dt:dt=""string"">2018-10-18T20:57:25Z</DateUtc></FrequencyChange></FrequencyChanges></Clock>\n",KW_Experiment5A-35-1,59.945,1.0.0.105,2,-1062150000,Professional,2.0.10.353,2.0.10.353,10/18/2018,10/18/2018 20:57,16:57:26,2.0.10.248,3,2,1,3,,,,,,,,TrainingProc,BlockList,1,1,Distractor1.bmp,1,0,,0,18,306620,400,,0,0,purple,400,1,400,,vertical,purple,Distractor1.bmp,yellow,Distractor2.bmp,lime,Distractor1.bmp,blue,Distractor1.bmp,red,Target1.bmp,cyan,Distractor1.bmp,,,,TrialProc,5,TrainingTrialList,1,1,-999999,0,307020,0,1,1006,308026,Target1.bmp,red,1,,,,11,4,49
KW_Experiment5A,35,1,"<?xml version=""1.0""?>\n<Clock xmlns:dt=""urn:schemas-microsoft-com:datatypes""><Description dt:dt=""string"">E-Prime Primary Realtime Clock</Description><StartTime><Timestamp dt:dt=""int"">0</Timestamp><DateUtc dt:dt=""string"">2018-10-18T20:57:25Z</DateUtc></StartTime><FrequencyChanges><FrequencyChange><Frequency dt:dt=""r8"">3215244</Frequency><Timestamp dt:dt=""r8"">7455000455434</Timestamp><Current dt:dt=""r8"">0</Current><DateUtc dt:dt=""string"">2018-10-18T20:57:25Z</DateUtc></FrequencyChange></FrequencyChanges></Clock>\n",KW_Experiment5A-35-1,59.945,1.0.0.105,2,-1062150000,Professional,2.0.10.353,2.0.10.353,10/18/2018,10/18/2018 20:57,16:57:26,2.0.10.248,3,2,1,3,,,,,,,,TrainingProc,BlockList,2,2,Distractor2.bmp,2,0,,0,1,309039,500,,0,0,lime,500,2,500,,horizontal,lime,Distractor2.bmp,purple,Distractor2.bmp,blue,Distractor1.bmp,yellow,Distractor2.bmp,cyan,Distractor1.bmp,red,Target2.bmp,,,,TrialProc,6,TrainingTrialList,1,2,-999999,0,309539,0,2,702,310241,Target2.bmp,red,2,,,,12,4,50
KW_Experiment5A,35,1,"<?xml version=""1.0""?>\n<Clock xmlns:dt=""urn:schemas-microsoft-com:datatypes""><Description dt:dt=""string"">E-Prime Primary Realtime Clock</Description><StartTime><Timestamp dt:dt=""int"">0</Timestamp><DateUtc dt:dt=""string"">2018-10-18T20:57:25Z</DateUtc></StartTime><FrequencyChanges><FrequencyChange><Frequency dt:dt=""r8"">3215244</Frequency><Timestamp dt:dt=""r8"">7455000455434</Timestamp><Current dt:dt=""r8"">0</Current><DateUtc dt:dt=""string"">2018-10-18T20:57:25Z</DateUtc></FrequencyChange></FrequencyChanges></Clock>\n",KW_Experiment5A-35-1,59.945,1.0.0.105,2,-1062150000,Professional,2.0.10.353,2.0.10.353,10/18/2018,10/18/2018 20:57,16:57:26,2.0.10.248,3,2,1,3,,,,,,,,TrainingProc,BlockList,3,2,Distractor1.bmp,1,0,,0,1,311257,501,,0,0,blue,500,2,500,3,horizontal,blue,Distractor2.bmp,yellow,Distractor2.bmp,cyan,Distractor1.bmp,lime,Target2.bmp,red,Distractor1.bmp,purple,Distractor1.bmp,,,,TrialProc,,TrainingTrialList,1,2,-999999,1,311758,0,2,939,312697,Target2.bmp,lime,2,,,,4,4,51
KW_Experiment5A,35,1,"<?xml version=""1.0""?>\n<Clock xmlns:dt=""urn:schemas-microsoft-com:datatypes""><Description dt:dt=""string"">E-Prime Primary Realtime Clock</Description><StartTime><Timestamp dt:dt=""int"">0</Timestamp><DateUtc dt:dt=""string"">2018-10-18T20:57:25Z</DateUtc></StartTime><FrequencyChanges><FrequencyChange><Frequency dt:dt=""r8"">3215244</Frequency><Timestamp dt:dt=""r8"">7455000455434</Timestamp><Current dt:dt=""r8"">0</Current><DateUtc dt:dt=""string"">2018-10-18T20:57:25Z</DateUtc></FrequencyChange></FrequencyChanges></Clock>\n",KW_Experiment5A-35-1,59.945,1.0.0.105,2,-1062150000,Professional,2.0.10.353,2.0.10.353,10/18/2018,10/18/2018 20:57,16:57:26,2.0.10.248,3,2,1,3,,,,,,,,TrainingProc,BlockList,4,2,Distractor1.bmp,1,0,,0,1,313710,500,,0,0,yellow,500,2,500,2,horizontal,yellow,Distractor1.bmp,cyan,Distractor1.bmp,red,Distractor1.bmp,purple,Distractor2.bmp,blue,Distractor1.bmp,lime,Target2.bmp,,,,TrialProc,,TrainingTrialList,1,2,-999999,0,314210,0,2,599,314809,Target2.bmp,lime,2,,,,6,4,52
KW_Experiment5A,35,1,"<?xml version=""1.0""?>\n<Clock xmlns:dt=""urn:schemas-microsoft-com:datatypes""><Description dt:dt=""string"">E-Prime Primary Realtime Clock</Description><StartTime><Timestamp dt:dt=""int"">0</Timestamp><DateUtc dt:dt=""string"">2018-10-18T20:57:25Z</DateUtc></StartTime><FrequencyChanges><FrequencyChange><Frequency dt:dt=""r8"">3215244</Frequency><Timestamp dt:dt=""r8"">7455000455434</Timestamp><Current dt:dt=""r8"">0</Current><DateUtc dt:dt=""string"">2018-10-18T20:57:25Z</DateUtc></FrequencyChange></FrequencyChanges></Clock>\n",KW_Experiment5A-35-1,59.945,1.0.0.105,2,-1062150000,Professional,2.0.10.353,2.0.10.353,10/18/2018,10/18/2018 20:57,16:57:26,2.0.10.248,3,2,1,3,,,,,,,,TrainingProc,BlockList,5,2,Distractor2.bmp,2,0,,0,1,315828,401,,0,0,purple,400,1,400,,horizontal,purple,Distractor2.bmp,cyan,Distractor2.bmp,blue,Distractor2.bmp,yellow,Distractor1.bmp,lime,Distractor1.bmp,red,Target2.bmp,,,,TrialProc,5,TrainingTrialList,1,2,-999999,1,316229,0,2,1092,317321,Target2.bmp,red,2,,,,12,4,53
KW_Experiment5A,35,1,"<?xml version=""1.0""?>\n<Clock xmlns:dt=""urn:schemas-microsoft-com:datatypes""><Description dt:dt=""string"">E-Prime Primary Realtime Clock</Description><StartTime><Timestamp dt:dt=""int"">0</Timestamp><DateUtc dt:dt=""string"">2018-10-18T20:57:25Z</DateUtc></StartTime><FrequencyChanges><FrequencyChange><Frequency dt:dt=""r8"">3215244</Frequency><Timestamp dt:dt=""r8"">7455000455434</Timestamp><Current dt:dt=""r8"">0</Current><DateUtc dt:dt=""string"">2018-10-18T20:57:25Z</DateUtc></FrequencyChange></FrequencyChanges></Clock>\n",KW_Experiment5A-35-1,59.945,1.0.0.105,2,-1062150000,Professional,2.0.10.353,2.0.10.353,10/18/2018,10/18/2018 20:57,16:57:26,2.0.10.248,3,2,1,3,,,,,,,,TrainingProc,BlockList,6,1,Distractor2.bmp,2,0,,0,1,318347,601,,0,0,yellow,600,3,600,,vertical,red,Target1.bmp,purple,Distractor2.bmp,lime,Distractor1.bmp,cyan,Distractor2.bmp,blue,Distractor1.bmp,yellow,Distractor2.bmp,,,,TrialProc,2,TrainingTrialList,1,1,-999999,1,318948,0,1,629,319577,Target1.bmp,red,1,,,,7,4,54
KW_Experiment5A,35,1,"<?xml version=""1.0""?>\n<Clock xmlns:dt=""urn:schemas-microsoft-com:datatypes""><Description dt:dt=""string"">E-Prime Primary Realtime Clock</Description><StartTime><Timestamp dt:dt=""int"">0</Timestamp><DateUtc dt:dt=""string"">2018-10-18T20:57:25Z</DateUtc></StartTime><FrequencyChanges><FrequencyChange><Frequency dt:dt=""r8"">3215244</Frequency><Timestamp dt:dt=""r8"">7455000455434</Timestamp><Current dt:dt=""r8"">0</Current><DateUtc dt:dt=""string"">2018-10-18T20:57:25Z</DateUtc></FrequencyChange></FrequencyChanges></Clock>\n",KW_Experiment5A-35-1,59.945,1.0.0.105,2,-1062150000,Professional,2.0.10.353,2.0.10.353,10/18/2018,10/18/2018 20:57,16:57:26,2.0.10.248,3,2,1,3,,,,,,,,TrainingProc,BlockList,7,1,Distractor1.bmp,1,0,,0,1,320599,501,,0,0,cyan,500,2,500,,vertical,cyan,Distractor1.bmp,red,Target1.bmp,purple,Distractor1.bmp,lime,Distractor1.bmp,blue,Distractor2.bmp,yellow,Distractor2.bmp,,,,TrialProc,4,TrainingTrialList,1,1,-999999,1,321100,0,1,693,321793,Target1.bmp,red,1,,,,8,4,55
KW_Experiment5A,35,1,"<?xml version=""1.0""?>\n<Clock xmlns:dt=""urn:schemas-microsoft-com:datatypes""><Description dt:dt=""string"">E-Prime Primary Realtime Clock</Description><StartTime><Timestamp dt:dt=""int"">0</Timestamp><DateUtc dt:dt=""string"">2018-10-18T20:57:25Z</DateUtc></StartTime><FrequencyChanges><FrequencyChange><Frequency dt:dt=""r8"">3215244</Frequency><Timestamp dt:dt=""r8"">7455000455434</Timestamp><Current dt:dt=""r8"">0</Current><DateUtc dt:dt=""string"">2018-10-18T20:57:25Z</DateUtc></FrequencyChange></FrequencyChanges></Clock>\n",KW_Experiment5A-35-1,59.945,1.0.0.105,2,-1062150000,Professional,2.0.10.353,2.0.10.353,10/18/2018,10/18/2018 20:57,16:57:26,2.0.10.248,3,2,1,3,,,,,,,,TrainingProc,BlockList,8,2,Distractor2.bmp,2,0,,0,1,322818,400,,0,0,blue,400,1,400,,horizontal,blue,Distractor2.bmp,cyan,Distractor1.bmp,purple,Distractor1.bmp,red,Target2.bmp,yellow,Distractor2.bmp,lime,Distractor1.bmp,,,,TrialProc,3,TrainingTrialList,1,2,-999999,0,323218,0,2,855,324073,Target2.bmp,red,2,,,,10,4,56
KW_Experiment5A,35,1,"<?xml version=""1.0""?>\n<Clock xmlns:dt=""urn:schemas-microsoft-com:datatypes""><Description dt:dt=""string"">E-Prime Primary Realtime Clock</Description><StartTime><Timestamp dt:dt=""int"">0</Timestamp><DateUtc dt:dt=""string"">2018-10-18T20:57:25Z</DateUtc></StartTime><FrequencyChanges><FrequencyChange><Frequency dt:dt=""r8"">3215244</Frequency><Timestamp dt:dt=""r8"">7455000455434</Timestamp><Current dt:dt=""r8"">0</Current><DateUtc dt:dt=""string"">2018-10-18T20:57:25Z</DateUtc></FrequencyChange></FrequencyChanges></Clock>\n",KW_Experiment5A-35-1,59.945,1.0.0.105,2,-1062150000,Professional,2.0.10.353,2.0.10.353,10/18/2018,10/18/2018 20:57,16:57:26,2.0.10.248,3,2,1,3,,,,,,,,TrainingProc,BlockList,9,1,Distractor1.bmp,1,0,,0,1,325087,400,,0,0,purple,400,1,400,,vertical,purple,Distractor1.bmp,cyan,Distractor2.bmp,blue,Distractor1.bmp,yellow,Distractor1.bmp,lime,Distractor2.bmp,red,Target1.bmp,,,,TrialProc,5,TrainingTrialList,1,1,-999999,0,325487,0,1,522,326009,Target1.bmp,red,1,,,,12,4,57
KW_Experiment5A,35,1,"<?xml version=""1.0""?>\n<Clock xmlns:dt=""urn:schemas-microsoft-com:datatypes""><Description dt:dt=""string"">E-Prime Primary Realtime Clock</Description><StartTime><Timestamp dt:dt=""int"">0</Timestamp><DateUtc dt:dt=""string"">2018-10-18T20:57:25Z</DateUtc></StartTime><FrequencyChanges><FrequencyChange><Frequency dt:dt=""r8"">3215244</Frequency><Timestamp dt:dt=""r8"">7455000455434</Timestamp><Current dt:dt=""r8"">0</Current><DateUtc dt:dt=""string"">2018-10-18T20:57:25Z</DateUtc></FrequencyChange></FrequencyChanges></Clock>\n",KW_Experiment5A-35-1,59.945,1.0.0.105,2,-1062150000,Professional,2.0.10.353,2.0.10.353,10/18/2018,10/18/2018 20:57,16:57:26,2.0.10.248,3,2,1,3,,,,,,,,TrainingProc,BlockList,10,1,Distractor2.bmp,2,0,,0,1,327022,500,,0,0,red,500,2,500,1,vertical,lime,Target1.bmp,red,Distractor2.bmp,cyan,Distractor2.bmp,blue,Distractor1.bmp,purple,Distractor1.bmp,yellow,Distractor1.bmp,,,,TrialProc,,TrainingTrialList,1,1,-999999,0,327522,0,1,503,328025,Target1.bmp,lime,1,,,,1,4,58
KW_Experiment5A,35,1,"<?xml version=""1.0""?>\n<Clock xmlns:dt=""urn:schemas-microsoft-com:datatypes""><Description dt:dt=""string"">E-Prime Primary Realtime Clock</Description><StartTime><Timestamp dt:dt=""int"">0</Timestamp><DateUtc dt:dt=""string"">2018-10-18T20:57:25Z</DateUtc></StartTime><FrequencyChanges><FrequencyChange><Frequency dt:dt=""r8"">3215244</Frequency><Timestamp dt:dt=""r8"">7455000455434</Timestamp><Current dt:dt=""r8"">0</Current><DateUtc dt:dt=""string"">2018-10-18T20:57:25Z</DateUtc></FrequencyChange></FrequencyChanges></Clock>\n",KW_Experiment5A-35-1,59.945,1.0.0.105,2,-1062150000,Professional,2.0.10.353,2.0.10.353,10/18/2018,10/18/2018 20:57,16:57:26,2.0.10.248,3,2,1,3,,,,,,,,TrainingProc,BlockList,11,2,Distractor1.bmp,1,0,,1,1,329040,501,,0,0,blue,500,2,500,,horizontal,red,Target2.bmp,lime,Distractor1.bmp,purple,Distractor1.bmp,cyan,Distractor2.bmp,yellow,Distractor1.bmp,blue,Distractor2.bmp,,,,TrialProc,3,TrainingTrialList,1,2,-999999,1,329541,0,2,484,330025,Target2.bmp,red,2,,,,7,4,59
KW_Experiment5A,35,1,"<?xml version=""1.0""?>\n<Clock xmlns:dt=""urn:schemas-microsoft-com:datatypes""><Description dt:dt=""string"">E-Prime Primary Realtime Clock</Description><StartTime><Timestamp dt:dt=""int"">0</Timestamp><DateUtc dt:dt=""string"">2018-10-18T20:57:25Z</DateUtc></StartTime><FrequencyChanges><FrequencyChange><Frequency dt:dt=""r8"">3215244</Frequency><Timestamp dt:dt=""r8"">7455000455434</Timestamp><Current dt:dt=""r8"">0</Current><DateUtc dt:dt=""string"">2018-10-18T20:57:25Z</DateUtc></FrequencyChange></FrequencyChanges></Clock>\n",KW_Experiment5A-35-1,59.945,1.0.0.105,2,-1062150000,Professional,2.0.10.353,2.0.10.353,10/18/2018,10/18/2018 20:57,16:57:26,2.0.10.248,3,2,1,3,,,,,,,,TrainingProc,BlockList,12,2,Distractor1.bmp,1,0,,0,1,331042,601,,0,0,blue,600,3,600,,horizontal,blue,Distractor1.bmp,cyan,Distractor1.bmp,red,Target2.bmp,yellow,Distractor1.bmp,purple,Distractor2.bmp,lime,Distractor2.bmp,,,,TrialProc,3,TrainingTrialList,1,2,-999999,1,331643,0,2,750,332393,Target2.bmp,red,2,,,,9,4,60
KW_Experiment5A,35,1,"<?xml version=""1.0""?>\n<Clock xmlns:dt=""urn:schemas-microsoft-com:datatypes""><Description dt:dt=""string"">E-Prime Primary Realtime Clock</Description><StartTime><Timestamp dt:dt=""int"">0</Timestamp><DateUtc dt:dt=""string"">2018-10-18T20:57:25Z</DateUtc></StartTime><FrequencyChanges><FrequencyChange><Frequency dt:dt=""r8"">3215244</Frequency><Timestamp dt:dt=""r8"">7455000455434</Timestamp><Current dt:dt=""r8"">0</Current><DateUtc dt:dt=""string"">2018-10-18T20:57:25Z</DateUtc></FrequencyChange></FrequencyChanges></Clock>\n",KW_Experiment5A-35-1,59.945,1.0.0.105,2,-1062150000,Professional,2.0.10.353,2.0.10.353,10/18/2018,10/18/2018 20:57,16:57:26,2.0.10.248,3,2,1,3,,,,,,,,TrainingProc,BlockList,13,1,Distractor2.bmp,2,0,,0,1,333411,401,,0,0,cyan,400,1,400,,vertical,cyan,Distractor1.bmp,lime,Distractor1.bmp,blue,Distractor2.bmp,red,Target1.bmp,purple,Distractor2.bmp,yellow,Distractor1.bmp,,,,TrialProc,4,TrainingTrialList,1,1,-999999,1,333812,0,1,661,334473,Target1.bmp,red,1,,,,10,4,61
KW_Experiment5A,35,1,"<?xml version=""1.0""?>\n<Clock xmlns:dt=""urn:schemas-microsoft-com:datatypes""><Description dt:dt=""string"">E-Prime Primary Realtime Clock</Description><StartTime><Timestamp dt:dt=""int"">0</Timestamp><DateUtc dt:dt=""string"">2018-10-18T20:57:25Z</DateUtc></StartTime><FrequencyChanges><FrequencyChange><Frequency dt:dt=""r8"">3215244</Frequency><Timestamp dt:dt=""r8"">7455000455434</Timestamp><Current dt:dt=""r8"">0</Current><DateUtc dt:dt=""string"">2018-10-18T20:57:25Z</DateUtc></FrequencyChange></FrequencyChanges></Clock>\n",KW_Experiment5A-35-1,59.945,1.0.0.105,2,-1062150000,Professional,2.0.10.353,2.0.10.353,10/18/2018,10/18/2018 20:57,16:57:26,2.0.10.248,3,2,1,3,,,,,,,,TrainingProc,BlockList,14,2,Distractor1.bmp,1,0,,0,1,335496,601,,0,0,yellow,600,3,600,,horizontal,red,Target2.bmp,blue,Distractor1.bmp,cyan,Distractor1.bmp,lime,Distractor1.bmp,purple,Distractor2.bmp,yellow,Distractor1.bmp,,,,TrialProc,2,TrainingTrialList,1,2,-999999,1,336097,0,2,496,336593,Target2.bmp,red,2,,,,7,4,62
KW_Experiment5A,35,1,"<?xml version=""1.0""?>\n<Clock xmlns:dt=""urn:schemas-microsoft-com:datatypes""><Description dt:dt=""string"">E-Prime Primary Realtime Clock</Description><StartTime><Timestamp dt:dt=""int"">0</Timestamp><DateUtc dt:dt=""string"">2018-10-18T20:57:25Z</DateUtc></StartTime><FrequencyChanges><FrequencyChange><Frequency dt:dt=""r8"">3215244</Frequency><Timestamp dt:dt=""r8"">7455000455434</Timestamp><Current dt:dt=""r8"">0</Current><DateUtc dt:dt=""string"">2018-10-18T20:57:25Z</DateUtc></FrequencyChange></FrequencyChanges></Clock>\n",KW_Experiment5A-35-1,59.945,1.0.0.105,2,-1062150000,Professional,2.0.10.353,2.0.10.353,10/18/2018,10/18/2018 20:57,16:57:26,2.0.10.248,3,2,1,3,,,,,,,,TrainingProc,BlockList,15,2,Distractor1.bmp,1,0,,0,1,337615,400,,0,0,lime,400,1,400,,horizontal,lime,Distractor1.bmp,yellow,Distractor1.bmp,red,Target2.bmp,purple,Distractor1.bmp,blue,Distractor1.bmp,cyan,Distractor2.bmp,,,,TrialProc,6,TrainingTrialList,1,2,-999999,0,338015,0,2,602,338617,Target2.bmp,red,2,,,,9,4,63
KW_Experiment5A,35,1,"<?xml version=""1.0""?>\n<Clock xmlns:dt=""urn:schemas-microsoft-com:datatypes""><Description dt:dt=""string"">E-Prime Primary Realtime Clock</Description><StartTime><Timestamp dt:dt=""int"">0</Timestamp><DateUtc dt:dt=""string"">2018-10-18T20:57:25Z</DateUtc></StartTime><FrequencyChanges><FrequencyChange><Frequency dt:dt=""r8"">3215244</Frequency><Timestamp dt:dt=""r8"">7455000455434</Timestamp><Current dt:dt=""r8"">0</Current><DateUtc dt:dt=""string"">2018-10-18T20:57:25Z</DateUtc></FrequencyChange></FrequencyChanges></Clock>\n",KW_Experiment5A-35-1,59.945,1.0.0.105,2,-1062150000,Professional,2.0.10.353,2.0.10.353,10/18/2018,10/18/2018 20:57,16:57:26,2.0.10.248,3,2,1,3,,,,,,,,TrainingProc,BlockList,16,1,Distractor1.bmp,1,0,,0,1,339634,500,,0,0,blue,500,2,500,,vertical,blue,Distractor2.bmp,red,Target1.bmp,cyan,Distractor1.bmp,lime,Distractor2.bmp,yellow,Distractor1.bmp,purple,Distractor1.bmp,,,,TrialProc,3,TrainingTrialList,1,1,-999999,0,340134,0,1,555,340689,Target1.bmp,red,1,,,,8,4,64
KW_Experiment5A,35,1,"<?xml version=""1.0""?>\n<Clock xmlns:dt=""urn:schemas-microsoft-com:datatypes""><Description dt:dt=""string"">E-Prime Primary Realtime Clock</Description><StartTime><Timestamp dt:dt=""int"">0</Timestamp><DateUtc dt:dt=""string"">2018-10-18T20:57:25Z</DateUtc></StartTime><FrequencyChanges><FrequencyChange><Frequency dt:dt=""r8"">3215244</Frequency><Timestamp dt:dt=""r8"">7455000455434</Timestamp><Current dt:dt=""r8"">0</Current><DateUtc dt:dt=""string"">2018-10-18T20:57:25Z</DateUtc></FrequencyChange></FrequencyChanges></Clock>\n",KW_Experiment5A-35-1,59.945,1.0.0.105,2,-1062150000,Professional,2.0.10.353,2.0.10.353,10/18/2018,10/18/2018 20:57,16:57:26,2.0.10.248,3,2,1,3,,,,,,,,TrainingProc,BlockList,17,2,Distractor2.bmp,2,0,,0,1,341702,501,,0,0,yellow,500,2,500,,horizontal,yellow,Distractor2.bmp,blue,Distractor2.bmp,red,Target2.bmp,lime,Distractor2.bmp,purple,Distractor1.bmp,cyan,Distractor2.bmp,,,,TrialProc,2,TrainingTrialList,1,2,-999999,1,342203,0,2,558,342761,Target2.bmp,red,2,,,,9,4,65
KW_Experiment5A,35,1,"<?xml version=""1.0""?>\n<Clock xmlns:dt=""urn:schemas-microsoft-com:datatypes""><Description dt:dt=""string"">E-Prime Primary Realtime Clock</Description><StartTime><Timestamp dt:dt=""int"">0</Timestamp><DateUtc dt:dt=""string"">2018-10-18T20:57:25Z</DateUtc></StartTime><FrequencyChanges><FrequencyChange><Frequency dt:dt=""r8"">3215244</Frequency><Timestamp dt:dt=""r8"">7455000455434</Timestamp><Current dt:dt=""r8"">0</Current><DateUtc dt:dt=""string"">2018-10-18T20:57:25Z</DateUtc></FrequencyChange></FrequencyChanges></Clock>\n",KW_Experiment5A-35-1,59.945,1.0.0.105,2,-1062150000,Professional,2.0.10.353,2.0.10.353,10/18/2018,10/18/2018 20:57,16:57:26,2.0.10.248,3,2,1,3,,,,,,,,TrainingProc,BlockList,18,2,Distractor1.bmp,1,0,,0,1,343771,500,,0,0,purple,500,2,500,,horizontal,purple,Distractor1.bmp,yellow,Distractor1.bmp,cyan,Distractor1.bmp,blue,Distractor1.bmp,red,Target2.bmp,lime,Distractor1.bmp,,,,TrialProc,5,TrainingTrialList,1,2,-999999,0,344271,0,2,586,344857,Target2.bmp,red,2,,,,11,4,66
KW_Experiment5A,35,1,"<?xml version=""1.0""?>\n<Clock xmlns:dt=""urn:schemas-microsoft-com:datatypes""><Description dt:dt=""string"">E-Prime Primary Realtime Clock</Description><StartTime><Timestamp dt:dt=""int"">0</Timestamp><DateUtc dt:dt=""string"">2018-10-18T20:57:25Z</DateUtc></StartTime><FrequencyChanges><FrequencyChange><Frequency dt:dt=""r8"">3215244</Frequency><Timestamp dt:dt=""r8"">7455000455434</Timestamp><Current dt:dt=""r8"">0</Current><DateUtc dt:dt=""string"">2018-10-18T20:57:25Z</DateUtc></FrequencyChange></FrequencyChanges></Clock>\n",KW_Experiment5A-35-1,59.945,1.0.0.105,2,-1062150000,Professional,2.0.10.353,2.0.10.353,10/18/2018,10/18/2018 20:57,16:57:26,2.0.10.248,3,2,1,3,,,,,,,,TrainingProc,BlockList,19,1,Distractor2.bmp,2,0,,0,1,345873,600,,0,0,red,600,3,600,1,vertical,red,Distractor2.bmp,lime,Target1.bmp,yellow,Distractor2.bmp,blue,Distractor1.bmp,cyan,Distractor1.bmp,purple,Distractor1.bmp,,,,TrialProc,,TrainingTrialList,1,1,-999999,0,346473,0,1,664,347137,Target1.bmp,lime,1,,,,2,4,67
KW_Experiment5A,35,1,"<?xml version=""1.0""?>\n<Clock xmlns:dt=""urn:schemas-microsoft-com:datatypes""><Description dt:dt=""string"">E-Prime Primary Realtime Clock</Description><StartTime><Timestamp dt:dt=""int"">0</Timestamp><DateUtc dt:dt=""string"">2018-10-18T20:57:25Z</DateUtc></StartTime><FrequencyChanges><FrequencyChange><Frequency dt:dt=""r8"">3215244</Frequency><Timestamp dt:dt=""r8"">7455000455434</Timestamp><Current dt:dt=""r8"">0</Current><DateUtc dt:dt=""string"">2018-10-18T20:57:25Z</DateUtc></FrequencyChange></FrequencyChanges></Clock>\n",KW_Experiment5A-35-1,59.945,1.0.0.105,2,-1062150000,Professional,2.0.10.353,2.0.10.353,10/18/2018,10/18/2018 20:57,16:57:26,2.0.10.248,3,2,1,3,,,,,,,,TrainingProc,BlockList,20,1,Distractor1.bmp,1,0,,0,1,348158,400,,0,0,yellow,400,1,400,,vertical,yellow,Distractor2.bmp,purple,Distractor1.bmp,blue,Distractor2.bmp,red,Target1.bmp,lime,Distractor1.bmp,cyan,Distractor1.bmp,,,,TrialProc,2,TrainingTrialList,1,1,-999999,0,348558,0,1,787,349345,Target1.bmp,red,1,,,,10,4,68
KW_Experiment5A,35,1,"<?xml version=""1.0""?>\n<Clock xmlns:dt=""urn:schemas-microsoft-com:datatypes""><Description dt:dt=""string"">E-Prime Primary Realtime Clock</Description><StartTime><Timestamp dt:dt=""int"">0</Timestamp><DateUtc dt:dt=""string"">2018-10-18T20:57:25Z</DateUtc></StartTime><FrequencyChanges><FrequencyChange><Frequency dt:dt=""r8"">3215244</Frequency><Timestamp dt:dt=""r8"">7455000455434</Timestamp><Current dt:dt=""r8"">0</Current><DateUtc dt:dt=""string"">2018-10-18T20:57:25Z</DateUtc></FrequencyChange></FrequencyChanges></Clock>\n",KW_Experiment5A-35-1,59.945,1.0.0.105,2,-1062150000,Professional,2.0.10.353,2.0.10.353,10/18/2018,10/18/2018 20:57,16:57:26,2.0.10.248,3,2,1,3,,,,,,,,TrainingProc,BlockList,21,1,Distractor1.bmp,1,0,,0,1,350360,501,,0,0,yellow,500,2,500,2,vertical,yellow,Distractor1.bmp,cyan,Distractor1.bmp,blue,Distractor1.bmp,purple,Distractor1.bmp,lime,Target1.bmp,red,Distractor1.bmp,,,,TrialProc,,TrainingTrialList,1,1,-999999,1,350861,0,1,556,351417,Target1.bmp,lime,1,,,,5,4,69
KW_Experiment5A,35,1,"<?xml version=""1.0""?>\n<Clock xmlns:dt=""urn:schemas-microsoft-com:datatypes""><Description dt:dt=""string"">E-Prime Primary Realtime Clock</Description><StartTime><Timestamp dt:dt=""int"">0</Timestamp><DateUtc dt:dt=""string"">2018-10-18T20:57:25Z</DateUtc></StartTime><FrequencyChanges><FrequencyChange><Frequency dt:dt=""r8"">3215244</Frequency><Timestamp dt:dt=""r8"">7455000455434</Timestamp><Current dt:dt=""r8"">0</Current><DateUtc dt:dt=""string"">2018-10-18T20:57:25Z</DateUtc></FrequencyChange></FrequencyChanges></Clock>\n",KW_Experiment5A-35-1,59.945,1.0.0.105,2,-1062150000,Professional,2.0.10.353,2.0.10.353,10/18/2018,10/18/2018 20:57,16:57:26,2.0.10.248,3,2,1,3,,,,,,,,TrainingProc,BlockList,22,2,Distractor2.bmp,2,0,,0,1,352429,500,,0,0,blue,500,2,500,3,horizontal,blue,Distractor2.bmp,red,Distractor2.bmp,lime,Target2.bmp,yellow,Distractor2.bmp,cyan,Distractor2.bmp,purple,Distractor2.bmp,,,,TrialProc,,TrainingTrialList,1,2,-999999,0,352929,0,2,752,353681,Target2.bmp,lime,2,,,,3,4,70
KW_Experiment5A,35,1,"<?xml version=""1.0""?>\n<Clock xmlns:dt=""urn:schemas-microsoft-com:datatypes""><Description dt:dt=""string"">E-Prime Primary Realtime Clock</Description><StartTime><Timestamp dt:dt=""int"">0</Timestamp><DateUtc dt:dt=""string"">2018-10-18T20:57:25Z</DateUtc></StartTime><FrequencyChanges><FrequencyChange><Frequency dt:dt=""r8"">3215244</Frequency><Timestamp dt:dt=""r8"">7455000455434</Timestamp><Current dt:dt=""r8"">0</Current><DateUtc dt:dt=""string"">2018-10-18T20:57:25Z</DateUtc></FrequencyChange></FrequencyChanges></Clock>\n",KW_Experiment5A-35-1,59.945,1.0.0.105,2,-1062150000,Professional,2.0.10.353,2.0.10.353,10/18/2018,10/18/2018 20:57,16:57:26,2.0.10.248,3,2,1,3,,,,,,,,TrainingProc,BlockList,23,1,Distractor1.bmp,1,0,,1,1,354697,601,,0,0,blue,600,3,600,,vertical,blue,Distractor2.bmp,red,Target1.bmp,yellow,Distractor1.bmp,cyan,Distractor1.bmp,purple,Distractor2.bmp,lime,Distractor2.bmp,,,,TrialProc,3,TrainingTrialList,1,1,-999999,1,355298,0,1,495,355793,Target1.bmp,red,1,,,,8,4,71
KW_Experiment5A,35,1,"<?xml version=""1.0""?>\n<Clock xmlns:dt=""urn:schemas-microsoft-com:datatypes""><Description dt:dt=""string"">E-Prime Primary Realtime Clock</Description><StartTime><Timestamp dt:dt=""int"">0</Timestamp><DateUtc dt:dt=""string"">2018-10-18T20:57:25Z</DateUtc></StartTime><FrequencyChanges><FrequencyChange><Frequency dt:dt=""r8"">3215244</Frequency><Timestamp dt:dt=""r8"">7455000455434</Timestamp><Current dt:dt=""r8"">0</Current><DateUtc dt:dt=""string"">2018-10-18T20:57:25Z</DateUtc></FrequencyChange></FrequencyChanges></Clock>\n",KW_Experiment5A-35-1,59.945,1.0.0.105,2,-1062150000,Professional,2.0.10.353,2.0.10.353,10/18/2018,10/18/2018 20:57,16:57:26,2.0.10.248,3,2,1,3,,,,,,,,TrainingProc,BlockList,24,1,Distractor1.bmp,1,0,,0,1,356816,400,,0,0,lime,400,1,400,,vertical,lime,Distractor1.bmp,cyan,Distractor2.bmp,yellow,Distractor2.bmp,blue,Distractor1.bmp,red,Target1.bmp,purple,Distractor1.bmp,,,,TrialProc,6,TrainingTrialList,1,1,-999999,0,357216,0,1,545,357761,Target1.bmp,red,1,,,,11,4,72
KW_Experiment5A,35,1,"<?xml version=""1.0""?>\n<Clock xmlns:dt=""urn:schemas-microsoft-com:datatypes""><Description dt:dt=""string"">E-Prime Primary Realtime Clock</Description><StartTime><Timestamp dt:dt=""int"">0</Timestamp><DateUtc dt:dt=""string"">2018-10-18T20:57:25Z</DateUtc></StartTime><FrequencyChanges><FrequencyChange><Frequency dt:dt=""r8"">3215244</Frequency><Timestamp dt:dt=""r8"">7455000455434</Timestamp><Current dt:dt=""r8"">0</Current><DateUtc dt:dt=""string"">2018-10-18T20:57:25Z</DateUtc></FrequencyChange></FrequencyChanges></Clock>\n",KW_Experiment5A-35-1,59.945,1.0.0.105,2,-1062150000,Professional,2.0.10.353,2.0.10.353,10/18/2018,10/18/2018 20:57,16:57:26,2.0.10.248,3,2,1,3,,,,,,,,TrainingProc,BlockList,25,2,Distractor2.bmp,2,0,,0,1,358785,400,,0,0,blue,400,1,400,3,horizontal,blue,Distractor2.bmp,yellow,Distractor1.bmp,cyan,Distractor1.bmp,lime,Target2.bmp,red,Distractor2.bmp,purple,Distractor2.bmp,,,,TrialProc,,TrainingTrialList,1,2,-999999,0,359185,0,2,840,360025,Target2.bmp,lime,2,,,,4,5,73
KW_Experiment5A,35,1,"<?xml version=""1.0""?>\n<Clock xmlns:dt=""urn:schemas-microsoft-com:datatypes""><Description dt:dt=""string"">E-Prime Primary Realtime Clock</Description><StartTime><Timestamp dt:dt=""int"">0</Timestamp><DateUtc dt:dt=""string"">2018-10-18T20:57:25Z</DateUtc></StartTime><FrequencyChanges><FrequencyChange><Frequency dt:dt=""r8"">3215244</Frequency><Timestamp dt:dt=""r8"">7455000455434</Timestamp><Current dt:dt=""r8"">0</Current><DateUtc dt:dt=""string"">2018-10-18T20:57:25Z</DateUtc></FrequencyChange></FrequencyChanges></Clock>\n",KW_Experiment5A-35-1,59.945,1.0.0.105,2,-1062150000,Professional,2.0.10.353,2.0.10.353,10/18/2018,10/18/2018 20:57,16:57:26,2.0.10.248,3,2,1,3,,,,,,,,TrainingProc,BlockList,26,1,Distractor2.bmp,2,0,,0,1,361037,500,,0,0,red,500,2,500,1,vertical,red,Distractor1.bmp,yellow,Distractor2.bmp,lime,Target1.bmp,purple,Distractor2.bmp,blue,Distractor1.bmp,cyan,Distractor2.bmp,,,,TrialProc,,TrainingTrialList,1,1,-999999,0,361537,0,1,536,362073,Target1.bmp,lime,1,,,,3,5,74
KW_Experiment5A,35,1,"<?xml version=""1.0""?>\n<Clock xmlns:dt=""urn:schemas-microsoft-com:datatypes""><Description dt:dt=""string"">E-Prime Primary Realtime Clock</Description><StartTime><Timestamp dt:dt=""int"">0</Timestamp><DateUtc dt:dt=""string"">2018-10-18T20:57:25Z</DateUtc></StartTime><FrequencyChanges><FrequencyChange><Frequency dt:dt=""r8"">3215244</Frequency><Timestamp dt:dt=""r8"">7455000455434</Timestamp><Current dt:dt=""r8"">0</Current><DateUtc dt:dt=""string"">2018-10-18T20:57:25Z</DateUtc></FrequencyChange></FrequencyChanges></Clock>\n",KW_Experiment5A-35-1,59.945,1.0.0.105,2,-1062150000,Professional,2.0.10.353,2.0.10.353,10/18/2018,10/18/2018 20:57,16:57:26,2.0.10.248,3,2,1,3,,,,,,,,TrainingProc,BlockList,27,1,Distractor2.bmp,2,0,,0,1,363089,600,,0,0,yellow,600,3,600,,vertical,yellow,Distractor2.bmp,cyan,Distractor1.bmp,blue,Distractor2.bmp,purple,Distractor2.bmp,lime,Distractor1.bmp,red,Target1.bmp,,,,TrialProc,2,TrainingTrialList,1,1,-999999,0,363689,0,1,896,364585,Target1.bmp,red,1,,,,12,5,75
KW_Experiment5A,35,1,"<?xml version=""1.0""?>\n<Clock xmlns:dt=""urn:schemas-microsoft-com:datatypes""><Description dt:dt=""string"">E-Prime Primary Realtime Clock</Description><StartTime><Timestamp dt:dt=""int"">0</Timestamp><DateUtc dt:dt=""string"">2018-10-18T20:57:25Z</DateUtc></StartTime><FrequencyChanges><FrequencyChange><Frequency dt:dt=""r8"">3215244</Frequency><Timestamp dt:dt=""r8"">7455000455434</Timestamp><Current dt:dt=""r8"">0</Current><DateUtc dt:dt=""string"">2018-10-18T20:57:25Z</DateUtc></FrequencyChange></FrequencyChanges></Clock>\n",KW_Experiment5A-35-1,59.945,1.0.0.105,2,-1062150000,Professional,2.0.10.353,2.0.10.353,10/18/2018,10/18/2018 20:57,16:57:26,2.0.10.248,3,2,1,3,,,,,,,,TrainingProc,BlockList,28,2,Distractor1.bmp,1,0,,1,0,365607,401,,0,0,lime,400,1,400,,horizontal,lime,Distractor2.bmp,cyan,Distractor1.bmp,red,Target2.bmp,blue,Distractor1.bmp,yellow,Distractor2.bmp,purple,Distractor1.bmp,,,,TrialProc,6,TrainingTrialList,1,2,-999999,1,366008,0,2,681,366689,Target2.bmp,red,2,,,,9,5,76
KW_Experiment5A,35,1,"<?xml version=""1.0""?>\n<Clock xmlns:dt=""urn:schemas-microsoft-com:datatypes""><Description dt:dt=""string"">E-Prime Primary Realtime Clock</Description><StartTime><Timestamp dt:dt=""int"">0</Timestamp><DateUtc dt:dt=""string"">2018-10-18T20:57:25Z</DateUtc></StartTime><FrequencyChanges><FrequencyChange><Frequency dt:dt=""r8"">3215244</Frequency><Timestamp dt:dt=""r8"">7455000455434</Timestamp><Current dt:dt=""r8"">0</Current><DateUtc dt:dt=""string"">2018-10-18T20:57:25Z</DateUtc></FrequencyChange></FrequencyChanges></Clock>\n",KW_Experiment5A-35-1,59.945,1.0.0.105,2,-1062150000,Professional,2.0.10.353,2.0.10.353,10/18/2018,10/18/2018 20:57,16:57:26,2.0.10.248,3,2,1,3,,,,,,,,TrainingProc,BlockList,29,2,Distractor1.bmp,1,0,,1,1,367709,401,,0,0,cyan,400,1,400,4,horizontal,cyan,Distractor2.bmp,lime,Target2.bmp,yellow,Distractor1.bmp,purple,Distractor2.bmp,red,Distractor1.bmp,blue,Distractor2.bmp,,,,TrialProc,,TrainingTrialList,1,2,-999999,1,368110,0,2,1331,369441,Target2.bmp,lime,2,,,,2,5,77
KW_Experiment5A,35,1,"<?xml version=""1.0""?>\n<Clock xmlns:dt=""urn:schemas-microsoft-com:datatypes""><Description dt:dt=""string"">E-Prime Primary Realtime Clock</Description><StartTime><Timestamp dt:dt=""int"">0</Timestamp><DateUtc dt:dt=""string"">2018-10-18T20:57:25Z</DateUtc></StartTime><FrequencyChanges><FrequencyChange><Frequency dt:dt=""r8"">3215244</Frequency><Timestamp dt:dt=""r8"">7455000455434</Timestamp><Current dt:dt=""r8"">0</Current><DateUtc dt:dt=""string"">2018-10-18T20:57:25Z</DateUtc></FrequencyChange></FrequencyChanges></Clock>\n",KW_Experiment5A-35-1,59.945,1.0.0.105,2,-1062150000,Professional,2.0.10.353,2.0.10.353,10/18/2018,10/18/2018 20:57,16:57:26,2.0.10.248,3,2,1,3,,,,,,,,TrainingProc,BlockList,30,1,Distractor2.bmp,2,0,,0,1,370462,400,,0,0,lime,400,1,400,,vertical,red,Target1.bmp,purple,Distractor2.bmp,blue,Distractor1.bmp,cyan,Distractor2.bmp,yellow,Distractor1.bmp,lime,Distractor1.bmp,,,,TrialProc,6,TrainingTrialList,1,1,-999999,0,370862,0,1,675,371537,Target1.bmp,red,1,,,,7,5,78
KW_Experiment5A,35,1,"<?xml version=""1.0""?>\n<Clock xmlns:dt=""urn:schemas-microsoft-com:datatypes""><Description dt:dt=""string"">E-Prime Primary Realtime Clock</Description><StartTime><Timestamp dt:dt=""int"">0</Timestamp><DateUtc dt:dt=""string"">2018-10-18T20:57:25Z</DateUtc></StartTime><FrequencyChanges><FrequencyChange><Frequency dt:dt=""r8"">3215244</Frequency><Timestamp dt:dt=""r8"">7455000455434</Timestamp><Current dt:dt=""r8"">0</Current><DateUtc dt:dt=""string"">2018-10-18T20:57:25Z</DateUtc></FrequencyChange></FrequencyChanges></Clock>\n",KW_Experiment5A-35-1,59.945,1.0.0.105,2,-1062150000,Professional,2.0.10.353,2.0.10.353,10/18/2018,10/18/2018 20:57,16:57:26,2.0.10.248,3,2,1,3,,,,,,,,TrainingProc,BlockList,31,1,Distractor2.bmp,2,0,,0,1,372547,601,,0,0,cyan,600,3,600,,vertical,cyan,Distractor2.bmp,lime,Distractor1.bmp,blue,Distractor2.bmp,purple,Distractor2.bmp,yellow,Distractor2.bmp,red,Target1.bmp,,,,TrialProc,4,TrainingTrialList,1,1,-999999,1,373148,0,1,717,373865,Target1.bmp,red,1,,,,12,5,79
KW_Experiment5A,35,1,"<?xml version=""1.0""?>\n<Clock xmlns:dt=""urn:schemas-microsoft-com:datatypes""><Description dt:dt=""string"">E-Prime Primary Realtime Clock</Description><StartTime><Timestamp dt:dt=""int"">0</Timestamp><DateUtc dt:dt=""string"">2018-10-18T20:57:25Z</DateUtc></StartTime><FrequencyChanges><FrequencyChange><Frequency dt:dt=""r8"">3215244</Frequency><Timestamp dt:dt=""r8"">7455000455434</Timestamp><Current dt:dt=""r8"">0</Current><DateUtc dt:dt=""string"">2018-10-18T20:57:25Z</DateUtc></FrequencyChange></FrequencyChanges></Clock>\n",KW_Experiment5A-35-1,59.945,1.0.0.105,2,-1062150000,Professional,2.0.10.353,2.0.10.353,10/18/2018,10/18/2018 20:57,16:57:26,2.0.10.248,3,2,1,3,,,,,,,,TrainingProc,BlockList,32,1,Distractor1.bmp,1,0,,0,1,374883,500,,0,0,purple,500,2,500,,vertical,red,Target1.bmp,yellow,Distractor1.bmp,cyan,Distractor1.bmp,blue,Distractor1.bmp,lime,Distractor2.bmp,purple,Distractor1.bmp,,,,TrialProc,5,TrainingTrialList,1,1,-999999,0,375383,0,1,562,375945,Target1.bmp,red,1,,,,7,5,80
KW_Experiment5A,35,1,"<?xml version=""1.0""?>\n<Clock xmlns:dt=""urn:schemas-microsoft-com:datatypes""><Description dt:dt=""string"">E-Prime Primary Realtime Clock</Description><StartTime><Timestamp dt:dt=""int"">0</Timestamp><DateUtc dt:dt=""string"">2018-10-18T20:57:25Z</DateUtc></StartTime><FrequencyChanges><FrequencyChange><Frequency dt:dt=""r8"">3215244</Frequency><Timestamp dt:dt=""r8"">7455000455434</Timestamp><Current dt:dt=""r8"">0</Current><DateUtc dt:dt=""string"">2018-10-18T20:57:25Z</DateUtc></FrequencyChange></FrequencyChanges></Clock>\n",KW_Experiment5A-35-1,59.945,1.0.0.105,2,-1062150000,Professional,2.0.10.353,2.0.10.353,10/18/2018,10/18/2018 20:57,16:57:26,2.0.10.248,3,2,1,3,,,,,,,,TrainingProc,BlockList,33,1,Distractor1.bmp,1,0,,0,1,376968,500,,0,0,purple,500,2,500,,vertical,purple,Distractor2.bmp,red,Target1.bmp,blue,Distractor1.bmp,cyan,Distractor2.bmp,yellow,Distractor1.bmp,lime,Distractor1.bmp,,,,TrialProc,5,TrainingTrialList,1,1,-999999,0,377468,0,1,445,377913,Target1.bmp,red,1,,,,8,5,81
KW_Experiment5A,35,1,"<?xml version=""1.0""?>\n<Clock xmlns:dt=""urn:schemas-microsoft-com:datatypes""><Description dt:dt=""string"">E-Prime Primary Realtime Clock</Description><StartTime><Timestamp dt:dt=""int"">0</Timestamp><DateUtc dt:dt=""string"">2018-10-18T20:57:25Z</DateUtc></StartTime><FrequencyChanges><FrequencyChange><Frequency dt:dt=""r8"">3215244</Frequency><Timestamp dt:dt=""r8"">7455000455434</Timestamp><Current dt:dt=""r8"">0</Current><DateUtc dt:dt=""string"">2018-10-18T20:57:25Z</DateUtc></FrequencyChange></FrequencyChanges></Clock>\n",KW_Experiment5A-35-1,59.945,1.0.0.105,2,-1062150000,Professional,2.0.10.353,2.0.10.353,10/18/2018,10/18/2018 20:57,16:57:26,2.0.10.248,3,2,1,3,,,,,,,,TrainingProc,BlockList,34,2,Distractor1.bmp,1,0,,1,0,378936,601,,0,0,cyan,600,3,600,,horizontal,cyan,Distractor2.bmp,lime,Distractor1.bmp,yellow,Distractor1.bmp,red,Target2.bmp,purple,Distractor1.bmp,blue,Distractor1.bmp,,,,TrialProc,4,TrainingTrialList,1,2,-999999,1,379537,0,2,672,380209,Target2.bmp,red,2,,,,10,5,82
KW_Experiment5A,35,1,"<?xml version=""1.0""?>\n<Clock xmlns:dt=""urn:schemas-microsoft-com:datatypes""><Description dt:dt=""string"">E-Prime Primary Realtime Clock</Description><StartTime><Timestamp dt:dt=""int"">0</Timestamp><DateUtc dt:dt=""string"">2018-10-18T20:57:25Z</DateUtc></StartTime><FrequencyChanges><FrequencyChange><Frequency dt:dt=""r8"">3215244</Frequency><Timestamp dt:dt=""r8"">7455000455434</Timestamp><Current dt:dt=""r8"">0</Current><DateUtc dt:dt=""string"">2018-10-18T20:57:25Z</DateUtc></FrequencyChange></FrequencyChanges></Clock>\n",KW_Experiment5A-35-1,59.945,1.0.0.105,2,-1062150000,Professional,2.0.10.353,2.0.10.353,10/18/2018,10/18/2018 20:57,16:57:26,2.0.10.248,3,2,1,3,,,,,,,,TrainingProc,BlockList,35,1,Distractor2.bmp,2,0,,0,1,381222,600,,0,0,purple,600,3,600,,vertical,purple,Distractor2.bmp,yellow,Distractor2.bmp,red,Target1.bmp,lime,Distractor2.bmp,blue,Distractor2.bmp,cyan,Distractor1.bmp,,,,TrialProc,5,TrainingTrialList,1,1,-999999,0,381822,0,1,651,382473,Target1.bmp,red,1,,,,9,5,83
KW_Experiment5A,35,1,"<?xml version=""1.0""?>\n<Clock xmlns:dt=""urn:schemas-microsoft-com:datatypes""><Description dt:dt=""string"">E-Prime Primary Realtime Clock</Description><StartTime><Timestamp dt:dt=""int"">0</Timestamp><DateUtc dt:dt=""string"">2018-10-18T20:57:25Z</DateUtc></StartTime><FrequencyChanges><FrequencyChange><Frequency dt:dt=""r8"">3215244</Frequency><Timestamp dt:dt=""r8"">7455000455434</Timestamp><Current dt:dt=""r8"">0</Current><DateUtc dt:dt=""string"">2018-10-18T20:57:25Z</DateUtc></FrequencyChange></FrequencyChanges></Clock>\n",KW_Experiment5A-35-1,59.945,1.0.0.105,2,-1062150000,Professional,2.0.10.353,2.0.10.353,10/18/2018,10/18/2018 20:57,16:57:26,2.0.10.248,3,2,1,3,,,,,,,,TrainingProc,BlockList,36,1,Distractor1.bmp,1,0,,0,1,383491,500,,0,0,purple,500,2,500,5,vertical,purple,Distractor2.bmp,cyan,Distractor1.bmp,blue,Distractor1.bmp,red,Distractor1.bmp,lime,Target1.bmp,yellow,Distractor1.bmp,,,,TrialProc,,TrainingTrialList,1,1,-999999,0,383991,0,1,970,384961,Target1.bmp,lime,1,,,,5,5,84
KW_Experiment5A,35,1,"<?xml version=""1.0""?>\n<Clock xmlns:dt=""urn:schemas-microsoft-com:datatypes""><Description dt:dt=""string"">E-Prime Primary Realtime Clock</Description><StartTime><Timestamp dt:dt=""int"">0</Timestamp><DateUtc dt:dt=""string"">2018-10-18T20:57:25Z</DateUtc></StartTime><FrequencyChanges><FrequencyChange><Frequency dt:dt=""r8"">3215244</Frequency><Timestamp dt:dt=""r8"">7455000455434</Timestamp><Current dt:dt=""r8"">0</Current><DateUtc dt:dt=""string"">2018-10-18T20:57:25Z</DateUtc></FrequencyChange></FrequencyChanges></Clock>\n",KW_Experiment5A-35-1,59.945,1.0.0.105,2,-1062150000,Professional,2.0.10.353,2.0.10.353,10/18/2018,10/18/2018 20:57,16:57:26,2.0.10.248,3,2,1,3,,,,,,,,TrainingProc,BlockList,37,1,Distractor2.bmp,2,0,,0,1,385976,601,,0,0,blue,600,3,600,,vertical,blue,Distractor2.bmp,cyan,Distractor1.bmp,yellow,Distractor2.bmp,lime,Distractor1.bmp,red,Target1.bmp,purple,Distractor2.bmp,,,,TrialProc,3,TrainingTrialList,1,1,-999999,1,386577,0,1,504,387081,Target1.bmp,red,1,,,,11,5,85
KW_Experiment5A,35,1,"<?xml version=""1.0""?>\n<Clock xmlns:dt=""urn:schemas-microsoft-com:datatypes""><Description dt:dt=""string"">E-Prime Primary Realtime Clock</Description><StartTime><Timestamp dt:dt=""int"">0</Timestamp><DateUtc dt:dt=""string"">2018-10-18T20:57:25Z</DateUtc></StartTime><FrequencyChanges><FrequencyChange><Frequency dt:dt=""r8"">3215244</Frequency><Timestamp dt:dt=""r8"">7455000455434</Timestamp><Current dt:dt=""r8"">0</Current><DateUtc dt:dt=""string"">2018-10-18T20:57:25Z</DateUtc></FrequencyChange></FrequencyChanges></Clock>\n",KW_Experiment5A-35-1,59.945,1.0.0.105,2,-1062150000,Professional,2.0.10.353,2.0.10.353,10/18/2018,10/18/2018 20:57,16:57:26,2.0.10.248,3,2,1,3,,,,,,,,TrainingProc,BlockList,38,1,Distractor1.bmp,1,0,,0,1,388095,600,,0,0,purple,600,3,600,,vertical,purple,Distractor2.bmp,yellow,Distractor1.bmp,lime,Distractor1.bmp,red,Target1.bmp,blue,Distractor1.bmp,cyan,Distractor2.bmp,,,,TrialProc,5,TrainingTrialList,1,1,-999999,0,388695,0,1,714,389409,Target1.bmp,red,1,,,,10,5,86
KW_Experiment5A,35,1,"<?xml version=""1.0""?>\n<Clock xmlns:dt=""urn:schemas-microsoft-com:datatypes""><Description dt:dt=""string"">E-Prime Primary Realtime Clock</Description><StartTime><Timestamp dt:dt=""int"">0</Timestamp><DateUtc dt:dt=""string"">2018-10-18T20:57:25Z</DateUtc></StartTime><FrequencyChanges><FrequencyChange><Frequency dt:dt=""r8"">3215244</Frequency><Timestamp dt:dt=""r8"">7455000455434</Timestamp><Current dt:dt=""r8"">0</Current><DateUtc dt:dt=""string"">2018-10-18T20:57:25Z</DateUtc></FrequencyChange></FrequencyChanges></Clock>\n",KW_Experiment5A-35-1,59.945,1.0.0.105,2,-1062150000,Professional,2.0.10.353,2.0.10.353,10/18/2018,10/18/2018 20:57,16:57:26,2.0.10.248,3,2,1,3,,,,,,,,TrainingProc,BlockList,39,2,Distractor1.bmp,1,0,,0,1,390430,501,,0,0,purple,500,2,500,,horizontal,purple,Distractor2.bmp,red,Target2.bmp,yellow,Distractor1.bmp,blue,Distractor1.bmp,lime,Distractor2.bmp,cyan,Distractor2.bmp,,,,TrialProc,5,TrainingTrialList,0,2,-999999,1,390931,0,1,494,391425,Target2.bmp,red,2,,,,8,5,87
KW_Experiment5A,35,1,"<?xml version=""1.0""?>\n<Clock xmlns:dt=""urn:schemas-microsoft-com:datatypes""><Description dt:dt=""string"">E-Prime Primary Realtime Clock</Description><StartTime><Timestamp dt:dt=""int"">0</Timestamp><DateUtc dt:dt=""string"">2018-10-18T20:57:25Z</DateUtc></StartTime><FrequencyChanges><FrequencyChange><Frequency dt:dt=""r8"">3215244</Frequency><Timestamp dt:dt=""r8"">7455000455434</Timestamp><Current dt:dt=""r8"">0</Current><DateUtc dt:dt=""string"">2018-10-18T20:57:25Z</DateUtc></FrequencyChange></FrequencyChanges></Clock>\n",KW_Experiment5A-35-1,59.945,1.0.0.105,2,-1062150000,Professional,2.0.10.353,2.0.10.353,10/18/2018,10/18/2018 20:57,16:57:26,2.0.10.248,3,2,1,3,,,,,,,,TrainingProc,BlockList,40,2,Distractor2.bmp,2,0,,0,1,392449,400,,0,0,purple,400,1,400,,horizontal,red,Target2.bmp,cyan,Distractor2.bmp,blue,Distractor1.bmp,yellow,Distractor2.bmp,lime,Distractor2.bmp,purple,Distractor2.bmp,,,,TrialProc,5,TrainingTrialList,1,2,-999999,0,392849,0,2,680,393529,Target2.bmp,red,2,,,,7,5,88
KW_Experiment5A,35,1,"<?xml version=""1.0""?>\n<Clock xmlns:dt=""urn:schemas-microsoft-com:datatypes""><Description dt:dt=""string"">E-Prime Primary Realtime Clock</Description><StartTime><Timestamp dt:dt=""int"">0</Timestamp><DateUtc dt:dt=""string"">2018-10-18T20:57:25Z</DateUtc></StartTime><FrequencyChanges><FrequencyChange><Frequency dt:dt=""r8"">3215244</Frequency><Timestamp dt:dt=""r8"">7455000455434</Timestamp><Current dt:dt=""r8"">0</Current><DateUtc dt:dt=""string"">2018-10-18T20:57:25Z</DateUtc></FrequencyChange></FrequencyChanges></Clock>\n",KW_Experiment5A-35-1,59.945,1.0.0.105,2,-1062150000,Professional,2.0.10.353,2.0.10.353,10/18/2018,10/18/2018 20:57,16:57:26,2.0.10.248,3,2,1,3,,,,,,,,TrainingProc,BlockList,41,1,Distractor1.bmp,1,0,,0,1,394551,600,,0,0,lime,600,3,600,,vertical,lime,Distractor1.bmp,cyan,Distractor2.bmp,yellow,Distractor1.bmp,red,Target1.bmp,blue,Distractor1.bmp,purple,Distractor1.bmp,,,,TrialProc,6,TrainingTrialList,1,1,-999999,0,395151,0,1,802,395953,Target1.bmp,red,1,,,,10,5,89
KW_Experiment5A,35,1,"<?xml version=""1.0""?>\n<Clock xmlns:dt=""urn:schemas-microsoft-com:datatypes""><Description dt:dt=""string"">E-Prime Primary Realtime Clock</Description><StartTime><Timestamp dt:dt=""int"">0</Timestamp><DateUtc dt:dt=""string"">2018-10-18T20:57:25Z</DateUtc></StartTime><FrequencyChanges><FrequencyChange><Frequency dt:dt=""r8"">3215244</Frequency><Timestamp dt:dt=""r8"">7455000455434</Timestamp><Current dt:dt=""r8"">0</Current><DateUtc dt:dt=""string"">2018-10-18T20:57:25Z</DateUtc></FrequencyChange></FrequencyChanges></Clock>\n",KW_Experiment5A-35-1,59.945,1.0.0.105,2,-1062150000,Professional,2.0.10.353,2.0.10.353,10/18/2018,10/18/2018 20:57,16:57:26,2.0.10.248,3,2,1,3,,,,,,,,TrainingProc,BlockList,42,2,Distractor2.bmp,2,0,,0,1,396970,600,,0,0,lime,600,3,600,,horizontal,lime,Distractor2.bmp,cyan,Distractor1.bmp,purple,Distractor1.bmp,blue,Distractor2.bmp,yellow,Distractor2.bmp,red,Target2.bmp,,,,TrialProc,6,TrainingTrialList,1,2,-999999,0,397570,0,2,535,398105,Target2.bmp,red,2,,,,12,5,90
