ExperimentName,Subject,Session,Clock.Information,DataFile.Basename,Display.RefreshRate,ExperimentVersion,Group,RandomSeed,RuntimeCapabilities,RuntimeVersion,RuntimeVersionExpected,SessionDate,SessionStartDateTimeUtc,SessionTime,StudioVersion,Block,BlockList,BlockList.Cycle,BlockList.Sample,PostTestQ1.RESP,PostTestQ1CJ.RESP,PostTestQ2.RESP,PostTestQ2CJ.RESP,PostTestQ3.RESP,PostTestQ3CJ.RESP,PostTestSlide.RESP,Procedure[Block],Running[Block],Trial,CorrectResponse,Distractor,DistractorList,Fixation.ACC,Fixation.CRESP,Fixation.DurationError,Fixation.OnsetDelay,Fixation.OnsetTime,Fixation.OnsetToOnsetTime,Fixation.RESP,Fixation.RT,Fixation.RTTime,ItemColor,Jitter,JitterList,JitterTime,Lime0List,Orientation,Pos1Color,Pos1Item,Pos2Color,Pos2Item,Pos3Color,Pos3Item,Pos4Color,Pos4Item,Pos5Color,Pos5Item,Pos6Color,Pos6Item,PracticeTrialList,PracticeTrialList.Cycle,PracticeTrialList.Sample,Procedure[Trial],Red0List,Running[Trial],Stimulus.ACC,Stimulus.CRESP,Stimulus.DurationError,Stimulus.OnsetDelay,Stimulus.OnsetTime,Stimulus.OnsetToOnsetTime,Stimulus.RESP,Stimulus.RT,Stimulus.RTTime,Target,TargetColor,TargetList,TestTrialList,TestTrialList.Cycle,TestTrialList.Sample,TrainingTrialList,TrainingTrialList.Cycle,TrainingTrialList.Sample
KW_Experiment5A,14,1,"<?xml version=""1.0""?>\n<Clock xmlns:dt=""urn:schemas-microsoft-com:datatypes""><Description dt:dt=""string"">E-Prime Primary Realtime Clock</Description><StartTime><Timestamp dt:dt=""int"">0</Timestamp><DateUtc dt:dt=""string"">2018-10-11T19:00:32Z</DateUtc></StartTime><FrequencyChanges><FrequencyChange><Frequency dt:dt=""r8"">3215244</Frequency><Timestamp dt:dt=""r8"">5487905499573</Timestamp><Current dt:dt=""r8"">0</Current><DateUtc dt:dt=""string"">2018-10-11T19:00:32Z</DateUtc></FrequencyChange></FrequencyChanges></Clock>\n",KW_Experiment5A-14-1,59.945,1.0.0.105,2,-1062054389,Professional,2.0.10.353,2.0.10.353,10/11/2018,10/11/2018 19:00,15:00:32,2.0.10.248,1,1,1,1,,,,,,,,PracticeProc,BlockList,1,1,Distractor2.bmp,2,0,,0,62,3262378,500,,0,0,red,500,2,500,1,vertical,blue,Distractor1.bmp,cyan,Distractor1.bmp,yellow,Distractor1.bmp,red,Distractor2.bmp,lime,Target1.bmp,purple,Distractor2.bmp,5,1,1,TrialProc,,PracticeTrialList,1,1,-999999,0,3262878,0,1,6950,3269828,Target1.bmp,lime,1,,,,,,
KW_Experiment5A,14,1,"<?xml version=""1.0""?>\n<Clock xmlns:dt=""urn:schemas-microsoft-com:datatypes""><Description dt:dt=""string"">E-Prime Primary Realtime Clock</Description><StartTime><Timestamp dt:dt=""int"">0</Timestamp><DateUtc dt:dt=""string"">2018-10-11T19:00:32Z</DateUtc></StartTime><FrequencyChanges><FrequencyChange><Frequency dt:dt=""r8"">3215244</Frequency><Timestamp dt:dt=""r8"">5487905499573</Timestamp><Current dt:dt=""r8"">0</Current><DateUtc dt:dt=""string"">2018-10-11T19:00:32Z</DateUtc></FrequencyChange></FrequencyChanges></Clock>\n",KW_Experiment5A-14-1,59.945,1.0.0.105,2,-1062054389,Professional,2.0.10.353,2.0.10.353,10/11/2018,10/11/2018 19:00,15:00:32,2.0.10.248,1,1,1,1,,,,,,,,PracticeProc,BlockList,2,1,Distractor2.bmp,2,0,,0,1,3270852,501,,0,0,yellow,500,2,500,,vertical,cyan,Distractor2.bmp,lime,Distractor2.bmp,blue,Distractor1.bmp,purple,Distractor2.bmp,yellow,Distractor1.bmp,red,Target1.bmp,6,1,2,TrialProc,2,PracticeTrialList,1,1,-999999,1,3271353,0,1,1427,3272780,Target1.bmp,red,1,,,,,,
KW_Experiment5A,14,1,"<?xml version=""1.0""?>\n<Clock xmlns:dt=""urn:schemas-microsoft-com:datatypes""><Description dt:dt=""string"">E-Prime Primary Realtime Clock</Description><StartTime><Timestamp dt:dt=""int"">0</Timestamp><DateUtc dt:dt=""string"">2018-10-11T19:00:32Z</DateUtc></StartTime><FrequencyChanges><FrequencyChange><Frequency dt:dt=""r8"">3215244</Frequency><Timestamp dt:dt=""r8"">5487905499573</Timestamp><Current dt:dt=""r8"">0</Current><DateUtc dt:dt=""string"">2018-10-11T19:00:32Z</DateUtc></FrequencyChange></FrequencyChanges></Clock>\n",KW_Experiment5A-14-1,59.945,1.0.0.105,2,-1062054389,Professional,2.0.10.353,2.0.10.353,10/11/2018,10/11/2018 19:00,15:00:32,2.0.10.248,1,1,1,1,,,,,,,,PracticeProc,BlockList,3,1,Distractor1.bmp,1,0,,0,1,3273805,400,,0,0,blue,400,1,400,3,vertical,lime,Target1.bmp,yellow,Distractor1.bmp,purple,Distractor1.bmp,cyan,Distractor1.bmp,red,Distractor2.bmp,blue,Distractor1.bmp,1,1,3,TrialProc,,PracticeTrialList,1,1,-999999,0,3274205,0,1,2103,3276308,Target1.bmp,lime,1,,,,,,
KW_Experiment5A,14,1,"<?xml version=""1.0""?>\n<Clock xmlns:dt=""urn:schemas-microsoft-com:datatypes""><Description dt:dt=""string"">E-Prime Primary Realtime Clock</Description><StartTime><Timestamp dt:dt=""int"">0</Timestamp><DateUtc dt:dt=""string"">2018-10-11T19:00:32Z</DateUtc></StartTime><FrequencyChanges><FrequencyChange><Frequency dt:dt=""r8"">3215244</Frequency><Timestamp dt:dt=""r8"">5487905499573</Timestamp><Current dt:dt=""r8"">0</Current><DateUtc dt:dt=""string"">2018-10-11T19:00:32Z</DateUtc></FrequencyChange></FrequencyChanges></Clock>\n",KW_Experiment5A-14-1,59.945,1.0.0.105,2,-1062054389,Professional,2.0.10.353,2.0.10.353,10/11/2018,10/11/2018 19:00,15:00:32,2.0.10.248,1,1,1,1,,,,,,,,PracticeProc,BlockList,4,1,Distractor2.bmp,2,0,,0,1,3277325,400,,0,0,cyan,400,1,400,,vertical,cyan,Distractor1.bmp,red,Target1.bmp,lime,Distractor2.bmp,purple,Distractor1.bmp,blue,Distractor1.bmp,yellow,Distractor2.bmp,2,1,4,TrialProc,4,PracticeTrialList,1,1,-999999,0,3277725,0,1,487,3278212,Target1.bmp,red,1,,,,,,
KW_Experiment5A,14,1,"<?xml version=""1.0""?>\n<Clock xmlns:dt=""urn:schemas-microsoft-com:datatypes""><Description dt:dt=""string"">E-Prime Primary Realtime Clock</Description><StartTime><Timestamp dt:dt=""int"">0</Timestamp><DateUtc dt:dt=""string"">2018-10-11T19:00:32Z</DateUtc></StartTime><FrequencyChanges><FrequencyChange><Frequency dt:dt=""r8"">3215244</Frequency><Timestamp dt:dt=""r8"">5487905499573</Timestamp><Current dt:dt=""r8"">0</Current><DateUtc dt:dt=""string"">2018-10-11T19:00:32Z</DateUtc></FrequencyChange></FrequencyChanges></Clock>\n",KW_Experiment5A-14-1,59.945,1.0.0.105,2,-1062054389,Professional,2.0.10.353,2.0.10.353,10/11/2018,10/11/2018 19:00,15:00:32,2.0.10.248,1,1,1,1,,,,,,,,PracticeProc,BlockList,5,2,Distractor2.bmp,2,0,,0,1,3279226,401,,0,0,lime,400,1,400,,horizontal,cyan,Distractor1.bmp,purple,Distractor2.bmp,lime,Distractor1.bmp,red,Target2.bmp,blue,Distractor2.bmp,yellow,Distractor1.bmp,4,1,5,TrialProc,6,PracticeTrialList,0,2,-999999,1,3279627,0,1,457,3280084,Target2.bmp,red,2,,,,,,
KW_Experiment5A,14,1,"<?xml version=""1.0""?>\n<Clock xmlns:dt=""urn:schemas-microsoft-com:datatypes""><Description dt:dt=""string"">E-Prime Primary Realtime Clock</Description><StartTime><Timestamp dt:dt=""int"">0</Timestamp><DateUtc dt:dt=""string"">2018-10-11T19:00:32Z</DateUtc></StartTime><FrequencyChanges><FrequencyChange><Frequency dt:dt=""r8"">3215244</Frequency><Timestamp dt:dt=""r8"">5487905499573</Timestamp><Current dt:dt=""r8"">0</Current><DateUtc dt:dt=""string"">2018-10-11T19:00:32Z</DateUtc></FrequencyChange></FrequencyChanges></Clock>\n",KW_Experiment5A-14-1,59.945,1.0.0.105,2,-1062054389,Professional,2.0.10.353,2.0.10.353,10/11/2018,10/11/2018 19:00,15:00:32,2.0.10.248,1,1,1,1,,,,,,,,PracticeProc,BlockList,6,1,Distractor2.bmp,2,0,,0,1,3281095,500,,0,0,yellow,500,2,500,2,vertical,blue,Distractor1.bmp,yellow,Distractor1.bmp,lime,Target1.bmp,purple,Distractor2.bmp,red,Distractor1.bmp,cyan,Distractor2.bmp,3,1,6,TrialProc,,PracticeTrialList,1,1,-999999,0,3281595,0,1,617,3282212,Target1.bmp,lime,1,,,,,,
KW_Experiment5A,14,1,"<?xml version=""1.0""?>\n<Clock xmlns:dt=""urn:schemas-microsoft-com:datatypes""><Description dt:dt=""string"">E-Prime Primary Realtime Clock</Description><StartTime><Timestamp dt:dt=""int"">0</Timestamp><DateUtc dt:dt=""string"">2018-10-11T19:00:32Z</DateUtc></StartTime><FrequencyChanges><FrequencyChange><Frequency dt:dt=""r8"">3215244</Frequency><Timestamp dt:dt=""r8"">5487905499573</Timestamp><Current dt:dt=""r8"">0</Current><DateUtc dt:dt=""string"">2018-10-11T19:00:32Z</DateUtc></FrequencyChange></FrequencyChanges></Clock>\n",KW_Experiment5A-14-1,59.945,1.0.0.105,2,-1062054389,Professional,2.0.10.353,2.0.10.353,10/11/2018,10/11/2018 19:00,15:00:32,2.0.10.248,2,2,1,2,,,,,,,,TrainingProc,BlockList,1,1,Distractor2.bmp,2,0,,0,30,3297026,501,,0,0,cyan,500,2,500,,vertical,cyan,Distractor1.bmp,yellow,Distractor2.bmp,purple,Distractor1.bmp,red,Target1.bmp,lime,Distractor2.bmp,blue,Distractor1.bmp,,,,TrialProc,4,TrainingTrialList,1,1,-999999,1,3297527,0,1,509,3298036,Target1.bmp,red,1,,,,10,2,1
KW_Experiment5A,14,1,"<?xml version=""1.0""?>\n<Clock xmlns:dt=""urn:schemas-microsoft-com:datatypes""><Description dt:dt=""string"">E-Prime Primary Realtime Clock</Description><StartTime><Timestamp dt:dt=""int"">0</Timestamp><DateUtc dt:dt=""string"">2018-10-11T19:00:32Z</DateUtc></StartTime><FrequencyChanges><FrequencyChange><Frequency dt:dt=""r8"">3215244</Frequency><Timestamp dt:dt=""r8"">5487905499573</Timestamp><Current dt:dt=""r8"">0</Current><DateUtc dt:dt=""string"">2018-10-11T19:00:32Z</DateUtc></FrequencyChange></FrequencyChanges></Clock>\n",KW_Experiment5A-14-1,59.945,1.0.0.105,2,-1062054389,Professional,2.0.10.353,2.0.10.353,10/11/2018,10/11/2018 19:00,15:00:32,2.0.10.248,2,2,1,2,,,,,,,,TrainingProc,BlockList,2,1,Distractor2.bmp,2,0,,0,1,3299061,501,,0,0,cyan,500,2,500,,vertical,cyan,Distractor1.bmp,purple,Distractor2.bmp,red,Target1.bmp,lime,Distractor2.bmp,yellow,Distractor2.bmp,blue,Distractor2.bmp,,,,TrialProc,4,TrainingTrialList,1,1,-999999,1,3299562,0,1,458,3300020,Target1.bmp,red,1,,,,9,2,2
KW_Experiment5A,14,1,"<?xml version=""1.0""?>\n<Clock xmlns:dt=""urn:schemas-microsoft-com:datatypes""><Description dt:dt=""string"">E-Prime Primary Realtime Clock</Description><StartTime><Timestamp dt:dt=""int"">0</Timestamp><DateUtc dt:dt=""string"">2018-10-11T19:00:32Z</DateUtc></StartTime><FrequencyChanges><FrequencyChange><Frequency dt:dt=""r8"">3215244</Frequency><Timestamp dt:dt=""r8"">5487905499573</Timestamp><Current dt:dt=""r8"">0</Current><DateUtc dt:dt=""string"">2018-10-11T19:00:32Z</DateUtc></FrequencyChange></FrequencyChanges></Clock>\n",KW_Experiment5A-14-1,59.945,1.0.0.105,2,-1062054389,Professional,2.0.10.353,2.0.10.353,10/11/2018,10/11/2018 19:00,15:00:32,2.0.10.248,2,2,1,2,,,,,,,,TrainingProc,BlockList,3,2,Distractor2.bmp,2,0,,0,1,3301030,600,,0,0,cyan,600,3,600,,horizontal,cyan,Distractor2.bmp,purple,Distractor1.bmp,blue,Distractor1.bmp,yellow,Distractor1.bmp,lime,Distractor2.bmp,red,Target2.bmp,,,,TrialProc,4,TrainingTrialList,1,2,-999999,0,3301630,0,2,774,3302404,Target2.bmp,red,2,,,,12,2,3
KW_Experiment5A,14,1,"<?xml version=""1.0""?>\n<Clock xmlns:dt=""urn:schemas-microsoft-com:datatypes""><Description dt:dt=""string"">E-Prime Primary Realtime Clock</Description><StartTime><Timestamp dt:dt=""int"">0</Timestamp><DateUtc dt:dt=""string"">2018-10-11T19:00:32Z</DateUtc></StartTime><FrequencyChanges><FrequencyChange><Frequency dt:dt=""r8"">3215244</Frequency><Timestamp dt:dt=""r8"">5487905499573</Timestamp><Current dt:dt=""r8"">0</Current><DateUtc dt:dt=""string"">2018-10-11T19:00:32Z</DateUtc></FrequencyChange></FrequencyChanges></Clock>\n",KW_Experiment5A-14-1,59.945,1.0.0.105,2,-1062054389,Professional,2.0.10.353,2.0.10.353,10/11/2018,10/11/2018 19:00,15:00:32,2.0.10.248,2,2,1,2,,,,,,,,TrainingProc,BlockList,4,1,Distractor1.bmp,1,0,,0,1,3303415,601,,0,0,purple,600,3,600,5,vertical,purple,Distractor1.bmp,red,Distractor2.bmp,cyan,Distractor1.bmp,blue,Distractor1.bmp,yellow,Distractor1.bmp,lime,Target1.bmp,,,,TrialProc,,TrainingTrialList,1,1,-999999,1,3304016,0,1,652,3304668,Target1.bmp,lime,1,,,,6,2,4
KW_Experiment5A,14,1,"<?xml version=""1.0""?>\n<Clock xmlns:dt=""urn:schemas-microsoft-com:datatypes""><Description dt:dt=""string"">E-Prime Primary Realtime Clock</Description><StartTime><Timestamp dt:dt=""int"">0</Timestamp><DateUtc dt:dt=""string"">2018-10-11T19:00:32Z</DateUtc></StartTime><FrequencyChanges><FrequencyChange><Frequency dt:dt=""r8"">3215244</Frequency><Timestamp dt:dt=""r8"">5487905499573</Timestamp><Current dt:dt=""r8"">0</Current><DateUtc dt:dt=""string"">2018-10-11T19:00:32Z</DateUtc></FrequencyChange></FrequencyChanges></Clock>\n",KW_Experiment5A-14-1,59.945,1.0.0.105,2,-1062054389,Professional,2.0.10.353,2.0.10.353,10/11/2018,10/11/2018 19:00,15:00:32,2.0.10.248,2,2,1,2,,,,,,,,TrainingProc,BlockList,5,2,Distractor1.bmp,1,0,,0,1,3305684,401,,0,0,yellow,400,1,400,,horizontal,yellow,Distractor1.bmp,lime,Distractor1.bmp,red,Target2.bmp,cyan,Distractor1.bmp,purple,Distractor2.bmp,blue,Distractor1.bmp,,,,TrialProc,2,TrainingTrialList,1,2,-999999,1,3306085,0,2,590,3306675,Target2.bmp,red,2,,,,9,2,5
KW_Experiment5A,14,1,"<?xml version=""1.0""?>\n<Clock xmlns:dt=""urn:schemas-microsoft-com:datatypes""><Description dt:dt=""string"">E-Prime Primary Realtime Clock</Description><StartTime><Timestamp dt:dt=""int"">0</Timestamp><DateUtc dt:dt=""string"">2018-10-11T19:00:32Z</DateUtc></StartTime><FrequencyChanges><FrequencyChange><Frequency dt:dt=""r8"">3215244</Frequency><Timestamp dt:dt=""r8"">5487905499573</Timestamp><Current dt:dt=""r8"">0</Current><DateUtc dt:dt=""string"">2018-10-11T19:00:32Z</DateUtc></FrequencyChange></FrequencyChanges></Clock>\n",KW_Experiment5A-14-1,59.945,1.0.0.105,2,-1062054389,Professional,2.0.10.353,2.0.10.353,10/11/2018,10/11/2018 19:00,15:00:32,2.0.10.248,2,2,1,2,,,,,,,,TrainingProc,BlockList,6,1,Distractor2.bmp,2,0,,0,1,3307686,601,,0,0,blue,600,3,600,,vertical,blue,Distractor1.bmp,yellow,Distractor2.bmp,lime,Distractor1.bmp,purple,Distractor1.bmp,red,Target1.bmp,cyan,Distractor2.bmp,,,,TrialProc,3,TrainingTrialList,1,1,-999999,1,3308287,0,1,628,3308915,Target1.bmp,red,1,,,,11,2,6
KW_Experiment5A,14,1,"<?xml version=""1.0""?>\n<Clock xmlns:dt=""urn:schemas-microsoft-com:datatypes""><Description dt:dt=""string"">E-Prime Primary Realtime Clock</Description><StartTime><Timestamp dt:dt=""int"">0</Timestamp><DateUtc dt:dt=""string"">2018-10-11T19:00:32Z</DateUtc></StartTime><FrequencyChanges><FrequencyChange><Frequency dt:dt=""r8"">3215244</Frequency><Timestamp dt:dt=""r8"">5487905499573</Timestamp><Current dt:dt=""r8"">0</Current><DateUtc dt:dt=""string"">2018-10-11T19:00:32Z</DateUtc></FrequencyChange></FrequencyChanges></Clock>\n",KW_Experiment5A-14-1,59.945,1.0.0.105,2,-1062054389,Professional,2.0.10.353,2.0.10.353,10/11/2018,10/11/2018 19:00,15:00:32,2.0.10.248,2,2,1,2,,,,,,,,TrainingProc,BlockList,7,2,Distractor1.bmp,1,0,,0,1,3309938,400,,0,0,lime,400,1,400,,horizontal,red,Target2.bmp,purple,Distractor1.bmp,yellow,Distractor2.bmp,cyan,Distractor1.bmp,blue,Distractor2.bmp,lime,Distractor2.bmp,,,,TrialProc,6,TrainingTrialList,1,2,-999999,0,3310338,0,2,617,3310955,Target2.bmp,red,2,,,,7,2,7
KW_Experiment5A,14,1,"<?xml version=""1.0""?>\n<Clock xmlns:dt=""urn:schemas-microsoft-com:datatypes""><Description dt:dt=""string"">E-Prime Primary Realtime Clock</Description><StartTime><Timestamp dt:dt=""int"">0</Timestamp><DateUtc dt:dt=""string"">2018-10-11T19:00:32Z</DateUtc></StartTime><FrequencyChanges><FrequencyChange><Frequency dt:dt=""r8"">3215244</Frequency><Timestamp dt:dt=""r8"">5487905499573</Timestamp><Current dt:dt=""r8"">0</Current><DateUtc dt:dt=""string"">2018-10-11T19:00:32Z</DateUtc></FrequencyChange></FrequencyChanges></Clock>\n",KW_Experiment5A-14-1,59.945,1.0.0.105,2,-1062054389,Professional,2.0.10.353,2.0.10.353,10/11/2018,10/11/2018 19:00,15:00:32,2.0.10.248,2,2,1,2,,,,,,,,TrainingProc,BlockList,8,1,Distractor2.bmp,2,0,,0,1,3311973,401,,0,0,purple,400,1,400,5,vertical,lime,Target1.bmp,purple,Distractor2.bmp,yellow,Distractor1.bmp,red,Distractor1.bmp,cyan,Distractor1.bmp,blue,Distractor1.bmp,,,,TrialProc,,TrainingTrialList,1,1,-999999,1,3312374,0,1,973,3313347,Target1.bmp,lime,1,,,,1,2,8
KW_Experiment5A,14,1,"<?xml version=""1.0""?>\n<Clock xmlns:dt=""urn:schemas-microsoft-com:datatypes""><Description dt:dt=""string"">E-Prime Primary Realtime Clock</Description><StartTime><Timestamp dt:dt=""int"">0</Timestamp><DateUtc dt:dt=""string"">2018-10-11T19:00:32Z</DateUtc></StartTime><FrequencyChanges><FrequencyChange><Frequency dt:dt=""r8"">3215244</Frequency><Timestamp dt:dt=""r8"">5487905499573</Timestamp><Current dt:dt=""r8"">0</Current><DateUtc dt:dt=""string"">2018-10-11T19:00:32Z</DateUtc></FrequencyChange></FrequencyChanges></Clock>\n",KW_Experiment5A-14-1,59.945,1.0.0.105,2,-1062054389,Professional,2.0.10.353,2.0.10.353,10/11/2018,10/11/2018 19:00,15:00:32,2.0.10.248,2,2,1,2,,,,,,,,TrainingProc,BlockList,9,1,Distractor2.bmp,2,0,,0,1,3314359,600,,0,0,blue,600,3,600,3,vertical,blue,Distractor2.bmp,lime,Target1.bmp,yellow,Distractor2.bmp,cyan,Distractor1.bmp,red,Distractor2.bmp,purple,Distractor2.bmp,,,,TrialProc,,TrainingTrialList,1,1,-999999,0,3314959,0,1,684,3315643,Target1.bmp,lime,1,,,,2,2,9
KW_Experiment5A,14,1,"<?xml version=""1.0""?>\n<Clock xmlns:dt=""urn:schemas-microsoft-com:datatypes""><Description dt:dt=""string"">E-Prime Primary Realtime Clock</Description><StartTime><Timestamp dt:dt=""int"">0</Timestamp><DateUtc dt:dt=""string"">2018-10-11T19:00:32Z</DateUtc></StartTime><FrequencyChanges><FrequencyChange><Frequency dt:dt=""r8"">3215244</Frequency><Timestamp dt:dt=""r8"">5487905499573</Timestamp><Current dt:dt=""r8"">0</Current><DateUtc dt:dt=""string"">2018-10-11T19:00:32Z</DateUtc></FrequencyChange></FrequencyChanges></Clock>\n",KW_Experiment5A-14-1,59.945,1.0.0.105,2,-1062054389,Professional,2.0.10.353,2.0.10.353,10/11/2018,10/11/2018 19:00,15:00:32,2.0.10.248,2,2,1,2,,,,,,,,TrainingProc,BlockList,10,1,Distractor1.bmp,1,0,,0,1,3316661,400,,0,0,yellow,400,1,400,,vertical,red,Target1.bmp,blue,Distractor1.bmp,cyan,Distractor1.bmp,purple,Distractor2.bmp,lime,Distractor1.bmp,yellow,Distractor1.bmp,,,,TrialProc,2,TrainingTrialList,0,1,-999999,0,3317061,0,2,518,3317579,Target1.bmp,red,1,,,,7,2,10
KW_Experiment5A,14,1,"<?xml version=""1.0""?>\n<Clock xmlns:dt=""urn:schemas-microsoft-com:datatypes""><Description dt:dt=""string"">E-Prime Primary Realtime Clock</Description><StartTime><Timestamp dt:dt=""int"">0</Timestamp><DateUtc dt:dt=""string"">2018-10-11T19:00:32Z</DateUtc></StartTime><FrequencyChanges><FrequencyChange><Frequency dt:dt=""r8"">3215244</Frequency><Timestamp dt:dt=""r8"">5487905499573</Timestamp><Current dt:dt=""r8"">0</Current><DateUtc dt:dt=""string"">2018-10-11T19:00:32Z</DateUtc></FrequencyChange></FrequencyChanges></Clock>\n",KW_Experiment5A-14-1,59.945,1.0.0.105,2,-1062054389,Professional,2.0.10.353,2.0.10.353,10/11/2018,10/11/2018 19:00,15:00:32,2.0.10.248,2,2,1,2,,,,,,,,TrainingProc,BlockList,11,2,Distractor1.bmp,1,0,,0,1,3318596,400,,0,0,lime,400,1,400,,horizontal,red,Target2.bmp,cyan,Distractor1.bmp,yellow,Distractor2.bmp,purple,Distractor2.bmp,blue,Distractor2.bmp,lime,Distractor2.bmp,,,,TrialProc,6,TrainingTrialList,1,2,-999999,0,3318996,0,2,775,3319771,Target2.bmp,red,2,,,,7,2,11
KW_Experiment5A,14,1,"<?xml version=""1.0""?>\n<Clock xmlns:dt=""urn:schemas-microsoft-com:datatypes""><Description dt:dt=""string"">E-Prime Primary Realtime Clock</Description><StartTime><Timestamp dt:dt=""int"">0</Timestamp><DateUtc dt:dt=""string"">2018-10-11T19:00:32Z</DateUtc></StartTime><FrequencyChanges><FrequencyChange><Frequency dt:dt=""r8"">3215244</Frequency><Timestamp dt:dt=""r8"">5487905499573</Timestamp><Current dt:dt=""r8"">0</Current><DateUtc dt:dt=""string"">2018-10-11T19:00:32Z</DateUtc></FrequencyChange></FrequencyChanges></Clock>\n",KW_Experiment5A-14-1,59.945,1.0.0.105,2,-1062054389,Professional,2.0.10.353,2.0.10.353,10/11/2018,10/11/2018 19:00,15:00:32,2.0.10.248,2,2,1,2,,,,,,,,TrainingProc,BlockList,12,2,Distractor1.bmp,1,0,,1,0,3320781,501,,0,0,lime,500,2,500,,horizontal,lime,Distractor2.bmp,blue,Distractor2.bmp,cyan,Distractor2.bmp,red,Target2.bmp,purple,Distractor1.bmp,yellow,Distractor2.bmp,,,,TrialProc,6,TrainingTrialList,1,2,-999999,1,3321282,0,2,785,3322067,Target2.bmp,red,2,,,,10,2,12
KW_Experiment5A,14,1,"<?xml version=""1.0""?>\n<Clock xmlns:dt=""urn:schemas-microsoft-com:datatypes""><Description dt:dt=""string"">E-Prime Primary Realtime Clock</Description><StartTime><Timestamp dt:dt=""int"">0</Timestamp><DateUtc dt:dt=""string"">2018-10-11T19:00:32Z</DateUtc></StartTime><FrequencyChanges><FrequencyChange><Frequency dt:dt=""r8"">3215244</Frequency><Timestamp dt:dt=""r8"">5487905499573</Timestamp><Current dt:dt=""r8"">0</Current><DateUtc dt:dt=""string"">2018-10-11T19:00:32Z</DateUtc></FrequencyChange></FrequencyChanges></Clock>\n",KW_Experiment5A-14-1,59.945,1.0.0.105,2,-1062054389,Professional,2.0.10.353,2.0.10.353,10/11/2018,10/11/2018 19:00,15:00:32,2.0.10.248,2,2,1,2,,,,,,,,TrainingProc,BlockList,13,1,Distractor1.bmp,1,0,,0,1,3323084,500,,0,0,blue,500,2,500,3,vertical,blue,Distractor2.bmp,cyan,Distractor1.bmp,yellow,Distractor1.bmp,red,Distractor2.bmp,lime,Target1.bmp,purple,Distractor1.bmp,,,,TrialProc,,TrainingTrialList,1,1,-999999,0,3323584,0,1,659,3324243,Target1.bmp,lime,1,,,,5,2,13
KW_Experiment5A,14,1,"<?xml version=""1.0""?>\n<Clock xmlns:dt=""urn:schemas-microsoft-com:datatypes""><Description dt:dt=""string"">E-Prime Primary Realtime Clock</Description><StartTime><Timestamp dt:dt=""int"">0</Timestamp><DateUtc dt:dt=""string"">2018-10-11T19:00:32Z</DateUtc></StartTime><FrequencyChanges><FrequencyChange><Frequency dt:dt=""r8"">3215244</Frequency><Timestamp dt:dt=""r8"">5487905499573</Timestamp><Current dt:dt=""r8"">0</Current><DateUtc dt:dt=""string"">2018-10-11T19:00:32Z</DateUtc></FrequencyChange></FrequencyChanges></Clock>\n",KW_Experiment5A-14-1,59.945,1.0.0.105,2,-1062054389,Professional,2.0.10.353,2.0.10.353,10/11/2018,10/11/2018 19:00,15:00:32,2.0.10.248,2,2,1,2,,,,,,,,TrainingProc,BlockList,14,1,Distractor1.bmp,1,0,,0,1,3325269,600,,0,0,cyan,600,3,600,,vertical,cyan,Distractor2.bmp,red,Target1.bmp,purple,Distractor1.bmp,lime,Distractor2.bmp,yellow,Distractor1.bmp,blue,Distractor1.bmp,,,,TrialProc,4,TrainingTrialList,1,1,-999999,0,3325869,0,1,734,3326603,Target1.bmp,red,1,,,,8,2,14
KW_Experiment5A,14,1,"<?xml version=""1.0""?>\n<Clock xmlns:dt=""urn:schemas-microsoft-com:datatypes""><Description dt:dt=""string"">E-Prime Primary Realtime Clock</Description><StartTime><Timestamp dt:dt=""int"">0</Timestamp><DateUtc dt:dt=""string"">2018-10-11T19:00:32Z</DateUtc></StartTime><FrequencyChanges><FrequencyChange><Frequency dt:dt=""r8"">3215244</Frequency><Timestamp dt:dt=""r8"">5487905499573</Timestamp><Current dt:dt=""r8"">0</Current><DateUtc dt:dt=""string"">2018-10-11T19:00:32Z</DateUtc></FrequencyChange></FrequencyChanges></Clock>\n",KW_Experiment5A-14-1,59.945,1.0.0.105,2,-1062054389,Professional,2.0.10.353,2.0.10.353,10/11/2018,10/11/2018 19:00,15:00:32,2.0.10.248,2,2,1,2,,,,,,,,TrainingProc,BlockList,15,1,Distractor1.bmp,1,0,,0,1,3327621,500,,0,0,red,500,2,500,1,vertical,red,Distractor1.bmp,blue,Distractor1.bmp,cyan,Distractor1.bmp,lime,Target1.bmp,purple,Distractor1.bmp,yellow,Distractor1.bmp,,,,TrialProc,,TrainingTrialList,1,1,-999999,0,3328121,0,1,666,3328787,Target1.bmp,lime,1,,,,4,2,15
KW_Experiment5A,14,1,"<?xml version=""1.0""?>\n<Clock xmlns:dt=""urn:schemas-microsoft-com:datatypes""><Description dt:dt=""string"">E-Prime Primary Realtime Clock</Description><StartTime><Timestamp dt:dt=""int"">0</Timestamp><DateUtc dt:dt=""string"">2018-10-11T19:00:32Z</DateUtc></StartTime><FrequencyChanges><FrequencyChange><Frequency dt:dt=""r8"">3215244</Frequency><Timestamp dt:dt=""r8"">5487905499573</Timestamp><Current dt:dt=""r8"">0</Current><DateUtc dt:dt=""string"">2018-10-11T19:00:32Z</DateUtc></FrequencyChange></FrequencyChanges></Clock>\n",KW_Experiment5A-14-1,59.945,1.0.0.105,2,-1062054389,Professional,2.0.10.353,2.0.10.353,10/11/2018,10/11/2018 19:00,15:00:32,2.0.10.248,2,2,1,2,,,,,,,,TrainingProc,BlockList,16,2,Distractor2.bmp,2,0,,0,0,3329806,601,,0,0,purple,600,3,600,,horizontal,purple,Distractor1.bmp,blue,Distractor2.bmp,yellow,Distractor2.bmp,lime,Distractor1.bmp,red,Target2.bmp,cyan,Distractor2.bmp,,,,TrialProc,5,TrainingTrialList,1,2,-999999,1,3330407,0,2,644,3331051,Target2.bmp,red,2,,,,11,2,16
KW_Experiment5A,14,1,"<?xml version=""1.0""?>\n<Clock xmlns:dt=""urn:schemas-microsoft-com:datatypes""><Description dt:dt=""string"">E-Prime Primary Realtime Clock</Description><StartTime><Timestamp dt:dt=""int"">0</Timestamp><DateUtc dt:dt=""string"">2018-10-11T19:00:32Z</DateUtc></StartTime><FrequencyChanges><FrequencyChange><Frequency dt:dt=""r8"">3215244</Frequency><Timestamp dt:dt=""r8"">5487905499573</Timestamp><Current dt:dt=""r8"">0</Current><DateUtc dt:dt=""string"">2018-10-11T19:00:32Z</DateUtc></FrequencyChange></FrequencyChanges></Clock>\n",KW_Experiment5A-14-1,59.945,1.0.0.105,2,-1062054389,Professional,2.0.10.353,2.0.10.353,10/11/2018,10/11/2018 19:00,15:00:32,2.0.10.248,2,2,1,2,,,,,,,,TrainingProc,BlockList,17,2,Distractor1.bmp,1,0,,0,1,3332075,401,,0,0,purple,400,1,400,5,horizontal,purple,Distractor2.bmp,cyan,Distractor1.bmp,lime,Target2.bmp,yellow,Distractor1.bmp,blue,Distractor1.bmp,red,Distractor1.bmp,,,,TrialProc,,TrainingTrialList,0,2,-999999,1,3332476,0,1,855,3333331,Target2.bmp,lime,2,,,,3,2,17
KW_Experiment5A,14,1,"<?xml version=""1.0""?>\n<Clock xmlns:dt=""urn:schemas-microsoft-com:datatypes""><Description dt:dt=""string"">E-Prime Primary Realtime Clock</Description><StartTime><Timestamp dt:dt=""int"">0</Timestamp><DateUtc dt:dt=""string"">2018-10-11T19:00:32Z</DateUtc></StartTime><FrequencyChanges><FrequencyChange><Frequency dt:dt=""r8"">3215244</Frequency><Timestamp dt:dt=""r8"">5487905499573</Timestamp><Current dt:dt=""r8"">0</Current><DateUtc dt:dt=""string"">2018-10-11T19:00:32Z</DateUtc></FrequencyChange></FrequencyChanges></Clock>\n",KW_Experiment5A-14-1,59.945,1.0.0.105,2,-1062054389,Professional,2.0.10.353,2.0.10.353,10/11/2018,10/11/2018 19:00,15:00:32,2.0.10.248,2,2,1,2,,,,,,,,TrainingProc,BlockList,18,1,Distractor1.bmp,1,0,,0,1,3334344,400,,0,0,yellow,400,1,400,,vertical,yellow,Distractor1.bmp,cyan,Distractor1.bmp,purple,Distractor1.bmp,red,Target1.bmp,lime,Distractor1.bmp,blue,Distractor2.bmp,,,,TrialProc,2,TrainingTrialList,0,1,-999999,0,3334744,0,2,1155,3335899,Target1.bmp,red,1,,,,10,2,18
KW_Experiment5A,14,1,"<?xml version=""1.0""?>\n<Clock xmlns:dt=""urn:schemas-microsoft-com:datatypes""><Description dt:dt=""string"">E-Prime Primary Realtime Clock</Description><StartTime><Timestamp dt:dt=""int"">0</Timestamp><DateUtc dt:dt=""string"">2018-10-11T19:00:32Z</DateUtc></StartTime><FrequencyChanges><FrequencyChange><Frequency dt:dt=""r8"">3215244</Frequency><Timestamp dt:dt=""r8"">5487905499573</Timestamp><Current dt:dt=""r8"">0</Current><DateUtc dt:dt=""string"">2018-10-11T19:00:32Z</DateUtc></FrequencyChange></FrequencyChanges></Clock>\n",KW_Experiment5A-14-1,59.945,1.0.0.105,2,-1062054389,Professional,2.0.10.353,2.0.10.353,10/11/2018,10/11/2018 19:00,15:00:32,2.0.10.248,2,2,1,2,,,,,,,,TrainingProc,BlockList,19,2,Distractor1.bmp,1,0,,0,1,3336913,601,,0,0,blue,600,3,600,,horizontal,blue,Distractor2.bmp,cyan,Distractor2.bmp,red,Target2.bmp,purple,Distractor1.bmp,yellow,Distractor2.bmp,lime,Distractor2.bmp,,,,TrialProc,3,TrainingTrialList,1,2,-999999,1,3337514,0,2,777,3338291,Target2.bmp,red,2,,,,9,2,19
KW_Experiment5A,14,1,"<?xml version=""1.0""?>\n<Clock xmlns:dt=""urn:schemas-microsoft-com:datatypes""><Description dt:dt=""string"">E-Prime Primary Realtime Clock</Description><StartTime><Timestamp dt:dt=""int"">0</Timestamp><DateUtc dt:dt=""string"">2018-10-11T19:00:32Z</DateUtc></StartTime><FrequencyChanges><FrequencyChange><Frequency dt:dt=""r8"">3215244</Frequency><Timestamp dt:dt=""r8"">5487905499573</Timestamp><Current dt:dt=""r8"">0</Current><DateUtc dt:dt=""string"">2018-10-11T19:00:32Z</DateUtc></FrequencyChange></FrequencyChanges></Clock>\n",KW_Experiment5A-14-1,59.945,1.0.0.105,2,-1062054389,Professional,2.0.10.353,2.0.10.353,10/11/2018,10/11/2018 19:00,15:00:32,2.0.10.248,2,2,1,2,,,,,,,,TrainingProc,BlockList,20,2,Distractor2.bmp,2,0,,0,1,3339315,401,,0,0,yellow,400,1,400,,horizontal,yellow,Distractor1.bmp,red,Target2.bmp,cyan,Distractor2.bmp,purple,Distractor1.bmp,blue,Distractor1.bmp,lime,Distractor1.bmp,,,,TrialProc,2,TrainingTrialList,1,2,-999999,1,3339716,0,2,839,3340555,Target2.bmp,red,2,,,,8,2,20
KW_Experiment5A,14,1,"<?xml version=""1.0""?>\n<Clock xmlns:dt=""urn:schemas-microsoft-com:datatypes""><Description dt:dt=""string"">E-Prime Primary Realtime Clock</Description><StartTime><Timestamp dt:dt=""int"">0</Timestamp><DateUtc dt:dt=""string"">2018-10-11T19:00:32Z</DateUtc></StartTime><FrequencyChanges><FrequencyChange><Frequency dt:dt=""r8"">3215244</Frequency><Timestamp dt:dt=""r8"">5487905499573</Timestamp><Current dt:dt=""r8"">0</Current><DateUtc dt:dt=""string"">2018-10-11T19:00:32Z</DateUtc></FrequencyChange></FrequencyChanges></Clock>\n",KW_Experiment5A-14-1,59.945,1.0.0.105,2,-1062054389,Professional,2.0.10.353,2.0.10.353,10/11/2018,10/11/2018 19:00,15:00:32,2.0.10.248,2,2,1,2,,,,,,,,TrainingProc,BlockList,21,1,Distractor2.bmp,2,0,,0,1,3341567,401,,0,0,lime,400,1,400,,vertical,lime,Distractor1.bmp,yellow,Distractor2.bmp,purple,Distractor1.bmp,cyan,Distractor1.bmp,red,Target1.bmp,blue,Distractor2.bmp,,,,TrialProc,6,TrainingTrialList,1,1,-999999,1,3341968,0,1,595,3342563,Target1.bmp,red,1,,,,11,2,21
KW_Experiment5A,14,1,"<?xml version=""1.0""?>\n<Clock xmlns:dt=""urn:schemas-microsoft-com:datatypes""><Description dt:dt=""string"">E-Prime Primary Realtime Clock</Description><StartTime><Timestamp dt:dt=""int"">0</Timestamp><DateUtc dt:dt=""string"">2018-10-11T19:00:32Z</DateUtc></StartTime><FrequencyChanges><FrequencyChange><Frequency dt:dt=""r8"">3215244</Frequency><Timestamp dt:dt=""r8"">5487905499573</Timestamp><Current dt:dt=""r8"">0</Current><DateUtc dt:dt=""string"">2018-10-11T19:00:32Z</DateUtc></FrequencyChange></FrequencyChanges></Clock>\n",KW_Experiment5A-14-1,59.945,1.0.0.105,2,-1062054389,Professional,2.0.10.353,2.0.10.353,10/11/2018,10/11/2018 19:00,15:00:32,2.0.10.248,2,2,1,2,,,,,,,,TrainingProc,BlockList,22,1,Distractor1.bmp,1,0,,0,1,3343586,400,,0,0,purple,400,1,400,,vertical,purple,Distractor1.bmp,blue,Distractor1.bmp,yellow,Distractor2.bmp,cyan,Distractor2.bmp,lime,Distractor1.bmp,red,Target1.bmp,,,,TrialProc,5,TrainingTrialList,1,1,-999999,0,3343986,0,1,697,3344683,Target1.bmp,red,1,,,,12,2,22
KW_Experiment5A,14,1,"<?xml version=""1.0""?>\n<Clock xmlns:dt=""urn:schemas-microsoft-com:datatypes""><Description dt:dt=""string"">E-Prime Primary Realtime Clock</Description><StartTime><Timestamp dt:dt=""int"">0</Timestamp><DateUtc dt:dt=""string"">2018-10-11T19:00:32Z</DateUtc></StartTime><FrequencyChanges><FrequencyChange><Frequency dt:dt=""r8"">3215244</Frequency><Timestamp dt:dt=""r8"">5487905499573</Timestamp><Current dt:dt=""r8"">0</Current><DateUtc dt:dt=""string"">2018-10-11T19:00:32Z</DateUtc></FrequencyChange></FrequencyChanges></Clock>\n",KW_Experiment5A-14-1,59.945,1.0.0.105,2,-1062054389,Professional,2.0.10.353,2.0.10.353,10/11/2018,10/11/2018 19:00,15:00:32,2.0.10.248,2,2,1,2,,,,,,,,TrainingProc,BlockList,23,1,Distractor1.bmp,1,0,,0,1,3345704,501,,0,0,purple,500,2,500,,vertical,purple,Distractor1.bmp,yellow,Distractor2.bmp,lime,Distractor1.bmp,cyan,Distractor1.bmp,blue,Distractor1.bmp,red,Target1.bmp,,,,TrialProc,5,TrainingTrialList,1,1,-999999,1,3346205,0,1,694,3346899,Target1.bmp,red,1,,,,12,2,23
KW_Experiment5A,14,1,"<?xml version=""1.0""?>\n<Clock xmlns:dt=""urn:schemas-microsoft-com:datatypes""><Description dt:dt=""string"">E-Prime Primary Realtime Clock</Description><StartTime><Timestamp dt:dt=""int"">0</Timestamp><DateUtc dt:dt=""string"">2018-10-11T19:00:32Z</DateUtc></StartTime><FrequencyChanges><FrequencyChange><Frequency dt:dt=""r8"">3215244</Frequency><Timestamp dt:dt=""r8"">5487905499573</Timestamp><Current dt:dt=""r8"">0</Current><DateUtc dt:dt=""string"">2018-10-11T19:00:32Z</DateUtc></FrequencyChange></FrequencyChanges></Clock>\n",KW_Experiment5A-14-1,59.945,1.0.0.105,2,-1062054389,Professional,2.0.10.353,2.0.10.353,10/11/2018,10/11/2018 19:00,15:00:32,2.0.10.248,2,2,1,2,,,,,,,,TrainingProc,BlockList,24,2,Distractor1.bmp,1,0,,0,1,3347923,400,,0,0,cyan,400,1,400,,horizontal,cyan,Distractor1.bmp,red,Target2.bmp,lime,Distractor1.bmp,yellow,Distractor1.bmp,purple,Distractor1.bmp,blue,Distractor1.bmp,,,,TrialProc,4,TrainingTrialList,1,2,-999999,0,3348323,0,2,640,3348963,Target2.bmp,red,2,,,,8,2,24
KW_Experiment5A,14,1,"<?xml version=""1.0""?>\n<Clock xmlns:dt=""urn:schemas-microsoft-com:datatypes""><Description dt:dt=""string"">E-Prime Primary Realtime Clock</Description><StartTime><Timestamp dt:dt=""int"">0</Timestamp><DateUtc dt:dt=""string"">2018-10-11T19:00:32Z</DateUtc></StartTime><FrequencyChanges><FrequencyChange><Frequency dt:dt=""r8"">3215244</Frequency><Timestamp dt:dt=""r8"">5487905499573</Timestamp><Current dt:dt=""r8"">0</Current><DateUtc dt:dt=""string"">2018-10-11T19:00:32Z</DateUtc></FrequencyChange></FrequencyChanges></Clock>\n",KW_Experiment5A-14-1,59.945,1.0.0.105,2,-1062054389,Professional,2.0.10.353,2.0.10.353,10/11/2018,10/11/2018 19:00,15:00:32,2.0.10.248,2,2,1,2,,,,,,,,TrainingProc,BlockList,25,2,Distractor2.bmp,2,0,,0,1,3349975,400,,0,0,blue,400,1,400,,horizontal,blue,Distractor2.bmp,purple,Distractor1.bmp,yellow,Distractor2.bmp,cyan,Distractor1.bmp,lime,Distractor1.bmp,red,Target2.bmp,,,,TrialProc,3,TrainingTrialList,1,2,-999999,0,3350375,0,2,852,3351227,Target2.bmp,red,2,,,,12,3,25
KW_Experiment5A,14,1,"<?xml version=""1.0""?>\n<Clock xmlns:dt=""urn:schemas-microsoft-com:datatypes""><Description dt:dt=""string"">E-Prime Primary Realtime Clock</Description><StartTime><Timestamp dt:dt=""int"">0</Timestamp><DateUtc dt:dt=""string"">2018-10-11T19:00:32Z</DateUtc></StartTime><FrequencyChanges><FrequencyChange><Frequency dt:dt=""r8"">3215244</Frequency><Timestamp dt:dt=""r8"">5487905499573</Timestamp><Current dt:dt=""r8"">0</Current><DateUtc dt:dt=""string"">2018-10-11T19:00:32Z</DateUtc></FrequencyChange></FrequencyChanges></Clock>\n",KW_Experiment5A-14-1,59.945,1.0.0.105,2,-1062054389,Professional,2.0.10.353,2.0.10.353,10/11/2018,10/11/2018 19:00,15:00:32,2.0.10.248,2,2,1,2,,,,,,,,TrainingProc,BlockList,26,1,Distractor1.bmp,1,0,,0,1,3352244,600,,0,0,blue,600,3,600,,vertical,blue,Distractor1.bmp,cyan,Distractor1.bmp,lime,Distractor1.bmp,yellow,Distractor2.bmp,purple,Distractor1.bmp,red,Target1.bmp,,,,TrialProc,3,TrainingTrialList,1,1,-999999,0,3352844,0,1,535,3353379,Target1.bmp,red,1,,,,12,3,26
KW_Experiment5A,14,1,"<?xml version=""1.0""?>\n<Clock xmlns:dt=""urn:schemas-microsoft-com:datatypes""><Description dt:dt=""string"">E-Prime Primary Realtime Clock</Description><StartTime><Timestamp dt:dt=""int"">0</Timestamp><DateUtc dt:dt=""string"">2018-10-11T19:00:32Z</DateUtc></StartTime><FrequencyChanges><FrequencyChange><Frequency dt:dt=""r8"">3215244</Frequency><Timestamp dt:dt=""r8"">5487905499573</Timestamp><Current dt:dt=""r8"">0</Current><DateUtc dt:dt=""string"">2018-10-11T19:00:32Z</DateUtc></FrequencyChange></FrequencyChanges></Clock>\n",KW_Experiment5A-14-1,59.945,1.0.0.105,2,-1062054389,Professional,2.0.10.353,2.0.10.353,10/11/2018,10/11/2018 19:00,15:00:32,2.0.10.248,2,2,1,2,,,,,,,,TrainingProc,BlockList,27,1,Distractor2.bmp,2,0,,0,1,3354396,600,,0,0,lime,600,3,600,,vertical,red,Target1.bmp,purple,Distractor2.bmp,blue,Distractor1.bmp,cyan,Distractor2.bmp,yellow,Distractor1.bmp,lime,Distractor1.bmp,,,,TrialProc,6,TrainingTrialList,1,1,-999999,0,3354996,0,1,775,3355771,Target1.bmp,red,1,,,,7,3,27
KW_Experiment5A,14,1,"<?xml version=""1.0""?>\n<Clock xmlns:dt=""urn:schemas-microsoft-com:datatypes""><Description dt:dt=""string"">E-Prime Primary Realtime Clock</Description><StartTime><Timestamp dt:dt=""int"">0</Timestamp><DateUtc dt:dt=""string"">2018-10-11T19:00:32Z</DateUtc></StartTime><FrequencyChanges><FrequencyChange><Frequency dt:dt=""r8"">3215244</Frequency><Timestamp dt:dt=""r8"">5487905499573</Timestamp><Current dt:dt=""r8"">0</Current><DateUtc dt:dt=""string"">2018-10-11T19:00:32Z</DateUtc></FrequencyChange></FrequencyChanges></Clock>\n",KW_Experiment5A-14-1,59.945,1.0.0.105,2,-1062054389,Professional,2.0.10.353,2.0.10.353,10/11/2018,10/11/2018 19:00,15:00:32,2.0.10.248,2,2,1,2,,,,,,,,TrainingProc,BlockList,28,2,Distractor1.bmp,1,0,,0,1,3356781,401,,0,0,blue,400,1,400,3,horizontal,blue,Distractor1.bmp,cyan,Distractor2.bmp,yellow,Distractor2.bmp,red,Distractor1.bmp,purple,Distractor1.bmp,lime,Target2.bmp,,,,TrialProc,,TrainingTrialList,1,2,-999999,1,3357182,0,2,1821,3359003,Target2.bmp,lime,2,,,,6,3,28
KW_Experiment5A,14,1,"<?xml version=""1.0""?>\n<Clock xmlns:dt=""urn:schemas-microsoft-com:datatypes""><Description dt:dt=""string"">E-Prime Primary Realtime Clock</Description><StartTime><Timestamp dt:dt=""int"">0</Timestamp><DateUtc dt:dt=""string"">2018-10-11T19:00:32Z</DateUtc></StartTime><FrequencyChanges><FrequencyChange><Frequency dt:dt=""r8"">3215244</Frequency><Timestamp dt:dt=""r8"">5487905499573</Timestamp><Current dt:dt=""r8"">0</Current><DateUtc dt:dt=""string"">2018-10-11T19:00:32Z</DateUtc></FrequencyChange></FrequencyChanges></Clock>\n",KW_Experiment5A-14-1,59.945,1.0.0.105,2,-1062054389,Professional,2.0.10.353,2.0.10.353,10/11/2018,10/11/2018 19:00,15:00:32,2.0.10.248,2,2,1,2,,,,,,,,TrainingProc,BlockList,29,1,Distractor1.bmp,1,0,,0,1,3360018,500,,0,0,purple,500,2,500,,vertical,purple,Distractor2.bmp,lime,Distractor1.bmp,blue,Distractor1.bmp,red,Target1.bmp,yellow,Distractor1.bmp,cyan,Distractor2.bmp,,,,TrialProc,5,TrainingTrialList,1,1,-999999,0,3360518,0,1,1357,3361875,Target1.bmp,red,1,,,,10,3,29
KW_Experiment5A,14,1,"<?xml version=""1.0""?>\n<Clock xmlns:dt=""urn:schemas-microsoft-com:datatypes""><Description dt:dt=""string"">E-Prime Primary Realtime Clock</Description><StartTime><Timestamp dt:dt=""int"">0</Timestamp><DateUtc dt:dt=""string"">2018-10-11T19:00:32Z</DateUtc></StartTime><FrequencyChanges><FrequencyChange><Frequency dt:dt=""r8"">3215244</Frequency><Timestamp dt:dt=""r8"">5487905499573</Timestamp><Current dt:dt=""r8"">0</Current><DateUtc dt:dt=""string"">2018-10-11T19:00:32Z</DateUtc></FrequencyChange></FrequencyChanges></Clock>\n",KW_Experiment5A-14-1,59.945,1.0.0.105,2,-1062054389,Professional,2.0.10.353,2.0.10.353,10/11/2018,10/11/2018 19:00,15:00:32,2.0.10.248,2,2,1,2,,,,,,,,TrainingProc,BlockList,30,1,Distractor2.bmp,2,0,,0,1,3362887,500,,0,0,blue,500,2,500,,vertical,blue,Distractor1.bmp,cyan,Distractor1.bmp,purple,Distractor1.bmp,red,Target1.bmp,lime,Distractor2.bmp,yellow,Distractor2.bmp,,,,TrialProc,3,TrainingTrialList,0,1,-999999,0,3363387,0,2,808,3364195,Target1.bmp,red,1,,,,10,3,30
KW_Experiment5A,14,1,"<?xml version=""1.0""?>\n<Clock xmlns:dt=""urn:schemas-microsoft-com:datatypes""><Description dt:dt=""string"">E-Prime Primary Realtime Clock</Description><StartTime><Timestamp dt:dt=""int"">0</Timestamp><DateUtc dt:dt=""string"">2018-10-11T19:00:32Z</DateUtc></StartTime><FrequencyChanges><FrequencyChange><Frequency dt:dt=""r8"">3215244</Frequency><Timestamp dt:dt=""r8"">5487905499573</Timestamp><Current dt:dt=""r8"">0</Current><DateUtc dt:dt=""string"">2018-10-11T19:00:32Z</DateUtc></FrequencyChange></FrequencyChanges></Clock>\n",KW_Experiment5A-14-1,59.945,1.0.0.105,2,-1062054389,Professional,2.0.10.353,2.0.10.353,10/11/2018,10/11/2018 19:00,15:00:32,2.0.10.248,2,2,1,2,,,,,,,,TrainingProc,BlockList,31,1,Distractor2.bmp,2,0,,0,1,3365206,500,,0,0,purple,500,2,500,,vertical,purple,Distractor2.bmp,lime,Distractor1.bmp,blue,Distractor1.bmp,yellow,Distractor1.bmp,red,Target1.bmp,cyan,Distractor2.bmp,,,,TrialProc,5,TrainingTrialList,1,1,-999999,0,3365706,0,1,1089,3366795,Target1.bmp,red,1,,,,11,3,31
KW_Experiment5A,14,1,"<?xml version=""1.0""?>\n<Clock xmlns:dt=""urn:schemas-microsoft-com:datatypes""><Description dt:dt=""string"">E-Prime Primary Realtime Clock</Description><StartTime><Timestamp dt:dt=""int"">0</Timestamp><DateUtc dt:dt=""string"">2018-10-11T19:00:32Z</DateUtc></StartTime><FrequencyChanges><FrequencyChange><Frequency dt:dt=""r8"">3215244</Frequency><Timestamp dt:dt=""r8"">5487905499573</Timestamp><Current dt:dt=""r8"">0</Current><DateUtc dt:dt=""string"">2018-10-11T19:00:32Z</DateUtc></FrequencyChange></FrequencyChanges></Clock>\n",KW_Experiment5A-14-1,59.945,1.0.0.105,2,-1062054389,Professional,2.0.10.353,2.0.10.353,10/11/2018,10/11/2018 19:00,15:00:32,2.0.10.248,2,2,1,2,,,,,,,,TrainingProc,BlockList,32,1,Distractor2.bmp,2,0,,0,1,3367808,401,,0,0,yellow,400,1,400,,vertical,yellow,Distractor2.bmp,lime,Distractor2.bmp,red,Target1.bmp,purple,Distractor2.bmp,cyan,Distractor1.bmp,blue,Distractor2.bmp,,,,TrialProc,2,TrainingTrialList,1,1,-999999,1,3368209,0,1,610,3368819,Target1.bmp,red,1,,,,9,3,32
KW_Experiment5A,14,1,"<?xml version=""1.0""?>\n<Clock xmlns:dt=""urn:schemas-microsoft-com:datatypes""><Description dt:dt=""string"">E-Prime Primary Realtime Clock</Description><StartTime><Timestamp dt:dt=""int"">0</Timestamp><DateUtc dt:dt=""string"">2018-10-11T19:00:32Z</DateUtc></StartTime><FrequencyChanges><FrequencyChange><Frequency dt:dt=""r8"">3215244</Frequency><Timestamp dt:dt=""r8"">5487905499573</Timestamp><Current dt:dt=""r8"">0</Current><DateUtc dt:dt=""string"">2018-10-11T19:00:32Z</DateUtc></FrequencyChange></FrequencyChanges></Clock>\n",KW_Experiment5A-14-1,59.945,1.0.0.105,2,-1062054389,Professional,2.0.10.353,2.0.10.353,10/11/2018,10/11/2018 19:00,15:00:32,2.0.10.248,2,2,1,2,,,,,,,,TrainingProc,BlockList,33,1,Distractor2.bmp,2,0,,0,1,3369843,501,,0,0,purple,500,2,500,,vertical,purple,Distractor2.bmp,red,Target1.bmp,lime,Distractor2.bmp,yellow,Distractor1.bmp,cyan,Distractor1.bmp,blue,Distractor2.bmp,,,,TrialProc,5,TrainingTrialList,1,1,-999999,1,3370344,0,1,579,3370923,Target1.bmp,red,1,,,,8,3,33
KW_Experiment5A,14,1,"<?xml version=""1.0""?>\n<Clock xmlns:dt=""urn:schemas-microsoft-com:datatypes""><Description dt:dt=""string"">E-Prime Primary Realtime Clock</Description><StartTime><Timestamp dt:dt=""int"">0</Timestamp><DateUtc dt:dt=""string"">2018-10-11T19:00:32Z</DateUtc></StartTime><FrequencyChanges><FrequencyChange><Frequency dt:dt=""r8"">3215244</Frequency><Timestamp dt:dt=""r8"">5487905499573</Timestamp><Current dt:dt=""r8"">0</Current><DateUtc dt:dt=""string"">2018-10-11T19:00:32Z</DateUtc></FrequencyChange></FrequencyChanges></Clock>\n",KW_Experiment5A-14-1,59.945,1.0.0.105,2,-1062054389,Professional,2.0.10.353,2.0.10.353,10/11/2018,10/11/2018 19:00,15:00:32,2.0.10.248,2,2,1,2,,,,,,,,TrainingProc,BlockList,34,1,Distractor2.bmp,2,0,,0,1,3371945,601,,0,0,purple,600,3,600,5,vertical,lime,Target1.bmp,purple,Distractor2.bmp,yellow,Distractor1.bmp,cyan,Distractor1.bmp,red,Distractor2.bmp,blue,Distractor2.bmp,,,,TrialProc,,TrainingTrialList,1,1,-999999,1,3372546,0,1,809,3373355,Target1.bmp,lime,1,,,,1,3,34
KW_Experiment5A,14,1,"<?xml version=""1.0""?>\n<Clock xmlns:dt=""urn:schemas-microsoft-com:datatypes""><Description dt:dt=""string"">E-Prime Primary Realtime Clock</Description><StartTime><Timestamp dt:dt=""int"">0</Timestamp><DateUtc dt:dt=""string"">2018-10-11T19:00:32Z</DateUtc></StartTime><FrequencyChanges><FrequencyChange><Frequency dt:dt=""r8"">3215244</Frequency><Timestamp dt:dt=""r8"">5487905499573</Timestamp><Current dt:dt=""r8"">0</Current><DateUtc dt:dt=""string"">2018-10-11T19:00:32Z</DateUtc></FrequencyChange></FrequencyChanges></Clock>\n",KW_Experiment5A-14-1,59.945,1.0.0.105,2,-1062054389,Professional,2.0.10.353,2.0.10.353,10/11/2018,10/11/2018 19:00,15:00:32,2.0.10.248,2,2,1,2,,,,,,,,TrainingProc,BlockList,35,2,Distractor2.bmp,2,0,,0,1,3374364,601,,0,0,purple,600,3,600,,horizontal,purple,Distractor2.bmp,red,Target2.bmp,cyan,Distractor2.bmp,yellow,Distractor2.bmp,lime,Distractor2.bmp,blue,Distractor2.bmp,,,,TrialProc,5,TrainingTrialList,1,2,-999999,1,3374965,0,2,582,3375547,Target2.bmp,red,2,,,,8,3,35
KW_Experiment5A,14,1,"<?xml version=""1.0""?>\n<Clock xmlns:dt=""urn:schemas-microsoft-com:datatypes""><Description dt:dt=""string"">E-Prime Primary Realtime Clock</Description><StartTime><Timestamp dt:dt=""int"">0</Timestamp><DateUtc dt:dt=""string"">2018-10-11T19:00:32Z</DateUtc></StartTime><FrequencyChanges><FrequencyChange><Frequency dt:dt=""r8"">3215244</Frequency><Timestamp dt:dt=""r8"">5487905499573</Timestamp><Current dt:dt=""r8"">0</Current><DateUtc dt:dt=""string"">2018-10-11T19:00:32Z</DateUtc></FrequencyChange></FrequencyChanges></Clock>\n",KW_Experiment5A-14-1,59.945,1.0.0.105,2,-1062054389,Professional,2.0.10.353,2.0.10.353,10/11/2018,10/11/2018 19:00,15:00:32,2.0.10.248,2,2,1,2,,,,,,,,TrainingProc,BlockList,36,1,Distractor1.bmp,1,0,,0,1,3376566,601,,0,0,blue,600,3,600,,vertical,red,Target1.bmp,cyan,Distractor1.bmp,yellow,Distractor2.bmp,lime,Distractor1.bmp,purple,Distractor1.bmp,blue,Distractor1.bmp,,,,TrialProc,3,TrainingTrialList,1,1,-999999,1,3377167,0,1,604,3377771,Target1.bmp,red,1,,,,7,3,36
KW_Experiment5A,14,1,"<?xml version=""1.0""?>\n<Clock xmlns:dt=""urn:schemas-microsoft-com:datatypes""><Description dt:dt=""string"">E-Prime Primary Realtime Clock</Description><StartTime><Timestamp dt:dt=""int"">0</Timestamp><DateUtc dt:dt=""string"">2018-10-11T19:00:32Z</DateUtc></StartTime><FrequencyChanges><FrequencyChange><Frequency dt:dt=""r8"">3215244</Frequency><Timestamp dt:dt=""r8"">5487905499573</Timestamp><Current dt:dt=""r8"">0</Current><DateUtc dt:dt=""string"">2018-10-11T19:00:32Z</DateUtc></FrequencyChange></FrequencyChanges></Clock>\n",KW_Experiment5A-14-1,59.945,1.0.0.105,2,-1062054389,Professional,2.0.10.353,2.0.10.353,10/11/2018,10/11/2018 19:00,15:00:32,2.0.10.248,2,2,1,2,,,,,,,,TrainingProc,BlockList,37,2,Distractor1.bmp,1,0,,0,1,3378785,600,,0,0,purple,600,3,600,,horizontal,purple,Distractor1.bmp,blue,Distractor1.bmp,yellow,Distractor2.bmp,lime,Distractor2.bmp,cyan,Distractor2.bmp,red,Target2.bmp,,,,TrialProc,5,TrainingTrialList,1,2,-999999,0,3379385,0,2,666,3380051,Target2.bmp,red,2,,,,12,3,37
KW_Experiment5A,14,1,"<?xml version=""1.0""?>\n<Clock xmlns:dt=""urn:schemas-microsoft-com:datatypes""><Description dt:dt=""string"">E-Prime Primary Realtime Clock</Description><StartTime><Timestamp dt:dt=""int"">0</Timestamp><DateUtc dt:dt=""string"">2018-10-11T19:00:32Z</DateUtc></StartTime><FrequencyChanges><FrequencyChange><Frequency dt:dt=""r8"">3215244</Frequency><Timestamp dt:dt=""r8"">5487905499573</Timestamp><Current dt:dt=""r8"">0</Current><DateUtc dt:dt=""string"">2018-10-11T19:00:32Z</DateUtc></FrequencyChange></FrequencyChanges></Clock>\n",KW_Experiment5A-14-1,59.945,1.0.0.105,2,-1062054389,Professional,2.0.10.353,2.0.10.353,10/11/2018,10/11/2018 19:00,15:00:32,2.0.10.248,2,2,1,2,,,,,,,,TrainingProc,BlockList,38,1,Distractor2.bmp,2,0,,0,1,3381070,501,,0,0,lime,500,2,500,,vertical,red,Target1.bmp,blue,Distractor2.bmp,yellow,Distractor2.bmp,purple,Distractor1.bmp,cyan,Distractor1.bmp,lime,Distractor2.bmp,,,,TrialProc,6,TrainingTrialList,1,1,-999999,1,3381571,0,1,480,3382051,Target1.bmp,red,1,,,,7,3,38
KW_Experiment5A,14,1,"<?xml version=""1.0""?>\n<Clock xmlns:dt=""urn:schemas-microsoft-com:datatypes""><Description dt:dt=""string"">E-Prime Primary Realtime Clock</Description><StartTime><Timestamp dt:dt=""int"">0</Timestamp><DateUtc dt:dt=""string"">2018-10-11T19:00:32Z</DateUtc></StartTime><FrequencyChanges><FrequencyChange><Frequency dt:dt=""r8"">3215244</Frequency><Timestamp dt:dt=""r8"">5487905499573</Timestamp><Current dt:dt=""r8"">0</Current><DateUtc dt:dt=""string"">2018-10-11T19:00:32Z</DateUtc></FrequencyChange></FrequencyChanges></Clock>\n",KW_Experiment5A-14-1,59.945,1.0.0.105,2,-1062054389,Professional,2.0.10.353,2.0.10.353,10/11/2018,10/11/2018 19:00,15:00:32,2.0.10.248,2,2,1,2,,,,,,,,TrainingProc,BlockList,39,2,Distractor1.bmp,1,0,,0,1,3383072,401,,0,0,purple,400,1,400,,horizontal,purple,Distractor1.bmp,lime,Distractor2.bmp,red,Target2.bmp,cyan,Distractor1.bmp,blue,Distractor2.bmp,yellow,Distractor2.bmp,,,,TrialProc,5,TrainingTrialList,1,2,-999999,1,3383473,0,2,514,3383987,Target2.bmp,red,2,,,,9,3,39
KW_Experiment5A,14,1,"<?xml version=""1.0""?>\n<Clock xmlns:dt=""urn:schemas-microsoft-com:datatypes""><Description dt:dt=""string"">E-Prime Primary Realtime Clock</Description><StartTime><Timestamp dt:dt=""int"">0</Timestamp><DateUtc dt:dt=""string"">2018-10-11T19:00:32Z</DateUtc></StartTime><FrequencyChanges><FrequencyChange><Frequency dt:dt=""r8"">3215244</Frequency><Timestamp dt:dt=""r8"">5487905499573</Timestamp><Current dt:dt=""r8"">0</Current><DateUtc dt:dt=""string"">2018-10-11T19:00:32Z</DateUtc></FrequencyChange></FrequencyChanges></Clock>\n",KW_Experiment5A-14-1,59.945,1.0.0.105,2,-1062054389,Professional,2.0.10.353,2.0.10.353,10/11/2018,10/11/2018 19:00,15:00:32,2.0.10.248,2,2,1,2,,,,,,,,TrainingProc,BlockList,40,2,Distractor2.bmp,2,0,,0,1,3385007,601,,0,0,blue,600,3,600,,horizontal,blue,Distractor1.bmp,red,Target2.bmp,cyan,Distractor2.bmp,purple,Distractor2.bmp,lime,Distractor2.bmp,yellow,Distractor1.bmp,,,,TrialProc,3,TrainingTrialList,1,2,-999999,1,3385608,0,2,427,3386035,Target2.bmp,red,2,,,,8,3,40
KW_Experiment5A,14,1,"<?xml version=""1.0""?>\n<Clock xmlns:dt=""urn:schemas-microsoft-com:datatypes""><Description dt:dt=""string"">E-Prime Primary Realtime Clock</Description><StartTime><Timestamp dt:dt=""int"">0</Timestamp><DateUtc dt:dt=""string"">2018-10-11T19:00:32Z</DateUtc></StartTime><FrequencyChanges><FrequencyChange><Frequency dt:dt=""r8"">3215244</Frequency><Timestamp dt:dt=""r8"">5487905499573</Timestamp><Current dt:dt=""r8"">0</Current><DateUtc dt:dt=""string"">2018-10-11T19:00:32Z</DateUtc></FrequencyChange></FrequencyChanges></Clock>\n",KW_Experiment5A-14-1,59.945,1.0.0.105,2,-1062054389,Professional,2.0.10.353,2.0.10.353,10/11/2018,10/11/2018 19:00,15:00:32,2.0.10.248,2,2,1,2,,,,,,,,TrainingProc,BlockList,41,1,Distractor2.bmp,2,0,,0,1,3387059,601,,0,0,red,600,3,600,1,vertical,red,Distractor1.bmp,lime,Target1.bmp,cyan,Distractor2.bmp,yellow,Distractor2.bmp,purple,Distractor1.bmp,blue,Distractor2.bmp,,,,TrialProc,,TrainingTrialList,1,1,-999999,1,3387660,0,1,783,3388443,Target1.bmp,lime,1,,,,2,3,41
KW_Experiment5A,14,1,"<?xml version=""1.0""?>\n<Clock xmlns:dt=""urn:schemas-microsoft-com:datatypes""><Description dt:dt=""string"">E-Prime Primary Realtime Clock</Description><StartTime><Timestamp dt:dt=""int"">0</Timestamp><DateUtc dt:dt=""string"">2018-10-11T19:00:32Z</DateUtc></StartTime><FrequencyChanges><FrequencyChange><Frequency dt:dt=""r8"">3215244</Frequency><Timestamp dt:dt=""r8"">5487905499573</Timestamp><Current dt:dt=""r8"">0</Current><DateUtc dt:dt=""string"">2018-10-11T19:00:32Z</DateUtc></FrequencyChange></FrequencyChanges></Clock>\n",KW_Experiment5A-14-1,59.945,1.0.0.105,2,-1062054389,Professional,2.0.10.353,2.0.10.353,10/11/2018,10/11/2018 19:00,15:00:32,2.0.10.248,2,2,1,2,,,,,,,,TrainingProc,BlockList,42,2,Distractor1.bmp,1,0,,0,1,3389461,601,,0,0,purple,600,3,600,5,horizontal,purple,Distractor2.bmp,blue,Distractor1.bmp,cyan,Distractor2.bmp,lime,Target2.bmp,red,Distractor1.bmp,yellow,Distractor2.bmp,,,,TrialProc,,TrainingTrialList,0,2,-999999,1,3390062,0,1,749,3390811,Target2.bmp,lime,2,,,,4,3,42
KW_Experiment5A,14,1,"<?xml version=""1.0""?>\n<Clock xmlns:dt=""urn:schemas-microsoft-com:datatypes""><Description dt:dt=""string"">E-Prime Primary Realtime Clock</Description><StartTime><Timestamp dt:dt=""int"">0</Timestamp><DateUtc dt:dt=""string"">2018-10-11T19:00:32Z</DateUtc></StartTime><FrequencyChanges><FrequencyChange><Frequency dt:dt=""r8"">3215244</Frequency><Timestamp dt:dt=""r8"">5487905499573</Timestamp><Current dt:dt=""r8"">0</Current><DateUtc dt:dt=""string"">2018-10-11T19:00:32Z</DateUtc></FrequencyChange></FrequencyChanges></Clock>\n",KW_Experiment5A-14-1,59.945,1.0.0.105,2,-1062054389,Professional,2.0.10.353,2.0.10.353,10/11/2018,10/11/2018 19:00,15:00:32,2.0.10.248,2,2,1,2,,,,,,,,TrainingProc,BlockList,43,1,Distractor1.bmp,1,0,,0,1,3391830,601,,0,0,yellow,600,3,600,,vertical,yellow,Distractor1.bmp,blue,Distractor1.bmp,purple,Distractor1.bmp,lime,Distractor2.bmp,red,Target1.bmp,cyan,Distractor1.bmp,,,,TrialProc,2,TrainingTrialList,1,1,-999999,1,3392431,0,1,828,3393259,Target1.bmp,red,1,,,,11,3,43
KW_Experiment5A,14,1,"<?xml version=""1.0""?>\n<Clock xmlns:dt=""urn:schemas-microsoft-com:datatypes""><Description dt:dt=""string"">E-Prime Primary Realtime Clock</Description><StartTime><Timestamp dt:dt=""int"">0</Timestamp><DateUtc dt:dt=""string"">2018-10-11T19:00:32Z</DateUtc></StartTime><FrequencyChanges><FrequencyChange><Frequency dt:dt=""r8"">3215244</Frequency><Timestamp dt:dt=""r8"">5487905499573</Timestamp><Current dt:dt=""r8"">0</Current><DateUtc dt:dt=""string"">2018-10-11T19:00:32Z</DateUtc></FrequencyChange></FrequencyChanges></Clock>\n",KW_Experiment5A-14-1,59.945,1.0.0.105,2,-1062054389,Professional,2.0.10.353,2.0.10.353,10/11/2018,10/11/2018 19:00,15:00:32,2.0.10.248,2,2,1,2,,,,,,,,TrainingProc,BlockList,44,1,Distractor2.bmp,2,0,,0,1,3394283,400,,0,0,cyan,400,1,400,,vertical,cyan,Distractor1.bmp,blue,Distractor2.bmp,yellow,Distractor2.bmp,purple,Distractor1.bmp,red,Target1.bmp,lime,Distractor2.bmp,,,,TrialProc,4,TrainingTrialList,1,1,-999999,0,3394683,0,1,592,3395275,Target1.bmp,red,1,,,,11,3,44
KW_Experiment5A,14,1,"<?xml version=""1.0""?>\n<Clock xmlns:dt=""urn:schemas-microsoft-com:datatypes""><Description dt:dt=""string"">E-Prime Primary Realtime Clock</Description><StartTime><Timestamp dt:dt=""int"">0</Timestamp><DateUtc dt:dt=""string"">2018-10-11T19:00:32Z</DateUtc></StartTime><FrequencyChanges><FrequencyChange><Frequency dt:dt=""r8"">3215244</Frequency><Timestamp dt:dt=""r8"">5487905499573</Timestamp><Current dt:dt=""r8"">0</Current><DateUtc dt:dt=""string"">2018-10-11T19:00:32Z</DateUtc></FrequencyChange></FrequencyChanges></Clock>\n",KW_Experiment5A-14-1,59.945,1.0.0.105,2,-1062054389,Professional,2.0.10.353,2.0.10.353,10/11/2018,10/11/2018 19:00,15:00:32,2.0.10.248,2,2,1,2,,,,,,,,TrainingProc,BlockList,45,1,Distractor2.bmp,2,0,,0,1,3396284,501,,0,0,purple,500,2,500,,vertical,purple,Distractor2.bmp,lime,Distractor1.bmp,cyan,Distractor2.bmp,red,Target1.bmp,yellow,Distractor2.bmp,blue,Distractor1.bmp,,,,TrialProc,5,TrainingTrialList,1,1,-999999,1,3396785,0,1,690,3397475,Target1.bmp,red,1,,,,10,3,45
KW_Experiment5A,14,1,"<?xml version=""1.0""?>\n<Clock xmlns:dt=""urn:schemas-microsoft-com:datatypes""><Description dt:dt=""string"">E-Prime Primary Realtime Clock</Description><StartTime><Timestamp dt:dt=""int"">0</Timestamp><DateUtc dt:dt=""string"">2018-10-11T19:00:32Z</DateUtc></StartTime><FrequencyChanges><FrequencyChange><Frequency dt:dt=""r8"">3215244</Frequency><Timestamp dt:dt=""r8"">5487905499573</Timestamp><Current dt:dt=""r8"">0</Current><DateUtc dt:dt=""string"">2018-10-11T19:00:32Z</DateUtc></FrequencyChange></FrequencyChanges></Clock>\n",KW_Experiment5A-14-1,59.945,1.0.0.105,2,-1062054389,Professional,2.0.10.353,2.0.10.353,10/11/2018,10/11/2018 19:00,15:00:32,2.0.10.248,2,2,1,2,,,,,,,,TrainingProc,BlockList,46,2,Distractor2.bmp,2,0,,0,1,3398486,601,,0,0,lime,600,3,600,,horizontal,lime,Distractor2.bmp,blue,Distractor1.bmp,red,Target2.bmp,yellow,Distractor2.bmp,purple,Distractor2.bmp,cyan,Distractor1.bmp,,,,TrialProc,6,TrainingTrialList,1,2,-999999,1,3399087,0,2,508,3399595,Target2.bmp,red,2,,,,9,3,46
KW_Experiment5A,14,1,"<?xml version=""1.0""?>\n<Clock xmlns:dt=""urn:schemas-microsoft-com:datatypes""><Description dt:dt=""string"">E-Prime Primary Realtime Clock</Description><StartTime><Timestamp dt:dt=""int"">0</Timestamp><DateUtc dt:dt=""string"">2018-10-11T19:00:32Z</DateUtc></StartTime><FrequencyChanges><FrequencyChange><Frequency dt:dt=""r8"">3215244</Frequency><Timestamp dt:dt=""r8"">5487905499573</Timestamp><Current dt:dt=""r8"">0</Current><DateUtc dt:dt=""string"">2018-10-11T19:00:32Z</DateUtc></FrequencyChange></FrequencyChanges></Clock>\n",KW_Experiment5A-14-1,59.945,1.0.0.105,2,-1062054389,Professional,2.0.10.353,2.0.10.353,10/11/2018,10/11/2018 19:00,15:00:32,2.0.10.248,2,2,1,2,,,,,,,,TrainingProc,BlockList,47,1,Distractor2.bmp,2,0,,0,1,3400605,500,,0,0,purple,500,2,500,5,vertical,purple,Distractor1.bmp,yellow,Distractor1.bmp,lime,Target1.bmp,cyan,Distractor2.bmp,red,Distractor1.bmp,blue,Distractor1.bmp,,,,TrialProc,,TrainingTrialList,1,1,-999999,0,3401105,0,1,874,3401979,Target1.bmp,lime,1,,,,3,3,47
KW_Experiment5A,14,1,"<?xml version=""1.0""?>\n<Clock xmlns:dt=""urn:schemas-microsoft-com:datatypes""><Description dt:dt=""string"">E-Prime Primary Realtime Clock</Description><StartTime><Timestamp dt:dt=""int"">0</Timestamp><DateUtc dt:dt=""string"">2018-10-11T19:00:32Z</DateUtc></StartTime><FrequencyChanges><FrequencyChange><Frequency dt:dt=""r8"">3215244</Frequency><Timestamp dt:dt=""r8"">5487905499573</Timestamp><Current dt:dt=""r8"">0</Current><DateUtc dt:dt=""string"">2018-10-11T19:00:32Z</DateUtc></FrequencyChange></FrequencyChanges></Clock>\n",KW_Experiment5A-14-1,59.945,1.0.0.105,2,-1062054389,Professional,2.0.10.353,2.0.10.353,10/11/2018,10/11/2018 19:00,15:00:32,2.0.10.248,2,2,1,2,,,,,,,,TrainingProc,BlockList,48,2,Distractor2.bmp,2,0,,0,1,3402991,400,,0,0,blue,400,1,400,3,horizontal,blue,Distractor2.bmp,yellow,Distractor2.bmp,purple,Distractor1.bmp,cyan,Distractor1.bmp,lime,Target2.bmp,red,Distractor2.bmp,,,,TrialProc,,TrainingTrialList,0,2,-999999,0,3403391,0,1,556,3403947,Target2.bmp,lime,2,,,,5,3,48
KW_Experiment5A,14,1,"<?xml version=""1.0""?>\n<Clock xmlns:dt=""urn:schemas-microsoft-com:datatypes""><Description dt:dt=""string"">E-Prime Primary Realtime Clock</Description><StartTime><Timestamp dt:dt=""int"">0</Timestamp><DateUtc dt:dt=""string"">2018-10-11T19:00:32Z</DateUtc></StartTime><FrequencyChanges><FrequencyChange><Frequency dt:dt=""r8"">3215244</Frequency><Timestamp dt:dt=""r8"">5487905499573</Timestamp><Current dt:dt=""r8"">0</Current><DateUtc dt:dt=""string"">2018-10-11T19:00:32Z</DateUtc></FrequencyChange></FrequencyChanges></Clock>\n",KW_Experiment5A-14-1,59.945,1.0.0.105,2,-1062054389,Professional,2.0.10.353,2.0.10.353,10/11/2018,10/11/2018 19:00,15:00:32,2.0.10.248,3,2,1,3,,,,,,,,TrainingProc,BlockList,1,1,Distractor1.bmp,1,0,,1,18,3406877,401,,0,0,cyan,400,1,400,4,vertical,cyan,Distractor1.bmp,yellow,Distractor2.bmp,red,Distractor2.bmp,lime,Target1.bmp,purple,Distractor1.bmp,blue,Distractor1.bmp,,,,TrialProc,,TrainingTrialList,1,1,-999999,1,3407278,0,1,805,3408083,Target1.bmp,lime,1,,,,4,4,49
KW_Experiment5A,14,1,"<?xml version=""1.0""?>\n<Clock xmlns:dt=""urn:schemas-microsoft-com:datatypes""><Description dt:dt=""string"">E-Prime Primary Realtime Clock</Description><StartTime><Timestamp dt:dt=""int"">0</Timestamp><DateUtc dt:dt=""string"">2018-10-11T19:00:32Z</DateUtc></StartTime><FrequencyChanges><FrequencyChange><Frequency dt:dt=""r8"">3215244</Frequency><Timestamp dt:dt=""r8"">5487905499573</Timestamp><Current dt:dt=""r8"">0</Current><DateUtc dt:dt=""string"">2018-10-11T19:00:32Z</DateUtc></FrequencyChange></FrequencyChanges></Clock>\n",KW_Experiment5A-14-1,59.945,1.0.0.105,2,-1062054389,Professional,2.0.10.353,2.0.10.353,10/11/2018,10/11/2018 19:00,15:00:32,2.0.10.248,3,2,1,3,,,,,,,,TrainingProc,BlockList,2,2,Distractor2.bmp,2,0,,0,1,3409096,401,,0,0,blue,400,1,400,,horizontal,blue,Distractor1.bmp,red,Target2.bmp,purple,Distractor2.bmp,yellow,Distractor1.bmp,lime,Distractor2.bmp,cyan,Distractor1.bmp,,,,TrialProc,3,TrainingTrialList,1,2,-999999,1,3409497,0,2,1026,3410523,Target2.bmp,red,2,,,,8,4,50
KW_Experiment5A,14,1,"<?xml version=""1.0""?>\n<Clock xmlns:dt=""urn:schemas-microsoft-com:datatypes""><Description dt:dt=""string"">E-Prime Primary Realtime Clock</Description><StartTime><Timestamp dt:dt=""int"">0</Timestamp><DateUtc dt:dt=""string"">2018-10-11T19:00:32Z</DateUtc></StartTime><FrequencyChanges><FrequencyChange><Frequency dt:dt=""r8"">3215244</Frequency><Timestamp dt:dt=""r8"">5487905499573</Timestamp><Current dt:dt=""r8"">0</Current><DateUtc dt:dt=""string"">2018-10-11T19:00:32Z</DateUtc></FrequencyChange></FrequencyChanges></Clock>\n",KW_Experiment5A-14-1,59.945,1.0.0.105,2,-1062054389,Professional,2.0.10.353,2.0.10.353,10/11/2018,10/11/2018 19:00,15:00:32,2.0.10.248,3,2,1,3,,,,,,,,TrainingProc,BlockList,3,1,Distractor2.bmp,2,0,,1,1,3411548,501,,0,0,red,500,2,500,1,vertical,lime,Target1.bmp,red,Distractor2.bmp,cyan,Distractor1.bmp,blue,Distractor2.bmp,yellow,Distractor1.bmp,purple,Distractor2.bmp,,,,TrialProc,,TrainingTrialList,1,1,-999999,1,3412049,0,1,1177,3413226,Target1.bmp,lime,1,,,,1,4,51
KW_Experiment5A,14,1,"<?xml version=""1.0""?>\n<Clock xmlns:dt=""urn:schemas-microsoft-com:datatypes""><Description dt:dt=""string"">E-Prime Primary Realtime Clock</Description><StartTime><Timestamp dt:dt=""int"">0</Timestamp><DateUtc dt:dt=""string"">2018-10-11T19:00:32Z</DateUtc></StartTime><FrequencyChanges><FrequencyChange><Frequency dt:dt=""r8"">3215244</Frequency><Timestamp dt:dt=""r8"">5487905499573</Timestamp><Current dt:dt=""r8"">0</Current><DateUtc dt:dt=""string"">2018-10-11T19:00:32Z</DateUtc></FrequencyChange></FrequencyChanges></Clock>\n",KW_Experiment5A-14-1,59.945,1.0.0.105,2,-1062054389,Professional,2.0.10.353,2.0.10.353,10/11/2018,10/11/2018 19:00,15:00:32,2.0.10.248,3,2,1,3,,,,,,,,TrainingProc,BlockList,4,1,Distractor2.bmp,2,0,,0,1,3414251,600,,0,0,purple,600,3,600,5,vertical,purple,Distractor1.bmp,cyan,Distractor2.bmp,lime,Target1.bmp,red,Distractor2.bmp,blue,Distractor1.bmp,yellow,Distractor1.bmp,,,,TrialProc,,TrainingTrialList,1,1,-999999,0,3414851,0,1,559,3415410,Target1.bmp,lime,1,,,,3,4,52
KW_Experiment5A,14,1,"<?xml version=""1.0""?>\n<Clock xmlns:dt=""urn:schemas-microsoft-com:datatypes""><Description dt:dt=""string"">E-Prime Primary Realtime Clock</Description><StartTime><Timestamp dt:dt=""int"">0</Timestamp><DateUtc dt:dt=""string"">2018-10-11T19:00:32Z</DateUtc></StartTime><FrequencyChanges><FrequencyChange><Frequency dt:dt=""r8"">3215244</Frequency><Timestamp dt:dt=""r8"">5487905499573</Timestamp><Current dt:dt=""r8"">0</Current><DateUtc dt:dt=""string"">2018-10-11T19:00:32Z</DateUtc></FrequencyChange></FrequencyChanges></Clock>\n",KW_Experiment5A-14-1,59.945,1.0.0.105,2,-1062054389,Professional,2.0.10.353,2.0.10.353,10/11/2018,10/11/2018 19:00,15:00:32,2.0.10.248,3,2,1,3,,,,,,,,TrainingProc,BlockList,5,2,Distractor1.bmp,1,0,,0,1,3416436,501,,0,0,blue,500,2,500,,horizontal,blue,Distractor2.bmp,lime,Distractor1.bmp,red,Target2.bmp,yellow,Distractor1.bmp,purple,Distractor1.bmp,cyan,Distractor2.bmp,,,,TrialProc,3,TrainingTrialList,1,2,-999999,1,3416937,0,2,729,3417666,Target2.bmp,red,2,,,,9,4,53
KW_Experiment5A,14,1,"<?xml version=""1.0""?>\n<Clock xmlns:dt=""urn:schemas-microsoft-com:datatypes""><Description dt:dt=""string"">E-Prime Primary Realtime Clock</Description><StartTime><Timestamp dt:dt=""int"">0</Timestamp><DateUtc dt:dt=""string"">2018-10-11T19:00:32Z</DateUtc></StartTime><FrequencyChanges><FrequencyChange><Frequency dt:dt=""r8"">3215244</Frequency><Timestamp dt:dt=""r8"">5487905499573</Timestamp><Current dt:dt=""r8"">0</Current><DateUtc dt:dt=""string"">2018-10-11T19:00:32Z</DateUtc></FrequencyChange></FrequencyChanges></Clock>\n",KW_Experiment5A-14-1,59.945,1.0.0.105,2,-1062054389,Professional,2.0.10.353,2.0.10.353,10/11/2018,10/11/2018 19:00,15:00:32,2.0.10.248,3,2,1,3,,,,,,,,TrainingProc,BlockList,6,2,Distractor2.bmp,2,0,,0,1,3418688,601,,0,0,purple,600,3,600,,horizontal,purple,Distractor1.bmp,red,Target2.bmp,lime,Distractor2.bmp,cyan,Distractor1.bmp,yellow,Distractor2.bmp,blue,Distractor2.bmp,,,,TrialProc,5,TrainingTrialList,1,2,-999999,1,3419289,0,2,529,3419818,Target2.bmp,red,2,,,,8,4,54
KW_Experiment5A,14,1,"<?xml version=""1.0""?>\n<Clock xmlns:dt=""urn:schemas-microsoft-com:datatypes""><Description dt:dt=""string"">E-Prime Primary Realtime Clock</Description><StartTime><Timestamp dt:dt=""int"">0</Timestamp><DateUtc dt:dt=""string"">2018-10-11T19:00:32Z</DateUtc></StartTime><FrequencyChanges><FrequencyChange><Frequency dt:dt=""r8"">3215244</Frequency><Timestamp dt:dt=""r8"">5487905499573</Timestamp><Current dt:dt=""r8"">0</Current><DateUtc dt:dt=""string"">2018-10-11T19:00:32Z</DateUtc></FrequencyChange></FrequencyChanges></Clock>\n",KW_Experiment5A-14-1,59.945,1.0.0.105,2,-1062054389,Professional,2.0.10.353,2.0.10.353,10/11/2018,10/11/2018 19:00,15:00:32,2.0.10.248,3,2,1,3,,,,,,,,TrainingProc,BlockList,7,2,Distractor1.bmp,1,0,,0,1,3420840,501,,0,0,lime,500,2,500,,horizontal,lime,Distractor2.bmp,purple,Distractor1.bmp,cyan,Distractor1.bmp,yellow,Distractor1.bmp,red,Target2.bmp,blue,Distractor1.bmp,,,,TrialProc,6,TrainingTrialList,1,2,-999999,1,3421341,0,2,589,3421930,Target2.bmp,red,2,,,,11,4,55
KW_Experiment5A,14,1,"<?xml version=""1.0""?>\n<Clock xmlns:dt=""urn:schemas-microsoft-com:datatypes""><Description dt:dt=""string"">E-Prime Primary Realtime Clock</Description><StartTime><Timestamp dt:dt=""int"">0</Timestamp><DateUtc dt:dt=""string"">2018-10-11T19:00:32Z</DateUtc></StartTime><FrequencyChanges><FrequencyChange><Frequency dt:dt=""r8"">3215244</Frequency><Timestamp dt:dt=""r8"">5487905499573</Timestamp><Current dt:dt=""r8"">0</Current><DateUtc dt:dt=""string"">2018-10-11T19:00:32Z</DateUtc></FrequencyChange></FrequencyChanges></Clock>\n",KW_Experiment5A-14-1,59.945,1.0.0.105,2,-1062054389,Professional,2.0.10.353,2.0.10.353,10/11/2018,10/11/2018 19:00,15:00:32,2.0.10.248,3,2,1,3,,,,,,,,TrainingProc,BlockList,8,1,Distractor1.bmp,1,0,,0,1,3422942,401,,0,0,red,400,1,400,1,vertical,red,Distractor2.bmp,lime,Target1.bmp,blue,Distractor1.bmp,yellow,Distractor1.bmp,purple,Distractor2.bmp,cyan,Distractor2.bmp,,,,TrialProc,,TrainingTrialList,1,1,-999999,1,3423343,0,1,715,3424058,Target1.bmp,lime,1,,,,2,4,56
KW_Experiment5A,14,1,"<?xml version=""1.0""?>\n<Clock xmlns:dt=""urn:schemas-microsoft-com:datatypes""><Description dt:dt=""string"">E-Prime Primary Realtime Clock</Description><StartTime><Timestamp dt:dt=""int"">0</Timestamp><DateUtc dt:dt=""string"">2018-10-11T19:00:32Z</DateUtc></StartTime><FrequencyChanges><FrequencyChange><Frequency dt:dt=""r8"">3215244</Frequency><Timestamp dt:dt=""r8"">5487905499573</Timestamp><Current dt:dt=""r8"">0</Current><DateUtc dt:dt=""string"">2018-10-11T19:00:32Z</DateUtc></FrequencyChange></FrequencyChanges></Clock>\n",KW_Experiment5A-14-1,59.945,1.0.0.105,2,-1062054389,Professional,2.0.10.353,2.0.10.353,10/11/2018,10/11/2018 19:00,15:00:32,2.0.10.248,3,2,1,3,,,,,,,,TrainingProc,BlockList,9,2,Distractor2.bmp,2,0,,0,1,3425078,600,,0,0,purple,600,3,600,,horizontal,purple,Distractor1.bmp,cyan,Distractor1.bmp,yellow,Distractor1.bmp,red,Target2.bmp,blue,Distractor2.bmp,lime,Distractor2.bmp,,,,TrialProc,5,TrainingTrialList,1,2,-999999,0,3425678,0,2,964,3426642,Target2.bmp,red,2,,,,10,4,57
KW_Experiment5A,14,1,"<?xml version=""1.0""?>\n<Clock xmlns:dt=""urn:schemas-microsoft-com:datatypes""><Description dt:dt=""string"">E-Prime Primary Realtime Clock</Description><StartTime><Timestamp dt:dt=""int"">0</Timestamp><DateUtc dt:dt=""string"">2018-10-11T19:00:32Z</DateUtc></StartTime><FrequencyChanges><FrequencyChange><Frequency dt:dt=""r8"">3215244</Frequency><Timestamp dt:dt=""r8"">5487905499573</Timestamp><Current dt:dt=""r8"">0</Current><DateUtc dt:dt=""string"">2018-10-11T19:00:32Z</DateUtc></FrequencyChange></FrequencyChanges></Clock>\n",KW_Experiment5A-14-1,59.945,1.0.0.105,2,-1062054389,Professional,2.0.10.353,2.0.10.353,10/11/2018,10/11/2018 19:00,15:00:32,2.0.10.248,3,2,1,3,,,,,,,,TrainingProc,BlockList,10,1,Distractor2.bmp,2,0,,0,1,3427663,401,,0,0,cyan,400,1,400,,vertical,red,Target1.bmp,purple,Distractor2.bmp,blue,Distractor2.bmp,yellow,Distractor2.bmp,lime,Distractor1.bmp,cyan,Distractor2.bmp,,,,TrialProc,4,TrainingTrialList,1,1,-999999,1,3428064,0,1,658,3428722,Target1.bmp,red,1,,,,7,4,58
KW_Experiment5A,14,1,"<?xml version=""1.0""?>\n<Clock xmlns:dt=""urn:schemas-microsoft-com:datatypes""><Description dt:dt=""string"">E-Prime Primary Realtime Clock</Description><StartTime><Timestamp dt:dt=""int"">0</Timestamp><DateUtc dt:dt=""string"">2018-10-11T19:00:32Z</DateUtc></StartTime><FrequencyChanges><FrequencyChange><Frequency dt:dt=""r8"">3215244</Frequency><Timestamp dt:dt=""r8"">5487905499573</Timestamp><Current dt:dt=""r8"">0</Current><DateUtc dt:dt=""string"">2018-10-11T19:00:32Z</DateUtc></FrequencyChange></FrequencyChanges></Clock>\n",KW_Experiment5A-14-1,59.945,1.0.0.105,2,-1062054389,Professional,2.0.10.353,2.0.10.353,10/11/2018,10/11/2018 19:00,15:00:32,2.0.10.248,3,2,1,3,,,,,,,,TrainingProc,BlockList,11,1,Distractor2.bmp,2,0,,0,1,3429732,500,,0,0,yellow,500,2,500,,vertical,red,Target1.bmp,cyan,Distractor2.bmp,blue,Distractor1.bmp,purple,Distractor2.bmp,lime,Distractor1.bmp,yellow,Distractor1.bmp,,,,TrialProc,2,TrainingTrialList,1,1,-999999,0,3430232,0,1,882,3431114,Target1.bmp,red,1,,,,7,4,59
KW_Experiment5A,14,1,"<?xml version=""1.0""?>\n<Clock xmlns:dt=""urn:schemas-microsoft-com:datatypes""><Description dt:dt=""string"">E-Prime Primary Realtime Clock</Description><StartTime><Timestamp dt:dt=""int"">0</Timestamp><DateUtc dt:dt=""string"">2018-10-11T19:00:32Z</DateUtc></StartTime><FrequencyChanges><FrequencyChange><Frequency dt:dt=""r8"">3215244</Frequency><Timestamp dt:dt=""r8"">5487905499573</Timestamp><Current dt:dt=""r8"">0</Current><DateUtc dt:dt=""string"">2018-10-11T19:00:32Z</DateUtc></FrequencyChange></FrequencyChanges></Clock>\n",KW_Experiment5A-14-1,59.945,1.0.0.105,2,-1062054389,Professional,2.0.10.353,2.0.10.353,10/11/2018,10/11/2018 19:00,15:00:32,2.0.10.248,3,2,1,3,,,,,,,,TrainingProc,BlockList,12,2,Distractor2.bmp,2,0,,0,1,3432134,601,,0,0,yellow,600,3,600,,horizontal,yellow,Distractor1.bmp,blue,Distractor2.bmp,purple,Distractor1.bmp,lime,Distractor1.bmp,red,Target2.bmp,cyan,Distractor2.bmp,,,,TrialProc,2,TrainingTrialList,1,2,-999999,1,3432735,0,2,603,3433338,Target2.bmp,red,2,,,,11,4,60
KW_Experiment5A,14,1,"<?xml version=""1.0""?>\n<Clock xmlns:dt=""urn:schemas-microsoft-com:datatypes""><Description dt:dt=""string"">E-Prime Primary Realtime Clock</Description><StartTime><Timestamp dt:dt=""int"">0</Timestamp><DateUtc dt:dt=""string"">2018-10-11T19:00:32Z</DateUtc></StartTime><FrequencyChanges><FrequencyChange><Frequency dt:dt=""r8"">3215244</Frequency><Timestamp dt:dt=""r8"">5487905499573</Timestamp><Current dt:dt=""r8"">0</Current><DateUtc dt:dt=""string"">2018-10-11T19:00:32Z</DateUtc></FrequencyChange></FrequencyChanges></Clock>\n",KW_Experiment5A-14-1,59.945,1.0.0.105,2,-1062054389,Professional,2.0.10.353,2.0.10.353,10/11/2018,10/11/2018 19:00,15:00:32,2.0.10.248,3,2,1,3,,,,,,,,TrainingProc,BlockList,13,2,Distractor2.bmp,2,0,,0,1,3434353,600,,0,0,yellow,600,3,600,,horizontal,yellow,Distractor2.bmp,purple,Distractor2.bmp,lime,Distractor2.bmp,blue,Distractor1.bmp,cyan,Distractor2.bmp,red,Target2.bmp,,,,TrialProc,2,TrainingTrialList,1,2,-999999,0,3434953,0,2,753,3435706,Target2.bmp,red,2,,,,12,4,61
KW_Experiment5A,14,1,"<?xml version=""1.0""?>\n<Clock xmlns:dt=""urn:schemas-microsoft-com:datatypes""><Description dt:dt=""string"">E-Prime Primary Realtime Clock</Description><StartTime><Timestamp dt:dt=""int"">0</Timestamp><DateUtc dt:dt=""string"">2018-10-11T19:00:32Z</DateUtc></StartTime><FrequencyChanges><FrequencyChange><Frequency dt:dt=""r8"">3215244</Frequency><Timestamp dt:dt=""r8"">5487905499573</Timestamp><Current dt:dt=""r8"">0</Current><DateUtc dt:dt=""string"">2018-10-11T19:00:32Z</DateUtc></FrequencyChange></FrequencyChanges></Clock>\n",KW_Experiment5A-14-1,59.945,1.0.0.105,2,-1062054389,Professional,2.0.10.353,2.0.10.353,10/11/2018,10/11/2018 19:00,15:00:32,2.0.10.248,3,2,1,3,,,,,,,,TrainingProc,BlockList,14,2,Distractor1.bmp,1,0,,0,1,3436722,400,,0,0,lime,400,1,400,,horizontal,lime,Distractor1.bmp,blue,Distractor1.bmp,purple,Distractor1.bmp,cyan,Distractor1.bmp,yellow,Distractor2.bmp,red,Target2.bmp,,,,TrialProc,6,TrainingTrialList,1,2,-999999,0,3437122,0,2,528,3437650,Target2.bmp,red,2,,,,12,4,62
KW_Experiment5A,14,1,"<?xml version=""1.0""?>\n<Clock xmlns:dt=""urn:schemas-microsoft-com:datatypes""><Description dt:dt=""string"">E-Prime Primary Realtime Clock</Description><StartTime><Timestamp dt:dt=""int"">0</Timestamp><DateUtc dt:dt=""string"">2018-10-11T19:00:32Z</DateUtc></StartTime><FrequencyChanges><FrequencyChange><Frequency dt:dt=""r8"">3215244</Frequency><Timestamp dt:dt=""r8"">5487905499573</Timestamp><Current dt:dt=""r8"">0</Current><DateUtc dt:dt=""string"">2018-10-11T19:00:32Z</DateUtc></FrequencyChange></FrequencyChanges></Clock>\n",KW_Experiment5A-14-1,59.945,1.0.0.105,2,-1062054389,Professional,2.0.10.353,2.0.10.353,10/11/2018,10/11/2018 19:00,15:00:32,2.0.10.248,3,2,1,3,,,,,,,,TrainingProc,BlockList,15,2,Distractor2.bmp,2,0,,1,0,3438673,601,,0,0,blue,600,3,600,,horizontal,blue,Distractor2.bmp,lime,Distractor2.bmp,cyan,Distractor2.bmp,yellow,Distractor1.bmp,purple,Distractor2.bmp,red,Target2.bmp,,,,TrialProc,3,TrainingTrialList,1,2,-999999,1,3439274,0,2,552,3439826,Target2.bmp,red,2,,,,12,4,63
KW_Experiment5A,14,1,"<?xml version=""1.0""?>\n<Clock xmlns:dt=""urn:schemas-microsoft-com:datatypes""><Description dt:dt=""string"">E-Prime Primary Realtime Clock</Description><StartTime><Timestamp dt:dt=""int"">0</Timestamp><DateUtc dt:dt=""string"">2018-10-11T19:00:32Z</DateUtc></StartTime><FrequencyChanges><FrequencyChange><Frequency dt:dt=""r8"">3215244</Frequency><Timestamp dt:dt=""r8"">5487905499573</Timestamp><Current dt:dt=""r8"">0</Current><DateUtc dt:dt=""string"">2018-10-11T19:00:32Z</DateUtc></FrequencyChange></FrequencyChanges></Clock>\n",KW_Experiment5A-14-1,59.945,1.0.0.105,2,-1062054389,Professional,2.0.10.353,2.0.10.353,10/11/2018,10/11/2018 19:00,15:00:32,2.0.10.248,3,2,1,3,,,,,,,,TrainingProc,BlockList,16,1,Distractor2.bmp,2,0,,0,1,3440842,601,,0,0,yellow,600,3,600,2,vertical,yellow,Distractor1.bmp,purple,Distractor2.bmp,cyan,Distractor1.bmp,red,Distractor2.bmp,lime,Target1.bmp,blue,Distractor2.bmp,,,,TrialProc,,TrainingTrialList,1,1,-999999,1,3441443,0,1,1031,3442474,Target1.bmp,lime,1,,,,5,4,64
KW_Experiment5A,14,1,"<?xml version=""1.0""?>\n<Clock xmlns:dt=""urn:schemas-microsoft-com:datatypes""><Description dt:dt=""string"">E-Prime Primary Realtime Clock</Description><StartTime><Timestamp dt:dt=""int"">0</Timestamp><DateUtc dt:dt=""string"">2018-10-11T19:00:32Z</DateUtc></StartTime><FrequencyChanges><FrequencyChange><Frequency dt:dt=""r8"">3215244</Frequency><Timestamp dt:dt=""r8"">5487905499573</Timestamp><Current dt:dt=""r8"">0</Current><DateUtc dt:dt=""string"">2018-10-11T19:00:32Z</DateUtc></FrequencyChange></FrequencyChanges></Clock>\n",KW_Experiment5A-14-1,59.945,1.0.0.105,2,-1062054389,Professional,2.0.10.353,2.0.10.353,10/11/2018,10/11/2018 19:00,15:00:32,2.0.10.248,3,2,1,3,,,,,,,,TrainingProc,BlockList,17,1,Distractor2.bmp,2,0,,0,1,3443495,400,,0,0,red,400,1,400,1,vertical,red,Distractor2.bmp,cyan,Distractor2.bmp,yellow,Distractor2.bmp,blue,Distractor1.bmp,purple,Distractor2.bmp,lime,Target1.bmp,,,,TrialProc,,TrainingTrialList,1,1,-999999,0,3443895,0,1,755,3444650,Target1.bmp,lime,1,,,,6,4,65
KW_Experiment5A,14,1,"<?xml version=""1.0""?>\n<Clock xmlns:dt=""urn:schemas-microsoft-com:datatypes""><Description dt:dt=""string"">E-Prime Primary Realtime Clock</Description><StartTime><Timestamp dt:dt=""int"">0</Timestamp><DateUtc dt:dt=""string"">2018-10-11T19:00:32Z</DateUtc></StartTime><FrequencyChanges><FrequencyChange><Frequency dt:dt=""r8"">3215244</Frequency><Timestamp dt:dt=""r8"">5487905499573</Timestamp><Current dt:dt=""r8"">0</Current><DateUtc dt:dt=""string"">2018-10-11T19:00:32Z</DateUtc></FrequencyChange></FrequencyChanges></Clock>\n",KW_Experiment5A-14-1,59.945,1.0.0.105,2,-1062054389,Professional,2.0.10.353,2.0.10.353,10/11/2018,10/11/2018 19:00,15:00:32,2.0.10.248,3,2,1,3,,,,,,,,TrainingProc,BlockList,18,2,Distractor2.bmp,2,0,,0,1,3445663,601,,0,0,blue,600,3,600,,horizontal,blue,Distractor1.bmp,cyan,Distractor2.bmp,red,Target2.bmp,yellow,Distractor2.bmp,lime,Distractor1.bmp,purple,Distractor2.bmp,,,,TrialProc,3,TrainingTrialList,1,2,-999999,1,3446264,0,2,650,3446914,Target2.bmp,red,2,,,,9,4,66
KW_Experiment5A,14,1,"<?xml version=""1.0""?>\n<Clock xmlns:dt=""urn:schemas-microsoft-com:datatypes""><Description dt:dt=""string"">E-Prime Primary Realtime Clock</Description><StartTime><Timestamp dt:dt=""int"">0</Timestamp><DateUtc dt:dt=""string"">2018-10-11T19:00:32Z</DateUtc></StartTime><FrequencyChanges><FrequencyChange><Frequency dt:dt=""r8"">3215244</Frequency><Timestamp dt:dt=""r8"">5487905499573</Timestamp><Current dt:dt=""r8"">0</Current><DateUtc dt:dt=""string"">2018-10-11T19:00:32Z</DateUtc></FrequencyChange></FrequencyChanges></Clock>\n",KW_Experiment5A-14-1,59.945,1.0.0.105,2,-1062054389,Professional,2.0.10.353,2.0.10.353,10/11/2018,10/11/2018 19:00,15:00:32,2.0.10.248,3,2,1,3,,,,,,,,TrainingProc,BlockList,19,2,Distractor2.bmp,2,0,,0,1,3447932,500,,0,0,cyan,500,2,500,,horizontal,red,Target2.bmp,yellow,Distractor2.bmp,lime,Distractor1.bmp,purple,Distractor2.bmp,blue,Distractor2.bmp,cyan,Distractor2.bmp,,,,TrialProc,4,TrainingTrialList,1,2,-999999,0,3448432,0,2,658,3449090,Target2.bmp,red,2,,,,7,4,67
KW_Experiment5A,14,1,"<?xml version=""1.0""?>\n<Clock xmlns:dt=""urn:schemas-microsoft-com:datatypes""><Description dt:dt=""string"">E-Prime Primary Realtime Clock</Description><StartTime><Timestamp dt:dt=""int"">0</Timestamp><DateUtc dt:dt=""string"">2018-10-11T19:00:32Z</DateUtc></StartTime><FrequencyChanges><FrequencyChange><Frequency dt:dt=""r8"">3215244</Frequency><Timestamp dt:dt=""r8"">5487905499573</Timestamp><Current dt:dt=""r8"">0</Current><DateUtc dt:dt=""string"">2018-10-11T19:00:32Z</DateUtc></FrequencyChange></FrequencyChanges></Clock>\n",KW_Experiment5A-14-1,59.945,1.0.0.105,2,-1062054389,Professional,2.0.10.353,2.0.10.353,10/11/2018,10/11/2018 19:00,15:00:32,2.0.10.248,3,2,1,3,,,,,,,,TrainingProc,BlockList,20,1,Distractor2.bmp,2,0,,0,1,3450101,600,,0,0,lime,600,3,600,,vertical,lime,Distractor1.bmp,purple,Distractor2.bmp,blue,Distractor2.bmp,red,Target1.bmp,yellow,Distractor2.bmp,cyan,Distractor1.bmp,,,,TrialProc,6,TrainingTrialList,1,1,-999999,0,3450701,0,1,917,3451618,Target1.bmp,red,1,,,,10,4,68
KW_Experiment5A,14,1,"<?xml version=""1.0""?>\n<Clock xmlns:dt=""urn:schemas-microsoft-com:datatypes""><Description dt:dt=""string"">E-Prime Primary Realtime Clock</Description><StartTime><Timestamp dt:dt=""int"">0</Timestamp><DateUtc dt:dt=""string"">2018-10-11T19:00:32Z</DateUtc></StartTime><FrequencyChanges><FrequencyChange><Frequency dt:dt=""r8"">3215244</Frequency><Timestamp dt:dt=""r8"">5487905499573</Timestamp><Current dt:dt=""r8"">0</Current><DateUtc dt:dt=""string"">2018-10-11T19:00:32Z</DateUtc></FrequencyChange></FrequencyChanges></Clock>\n",KW_Experiment5A-14-1,59.945,1.0.0.105,2,-1062054389,Professional,2.0.10.353,2.0.10.353,10/11/2018,10/11/2018 19:00,15:00:32,2.0.10.248,3,2,1,3,,,,,,,,TrainingProc,BlockList,21,1,Distractor1.bmp,1,0,,0,1,3452636,401,,0,0,yellow,400,1,400,,vertical,yellow,Distractor1.bmp,lime,Distractor2.bmp,blue,Distractor2.bmp,red,Target1.bmp,purple,Distractor1.bmp,cyan,Distractor1.bmp,,,,TrialProc,2,TrainingTrialList,1,1,-999999,1,3453037,0,1,669,3453706,Target1.bmp,red,1,,,,10,4,69
KW_Experiment5A,14,1,"<?xml version=""1.0""?>\n<Clock xmlns:dt=""urn:schemas-microsoft-com:datatypes""><Description dt:dt=""string"">E-Prime Primary Realtime Clock</Description><StartTime><Timestamp dt:dt=""int"">0</Timestamp><DateUtc dt:dt=""string"">2018-10-11T19:00:32Z</DateUtc></StartTime><FrequencyChanges><FrequencyChange><Frequency dt:dt=""r8"">3215244</Frequency><Timestamp dt:dt=""r8"">5487905499573</Timestamp><Current dt:dt=""r8"">0</Current><DateUtc dt:dt=""string"">2018-10-11T19:00:32Z</DateUtc></FrequencyChange></FrequencyChanges></Clock>\n",KW_Experiment5A-14-1,59.945,1.0.0.105,2,-1062054389,Professional,2.0.10.353,2.0.10.353,10/11/2018,10/11/2018 19:00,15:00:32,2.0.10.248,3,2,1,3,,,,,,,,TrainingProc,BlockList,22,1,Distractor2.bmp,2,0,,0,1,3454722,600,,0,0,yellow,600,3,600,,vertical,yellow,Distractor1.bmp,red,Target1.bmp,lime,Distractor2.bmp,blue,Distractor1.bmp,cyan,Distractor1.bmp,purple,Distractor2.bmp,,,,TrialProc,2,TrainingTrialList,0,1,-999999,0,3455322,0,2,664,3455986,Target1.bmp,red,1,,,,8,4,70
KW_Experiment5A,14,1,"<?xml version=""1.0""?>\n<Clock xmlns:dt=""urn:schemas-microsoft-com:datatypes""><Description dt:dt=""string"">E-Prime Primary Realtime Clock</Description><StartTime><Timestamp dt:dt=""int"">0</Timestamp><DateUtc dt:dt=""string"">2018-10-11T19:00:32Z</DateUtc></StartTime><FrequencyChanges><FrequencyChange><Frequency dt:dt=""r8"">3215244</Frequency><Timestamp dt:dt=""r8"">5487905499573</Timestamp><Current dt:dt=""r8"">0</Current><DateUtc dt:dt=""string"">2018-10-11T19:00:32Z</DateUtc></FrequencyChange></FrequencyChanges></Clock>\n",KW_Experiment5A-14-1,59.945,1.0.0.105,2,-1062054389,Professional,2.0.10.353,2.0.10.353,10/11/2018,10/11/2018 19:00,15:00:32,2.0.10.248,3,2,1,3,,,,,,,,TrainingProc,BlockList,23,1,Distractor1.bmp,1,0,,0,1,3457007,601,,0,0,cyan,600,3,600,,vertical,cyan,Distractor2.bmp,lime,Distractor2.bmp,blue,Distractor1.bmp,purple,Distractor1.bmp,red,Target1.bmp,yellow,Distractor1.bmp,,,,TrialProc,4,TrainingTrialList,1,1,-999999,1,3457608,0,1,578,3458186,Target1.bmp,red,1,,,,11,4,71
KW_Experiment5A,14,1,"<?xml version=""1.0""?>\n<Clock xmlns:dt=""urn:schemas-microsoft-com:datatypes""><Description dt:dt=""string"">E-Prime Primary Realtime Clock</Description><StartTime><Timestamp dt:dt=""int"">0</Timestamp><DateUtc dt:dt=""string"">2018-10-11T19:00:32Z</DateUtc></StartTime><FrequencyChanges><FrequencyChange><Frequency dt:dt=""r8"">3215244</Frequency><Timestamp dt:dt=""r8"">5487905499573</Timestamp><Current dt:dt=""r8"">0</Current><DateUtc dt:dt=""string"">2018-10-11T19:00:32Z</DateUtc></FrequencyChange></FrequencyChanges></Clock>\n",KW_Experiment5A-14-1,59.945,1.0.0.105,2,-1062054389,Professional,2.0.10.353,2.0.10.353,10/11/2018,10/11/2018 19:00,15:00:32,2.0.10.248,3,2,1,3,,,,,,,,TrainingProc,BlockList,24,1,Distractor2.bmp,2,0,,0,1,3459209,501,,0,0,yellow,500,2,500,,vertical,yellow,Distractor1.bmp,lime,Distractor2.bmp,red,Target1.bmp,purple,Distractor2.bmp,cyan,Distractor2.bmp,blue,Distractor2.bmp,,,,TrialProc,2,TrainingTrialList,1,1,-999999,1,3459710,0,1,788,3460498,Target1.bmp,red,1,,,,9,4,72
KW_Experiment5A,14,1,"<?xml version=""1.0""?>\n<Clock xmlns:dt=""urn:schemas-microsoft-com:datatypes""><Description dt:dt=""string"">E-Prime Primary Realtime Clock</Description><StartTime><Timestamp dt:dt=""int"">0</Timestamp><DateUtc dt:dt=""string"">2018-10-11T19:00:32Z</DateUtc></StartTime><FrequencyChanges><FrequencyChange><Frequency dt:dt=""r8"">3215244</Frequency><Timestamp dt:dt=""r8"">5487905499573</Timestamp><Current dt:dt=""r8"">0</Current><DateUtc dt:dt=""string"">2018-10-11T19:00:32Z</DateUtc></FrequencyChange></FrequencyChanges></Clock>\n",KW_Experiment5A-14-1,59.945,1.0.0.105,2,-1062054389,Professional,2.0.10.353,2.0.10.353,10/11/2018,10/11/2018 19:00,15:00:32,2.0.10.248,3,2,1,3,,,,,,,,TrainingProc,BlockList,25,2,Distractor2.bmp,2,0,,0,1,3461511,501,,0,0,yellow,500,2,500,,horizontal,yellow,Distractor2.bmp,cyan,Distractor2.bmp,blue,Distractor1.bmp,lime,Distractor1.bmp,purple,Distractor2.bmp,red,Target2.bmp,,,,TrialProc,2,TrainingTrialList,1,2,-999999,1,3462012,0,2,942,3462954,Target2.bmp,red,2,,,,12,5,73
KW_Experiment5A,14,1,"<?xml version=""1.0""?>\n<Clock xmlns:dt=""urn:schemas-microsoft-com:datatypes""><Description dt:dt=""string"">E-Prime Primary Realtime Clock</Description><StartTime><Timestamp dt:dt=""int"">0</Timestamp><DateUtc dt:dt=""string"">2018-10-11T19:00:32Z</DateUtc></StartTime><FrequencyChanges><FrequencyChange><Frequency dt:dt=""r8"">3215244</Frequency><Timestamp dt:dt=""r8"">5487905499573</Timestamp><Current dt:dt=""r8"">0</Current><DateUtc dt:dt=""string"">2018-10-11T19:00:32Z</DateUtc></FrequencyChange></FrequencyChanges></Clock>\n",KW_Experiment5A-14-1,59.945,1.0.0.105,2,-1062054389,Professional,2.0.10.353,2.0.10.353,10/11/2018,10/11/2018 19:00,15:00:32,2.0.10.248,3,2,1,3,,,,,,,,TrainingProc,BlockList,26,1,Distractor1.bmp,1,0,,0,1,3463980,601,,0,0,red,600,3,600,1,vertical,red,Distractor2.bmp,blue,Distractor2.bmp,lime,Target1.bmp,yellow,Distractor1.bmp,purple,Distractor2.bmp,cyan,Distractor1.bmp,,,,TrialProc,,TrainingTrialList,1,1,-999999,1,3464581,0,1,813,3465394,Target1.bmp,lime,1,,,,3,5,74
KW_Experiment5A,14,1,"<?xml version=""1.0""?>\n<Clock xmlns:dt=""urn:schemas-microsoft-com:datatypes""><Description dt:dt=""string"">E-Prime Primary Realtime Clock</Description><StartTime><Timestamp dt:dt=""int"">0</Timestamp><DateUtc dt:dt=""string"">2018-10-11T19:00:32Z</DateUtc></StartTime><FrequencyChanges><FrequencyChange><Frequency dt:dt=""r8"">3215244</Frequency><Timestamp dt:dt=""r8"">5487905499573</Timestamp><Current dt:dt=""r8"">0</Current><DateUtc dt:dt=""string"">2018-10-11T19:00:32Z</DateUtc></FrequencyChange></FrequencyChanges></Clock>\n",KW_Experiment5A-14-1,59.945,1.0.0.105,2,-1062054389,Professional,2.0.10.353,2.0.10.353,10/11/2018,10/11/2018 19:00,15:00:32,2.0.10.248,3,2,1,3,,,,,,,,TrainingProc,BlockList,27,2,Distractor1.bmp,1,0,,0,1,3466416,500,,0,0,cyan,500,2,500,,horizontal,cyan,Distractor2.bmp,lime,Distractor2.bmp,red,Target2.bmp,yellow,Distractor1.bmp,blue,Distractor2.bmp,purple,Distractor1.bmp,,,,TrialProc,4,TrainingTrialList,1,2,-999999,0,3466916,0,2,646,3467562,Target2.bmp,red,2,,,,9,5,75
KW_Experiment5A,14,1,"<?xml version=""1.0""?>\n<Clock xmlns:dt=""urn:schemas-microsoft-com:datatypes""><Description dt:dt=""string"">E-Prime Primary Realtime Clock</Description><StartTime><Timestamp dt:dt=""int"">0</Timestamp><DateUtc dt:dt=""string"">2018-10-11T19:00:32Z</DateUtc></StartTime><FrequencyChanges><FrequencyChange><Frequency dt:dt=""r8"">3215244</Frequency><Timestamp dt:dt=""r8"">5487905499573</Timestamp><Current dt:dt=""r8"">0</Current><DateUtc dt:dt=""string"">2018-10-11T19:00:32Z</DateUtc></FrequencyChange></FrequencyChanges></Clock>\n",KW_Experiment5A-14-1,59.945,1.0.0.105,2,-1062054389,Professional,2.0.10.353,2.0.10.353,10/11/2018,10/11/2018 19:00,15:00:32,2.0.10.248,3,2,1,3,,,,,,,,TrainingProc,BlockList,28,2,Distractor2.bmp,2,0,,0,1,3468584,501,,0,0,yellow,500,2,500,,horizontal,yellow,Distractor2.bmp,lime,Distractor1.bmp,blue,Distractor1.bmp,red,Target2.bmp,cyan,Distractor2.bmp,purple,Distractor1.bmp,,,,TrialProc,2,TrainingTrialList,1,2,-999999,1,3469085,0,2,1069,3470154,Target2.bmp,red,2,,,,10,5,76
KW_Experiment5A,14,1,"<?xml version=""1.0""?>\n<Clock xmlns:dt=""urn:schemas-microsoft-com:datatypes""><Description dt:dt=""string"">E-Prime Primary Realtime Clock</Description><StartTime><Timestamp dt:dt=""int"">0</Timestamp><DateUtc dt:dt=""string"">2018-10-11T19:00:32Z</DateUtc></StartTime><FrequencyChanges><FrequencyChange><Frequency dt:dt=""r8"">3215244</Frequency><Timestamp dt:dt=""r8"">5487905499573</Timestamp><Current dt:dt=""r8"">0</Current><DateUtc dt:dt=""string"">2018-10-11T19:00:32Z</DateUtc></FrequencyChange></FrequencyChanges></Clock>\n",KW_Experiment5A-14-1,59.945,1.0.0.105,2,-1062054389,Professional,2.0.10.353,2.0.10.353,10/11/2018,10/11/2018 19:00,15:00:32,2.0.10.248,3,2,1,3,,,,,,,,TrainingProc,BlockList,29,1,Distractor2.bmp,2,0,,0,1,3471170,400,,0,0,blue,400,1,400,,vertical,red,Target1.bmp,lime,Distractor2.bmp,yellow,Distractor2.bmp,purple,Distractor2.bmp,cyan,Distractor1.bmp,blue,Distractor1.bmp,,,,TrialProc,3,TrainingTrialList,1,1,-999999,0,3471570,0,1,816,3472386,Target1.bmp,red,1,,,,7,5,77
KW_Experiment5A,14,1,"<?xml version=""1.0""?>\n<Clock xmlns:dt=""urn:schemas-microsoft-com:datatypes""><Description dt:dt=""string"">E-Prime Primary Realtime Clock</Description><StartTime><Timestamp dt:dt=""int"">0</Timestamp><DateUtc dt:dt=""string"">2018-10-11T19:00:32Z</DateUtc></StartTime><FrequencyChanges><FrequencyChange><Frequency dt:dt=""r8"">3215244</Frequency><Timestamp dt:dt=""r8"">5487905499573</Timestamp><Current dt:dt=""r8"">0</Current><DateUtc dt:dt=""string"">2018-10-11T19:00:32Z</DateUtc></FrequencyChange></FrequencyChanges></Clock>\n",KW_Experiment5A-14-1,59.945,1.0.0.105,2,-1062054389,Professional,2.0.10.353,2.0.10.353,10/11/2018,10/11/2018 19:00,15:00:32,2.0.10.248,3,2,1,3,,,,,,,,TrainingProc,BlockList,30,1,Distractor2.bmp,2,0,,0,1,3473406,400,,0,0,lime,400,1,400,,vertical,lime,Distractor1.bmp,cyan,Distractor1.bmp,yellow,Distractor1.bmp,purple,Distractor2.bmp,red,Target1.bmp,blue,Distractor2.bmp,,,,TrialProc,6,TrainingTrialList,1,1,-999999,0,3473806,0,1,692,3474498,Target1.bmp,red,1,,,,11,5,78
KW_Experiment5A,14,1,"<?xml version=""1.0""?>\n<Clock xmlns:dt=""urn:schemas-microsoft-com:datatypes""><Description dt:dt=""string"">E-Prime Primary Realtime Clock</Description><StartTime><Timestamp dt:dt=""int"">0</Timestamp><DateUtc dt:dt=""string"">2018-10-11T19:00:32Z</DateUtc></StartTime><FrequencyChanges><FrequencyChange><Frequency dt:dt=""r8"">3215244</Frequency><Timestamp dt:dt=""r8"">5487905499573</Timestamp><Current dt:dt=""r8"">0</Current><DateUtc dt:dt=""string"">2018-10-11T19:00:32Z</DateUtc></FrequencyChange></FrequencyChanges></Clock>\n",KW_Experiment5A-14-1,59.945,1.0.0.105,2,-1062054389,Professional,2.0.10.353,2.0.10.353,10/11/2018,10/11/2018 19:00,15:00:32,2.0.10.248,3,2,1,3,,,,,,,,TrainingProc,BlockList,31,2,Distractor2.bmp,2,0,,0,1,3475507,501,,0,0,blue,500,2,500,,horizontal,blue,Distractor2.bmp,lime,Distractor1.bmp,cyan,Distractor2.bmp,yellow,Distractor1.bmp,purple,Distractor1.bmp,red,Target2.bmp,,,,TrialProc,3,TrainingTrialList,1,2,-999999,1,3476008,0,2,562,3476570,Target2.bmp,red,2,,,,12,5,79
KW_Experiment5A,14,1,"<?xml version=""1.0""?>\n<Clock xmlns:dt=""urn:schemas-microsoft-com:datatypes""><Description dt:dt=""string"">E-Prime Primary Realtime Clock</Description><StartTime><Timestamp dt:dt=""int"">0</Timestamp><DateUtc dt:dt=""string"">2018-10-11T19:00:32Z</DateUtc></StartTime><FrequencyChanges><FrequencyChange><Frequency dt:dt=""r8"">3215244</Frequency><Timestamp dt:dt=""r8"">5487905499573</Timestamp><Current dt:dt=""r8"">0</Current><DateUtc dt:dt=""string"">2018-10-11T19:00:32Z</DateUtc></FrequencyChange></FrequencyChanges></Clock>\n",KW_Experiment5A-14-1,59.945,1.0.0.105,2,-1062054389,Professional,2.0.10.353,2.0.10.353,10/11/2018,10/11/2018 19:00,15:00:32,2.0.10.248,3,2,1,3,,,,,,,,TrainingProc,BlockList,32,1,Distractor2.bmp,2,0,,0,1,3477593,500,,0,0,cyan,500,2,500,,vertical,cyan,Distractor2.bmp,red,Target1.bmp,blue,Distractor2.bmp,lime,Distractor2.bmp,purple,Distractor2.bmp,yellow,Distractor2.bmp,,,,TrialProc,4,TrainingTrialList,1,1,-999999,0,3478093,0,1,477,3478570,Target1.bmp,red,1,,,,8,5,80
KW_Experiment5A,14,1,"<?xml version=""1.0""?>\n<Clock xmlns:dt=""urn:schemas-microsoft-com:datatypes""><Description dt:dt=""string"">E-Prime Primary Realtime Clock</Description><StartTime><Timestamp dt:dt=""int"">0</Timestamp><DateUtc dt:dt=""string"">2018-10-11T19:00:32Z</DateUtc></StartTime><FrequencyChanges><FrequencyChange><Frequency dt:dt=""r8"">3215244</Frequency><Timestamp dt:dt=""r8"">5487905499573</Timestamp><Current dt:dt=""r8"">0</Current><DateUtc dt:dt=""string"">2018-10-11T19:00:32Z</DateUtc></FrequencyChange></FrequencyChanges></Clock>\n",KW_Experiment5A-14-1,59.945,1.0.0.105,2,-1062054389,Professional,2.0.10.353,2.0.10.353,10/11/2018,10/11/2018 19:00,15:00:32,2.0.10.248,3,2,1,3,,,,,,,,TrainingProc,BlockList,33,1,Distractor1.bmp,1,0,,0,1,3479595,500,,0,0,blue,500,2,500,,vertical,blue,Distractor2.bmp,yellow,Distractor1.bmp,lime,Distractor2.bmp,purple,Distractor2.bmp,red,Target1.bmp,cyan,Distractor1.bmp,,,,TrialProc,3,TrainingTrialList,1,1,-999999,0,3480095,0,1,731,3480826,Target1.bmp,red,1,,,,11,5,81
KW_Experiment5A,14,1,"<?xml version=""1.0""?>\n<Clock xmlns:dt=""urn:schemas-microsoft-com:datatypes""><Description dt:dt=""string"">E-Prime Primary Realtime Clock</Description><StartTime><Timestamp dt:dt=""int"">0</Timestamp><DateUtc dt:dt=""string"">2018-10-11T19:00:32Z</DateUtc></StartTime><FrequencyChanges><FrequencyChange><Frequency dt:dt=""r8"">3215244</Frequency><Timestamp dt:dt=""r8"">5487905499573</Timestamp><Current dt:dt=""r8"">0</Current><DateUtc dt:dt=""string"">2018-10-11T19:00:32Z</DateUtc></FrequencyChange></FrequencyChanges></Clock>\n",KW_Experiment5A-14-1,59.945,1.0.0.105,2,-1062054389,Professional,2.0.10.353,2.0.10.353,10/11/2018,10/11/2018 19:00,15:00:32,2.0.10.248,3,2,1,3,,,,,,,,TrainingProc,BlockList,34,2,Distractor2.bmp,2,0,,0,1,3481847,600,,0,0,purple,600,3,600,,horizontal,purple,Distractor1.bmp,cyan,Distractor1.bmp,blue,Distractor2.bmp,red,Target2.bmp,yellow,Distractor2.bmp,lime,Distractor1.bmp,,,,TrialProc,5,TrainingTrialList,0,2,-999999,0,3482447,0,1,611,3483058,Target2.bmp,red,2,,,,10,5,82
KW_Experiment5A,14,1,"<?xml version=""1.0""?>\n<Clock xmlns:dt=""urn:schemas-microsoft-com:datatypes""><Description dt:dt=""string"">E-Prime Primary Realtime Clock</Description><StartTime><Timestamp dt:dt=""int"">0</Timestamp><DateUtc dt:dt=""string"">2018-10-11T19:00:32Z</DateUtc></StartTime><FrequencyChanges><FrequencyChange><Frequency dt:dt=""r8"">3215244</Frequency><Timestamp dt:dt=""r8"">5487905499573</Timestamp><Current dt:dt=""r8"">0</Current><DateUtc dt:dt=""string"">2018-10-11T19:00:32Z</DateUtc></FrequencyChange></FrequencyChanges></Clock>\n",KW_Experiment5A-14-1,59.945,1.0.0.105,2,-1062054389,Professional,2.0.10.353,2.0.10.353,10/11/2018,10/11/2018 19:00,15:00:32,2.0.10.248,3,2,1,3,,,,,,,,TrainingProc,BlockList,35,1,Distractor1.bmp,1,0,,0,1,3484082,400,,0,0,blue,400,1,400,3,vertical,blue,Distractor2.bmp,purple,Distractor2.bmp,cyan,Distractor2.bmp,yellow,Distractor2.bmp,lime,Target1.bmp,red,Distractor1.bmp,,,,TrialProc,,TrainingTrialList,1,1,-999999,0,3484482,0,1,856,3485338,Target1.bmp,lime,1,,,,5,5,83
KW_Experiment5A,14,1,"<?xml version=""1.0""?>\n<Clock xmlns:dt=""urn:schemas-microsoft-com:datatypes""><Description dt:dt=""string"">E-Prime Primary Realtime Clock</Description><StartTime><Timestamp dt:dt=""int"">0</Timestamp><DateUtc dt:dt=""string"">2018-10-11T19:00:32Z</DateUtc></StartTime><FrequencyChanges><FrequencyChange><Frequency dt:dt=""r8"">3215244</Frequency><Timestamp dt:dt=""r8"">5487905499573</Timestamp><Current dt:dt=""r8"">0</Current><DateUtc dt:dt=""string"">2018-10-11T19:00:32Z</DateUtc></FrequencyChange></FrequencyChanges></Clock>\n",KW_Experiment5A-14-1,59.945,1.0.0.105,2,-1062054389,Professional,2.0.10.353,2.0.10.353,10/11/2018,10/11/2018 19:00,15:00:32,2.0.10.248,3,2,1,3,,,,,,,,TrainingProc,BlockList,36,1,Distractor1.bmp,1,0,,0,1,3486351,400,,0,0,cyan,400,1,400,,vertical,cyan,Distractor1.bmp,blue,Distractor1.bmp,purple,Distractor1.bmp,lime,Distractor1.bmp,yellow,Distractor2.bmp,red,Target1.bmp,,,,TrialProc,4,TrainingTrialList,1,1,-999999,0,3486751,0,1,619,3487370,Target1.bmp,red,1,,,,12,5,84
KW_Experiment5A,14,1,"<?xml version=""1.0""?>\n<Clock xmlns:dt=""urn:schemas-microsoft-com:datatypes""><Description dt:dt=""string"">E-Prime Primary Realtime Clock</Description><StartTime><Timestamp dt:dt=""int"">0</Timestamp><DateUtc dt:dt=""string"">2018-10-11T19:00:32Z</DateUtc></StartTime><FrequencyChanges><FrequencyChange><Frequency dt:dt=""r8"">3215244</Frequency><Timestamp dt:dt=""r8"">5487905499573</Timestamp><Current dt:dt=""r8"">0</Current><DateUtc dt:dt=""string"">2018-10-11T19:00:32Z</DateUtc></FrequencyChange></FrequencyChanges></Clock>\n",KW_Experiment5A-14-1,59.945,1.0.0.105,2,-1062054389,Professional,2.0.10.353,2.0.10.353,10/11/2018,10/11/2018 19:00,15:00:32,2.0.10.248,3,2,1,3,,,,,,,,TrainingProc,BlockList,37,2,Distractor1.bmp,1,0,,0,1,3488386,500,,0,0,purple,500,2,500,5,horizontal,purple,Distractor2.bmp,red,Distractor1.bmp,yellow,Distractor1.bmp,lime,Target2.bmp,blue,Distractor1.bmp,cyan,Distractor1.bmp,,,,TrialProc,,TrainingTrialList,1,2,-999999,0,3488886,0,2,620,3489506,Target2.bmp,lime,2,,,,4,5,85
KW_Experiment5A,14,1,"<?xml version=""1.0""?>\n<Clock xmlns:dt=""urn:schemas-microsoft-com:datatypes""><Description dt:dt=""string"">E-Prime Primary Realtime Clock</Description><StartTime><Timestamp dt:dt=""int"">0</Timestamp><DateUtc dt:dt=""string"">2018-10-11T19:00:32Z</DateUtc></StartTime><FrequencyChanges><FrequencyChange><Frequency dt:dt=""r8"">3215244</Frequency><Timestamp dt:dt=""r8"">5487905499573</Timestamp><Current dt:dt=""r8"">0</Current><DateUtc dt:dt=""string"">2018-10-11T19:00:32Z</DateUtc></FrequencyChange></FrequencyChanges></Clock>\n",KW_Experiment5A-14-1,59.945,1.0.0.105,2,-1062054389,Professional,2.0.10.353,2.0.10.353,10/11/2018,10/11/2018 19:00,15:00:32,2.0.10.248,3,2,1,3,,,,,,,,TrainingProc,BlockList,38,2,Distractor1.bmp,1,0,,0,1,3490521,501,,0,0,lime,500,2,500,,horizontal,lime,Distractor1.bmp,cyan,Distractor2.bmp,red,Target2.bmp,purple,Distractor1.bmp,yellow,Distractor1.bmp,blue,Distractor2.bmp,,,,TrialProc,6,TrainingTrialList,1,2,-999999,1,3491022,0,2,564,3491586,Target2.bmp,red,2,,,,9,5,86
KW_Experiment5A,14,1,"<?xml version=""1.0""?>\n<Clock xmlns:dt=""urn:schemas-microsoft-com:datatypes""><Description dt:dt=""string"">E-Prime Primary Realtime Clock</Description><StartTime><Timestamp dt:dt=""int"">0</Timestamp><DateUtc dt:dt=""string"">2018-10-11T19:00:32Z</DateUtc></StartTime><FrequencyChanges><FrequencyChange><Frequency dt:dt=""r8"">3215244</Frequency><Timestamp dt:dt=""r8"">5487905499573</Timestamp><Current dt:dt=""r8"">0</Current><DateUtc dt:dt=""string"">2018-10-11T19:00:32Z</DateUtc></FrequencyChange></FrequencyChanges></Clock>\n",KW_Experiment5A-14-1,59.945,1.0.0.105,2,-1062054389,Professional,2.0.10.353,2.0.10.353,10/11/2018,10/11/2018 19:00,15:00:32,2.0.10.248,3,2,1,3,,,,,,,,TrainingProc,BlockList,39,1,Distractor1.bmp,1,0,,0,1,3492607,600,,0,0,blue,600,3,600,,vertical,red,Target1.bmp,cyan,Distractor1.bmp,yellow,Distractor1.bmp,purple,Distractor2.bmp,lime,Distractor2.bmp,blue,Distractor2.bmp,,,,TrialProc,3,TrainingTrialList,1,1,-999999,0,3493207,0,1,643,3493850,Target1.bmp,red,1,,,,7,5,87
KW_Experiment5A,14,1,"<?xml version=""1.0""?>\n<Clock xmlns:dt=""urn:schemas-microsoft-com:datatypes""><Description dt:dt=""string"">E-Prime Primary Realtime Clock</Description><StartTime><Timestamp dt:dt=""int"">0</Timestamp><DateUtc dt:dt=""string"">2018-10-11T19:00:32Z</DateUtc></StartTime><FrequencyChanges><FrequencyChange><Frequency dt:dt=""r8"">3215244</Frequency><Timestamp dt:dt=""r8"">5487905499573</Timestamp><Current dt:dt=""r8"">0</Current><DateUtc dt:dt=""string"">2018-10-11T19:00:32Z</DateUtc></FrequencyChange></FrequencyChanges></Clock>\n",KW_Experiment5A-14-1,59.945,1.0.0.105,2,-1062054389,Professional,2.0.10.353,2.0.10.353,10/11/2018,10/11/2018 19:00,15:00:32,2.0.10.248,3,2,1,3,,,,,,,,TrainingProc,BlockList,40,2,Distractor1.bmp,1,0,,0,1,3494875,401,,0,0,purple,400,1,400,5,horizontal,purple,Distractor1.bmp,blue,Distractor2.bmp,red,Distractor1.bmp,yellow,Distractor2.bmp,cyan,Distractor1.bmp,lime,Target2.bmp,,,,TrialProc,,TrainingTrialList,1,2,-999999,1,3495276,0,2,662,3495938,Target2.bmp,lime,2,,,,6,5,88
KW_Experiment5A,14,1,"<?xml version=""1.0""?>\n<Clock xmlns:dt=""urn:schemas-microsoft-com:datatypes""><Description dt:dt=""string"">E-Prime Primary Realtime Clock</Description><StartTime><Timestamp dt:dt=""int"">0</Timestamp><DateUtc dt:dt=""string"">2018-10-11T19:00:32Z</DateUtc></StartTime><FrequencyChanges><FrequencyChange><Frequency dt:dt=""r8"">3215244</Frequency><Timestamp dt:dt=""r8"">5487905499573</Timestamp><Current dt:dt=""r8"">0</Current><DateUtc dt:dt=""string"">2018-10-11T19:00:32Z</DateUtc></FrequencyChange></FrequencyChanges></Clock>\n",KW_Experiment5A-14-1,59.945,1.0.0.105,2,-1062054389,Professional,2.0.10.353,2.0.10.353,10/11/2018,10/11/2018 19:00,15:00:32,2.0.10.248,3,2,1,3,,,,,,,,TrainingProc,BlockList,41,2,Distractor2.bmp,2,0,,0,1,3496961,400,,0,0,blue,400,1,400,,horizontal,blue,Distractor2.bmp,red,Target2.bmp,purple,Distractor2.bmp,lime,Distractor2.bmp,cyan,Distractor1.bmp,yellow,Distractor2.bmp,,,,TrialProc,3,TrainingTrialList,1,2,-999999,0,3497361,0,2,689,3498050,Target2.bmp,red,2,,,,8,5,89
