ExperimentName,Subject,Session,Clock.Information,DataFile.Basename,Display.RefreshRate,ExperimentVersion,Group,RandomSeed,RuntimeCapabilities,RuntimeVersion,RuntimeVersionExpected,SessionDate,SessionStartDateTimeUtc,SessionTime,StudioVersion,Block,BlockList,BlockList.Cycle,BlockList.Sample,PostTestQ1.RESP,PostTestQ1CJ.RESP,PostTestQ2.RESP,PostTestQ2CJ.RESP,PostTestQ3.RESP,PostTestQ3CJ.RESP,PostTestSlide.RESP,Procedure[Block],Running[Block],Trial,CorrectResponse,Distractor,DistractorList,Fixation.ACC,Fixation.CRESP,Fixation.DurationError,Fixation.OnsetDelay,Fixation.OnsetTime,Fixation.OnsetToOnsetTime,Fixation.RESP,Fixation.RT,Fixation.RTTime,ItemColor,Jitter,JitterList,JitterTime,Lime0List,Orientation,Pos1Color,Pos1Item,Pos2Color,Pos2Item,Pos3Color,Pos3Item,Pos4Color,Pos4Item,Pos5Color,Pos5Item,Pos6Color,Pos6Item,PracticeTrialList,PracticeTrialList.Cycle,PracticeTrialList.Sample,Procedure[Trial],Red0List,Running[Trial],Stimulus.ACC,Stimulus.CRESP,Stimulus.DurationError,Stimulus.OnsetDelay,Stimulus.OnsetTime,Stimulus.OnsetToOnsetTime,Stimulus.RESP,Stimulus.RT,Stimulus.RTTime,Target,TargetColor,TargetList,TestTrialList,TestTrialList.Cycle,TestTrialList.Sample,TrainingTrialList,TrainingTrialList.Cycle,TrainingTrialList.Sample
KW_Experiment5A,12,1,"<?xml version=""1.0""?>\n<Clock xmlns:dt=""urn:schemas-microsoft-com:datatypes""><Description dt:dt=""string"">E-Prime Primary Realtime Clock</Description><StartTime><Timestamp dt:dt=""int"">0</Timestamp><DateUtc dt:dt=""string"">2018-10-10T18:01:28Z</DateUtc></StartTime><FrequencyChanges><FrequencyChange><Frequency dt:dt=""r8"">3215244</Frequency><Timestamp dt:dt=""r8"">5198719429781</Timestamp><Current dt:dt=""r8"">0</Current><DateUtc dt:dt=""string"">2018-10-10T18:01:28Z</DateUtc></FrequencyChange></FrequencyChanges></Clock>\n",KW_Experiment5A-12-1,59.944,1.0.0.105,2,1809649732,Professional,2.0.10.353,2.0.10.353,10/10/2018,10/10/2018 18:01,14:01:28,2.0.10.248,1,1,1,1,,,,,,,,PracticeProc,BlockList,1,2,Distractor2.bmp,2,0,,0,33,30654,500,,0,0,lime,500,2,500,,horizontal,lime,Distractor1.bmp,red,Target2.bmp,purple,Distractor2.bmp,blue,Distractor2.bmp,yellow,Distractor2.bmp,cyan,Distractor2.bmp,2,1,1,TrialProc,6,PracticeTrialList,1,2,-999999,0,31154,0,2,2971,34125,Target2.bmp,red,2,,,,,,
KW_Experiment5A,12,1,"<?xml version=""1.0""?>\n<Clock xmlns:dt=""urn:schemas-microsoft-com:datatypes""><Description dt:dt=""string"">E-Prime Primary Realtime Clock</Description><StartTime><Timestamp dt:dt=""int"">0</Timestamp><DateUtc dt:dt=""string"">2018-10-10T18:01:28Z</DateUtc></StartTime><FrequencyChanges><FrequencyChange><Frequency dt:dt=""r8"">3215244</Frequency><Timestamp dt:dt=""r8"">5198719429781</Timestamp><Current dt:dt=""r8"">0</Current><DateUtc dt:dt=""string"">2018-10-10T18:01:28Z</DateUtc></FrequencyChange></FrequencyChanges></Clock>\n",KW_Experiment5A-12-1,59.944,1.0.0.105,2,1809649732,Professional,2.0.10.353,2.0.10.353,10/10/2018,10/10/2018 18:01,14:01:28,2.0.10.248,1,1,1,1,,,,,,,,PracticeProc,BlockList,2,1,Distractor1.bmp,1,0,,1,1,35141,501,,0,0,lime,500,2,500,,vertical,purple,Distractor2.bmp,cyan,Distractor2.bmp,lime,Distractor2.bmp,red,Target1.bmp,yellow,Distractor1.bmp,blue,Distractor2.bmp,4,1,2,TrialProc,6,PracticeTrialList,1,1,-999999,1,35642,0,1,1011,36653,Target1.bmp,red,1,,,,,,
KW_Experiment5A,12,1,"<?xml version=""1.0""?>\n<Clock xmlns:dt=""urn:schemas-microsoft-com:datatypes""><Description dt:dt=""string"">E-Prime Primary Realtime Clock</Description><StartTime><Timestamp dt:dt=""int"">0</Timestamp><DateUtc dt:dt=""string"">2018-10-10T18:01:28Z</DateUtc></StartTime><FrequencyChanges><FrequencyChange><Frequency dt:dt=""r8"">3215244</Frequency><Timestamp dt:dt=""r8"">5198719429781</Timestamp><Current dt:dt=""r8"">0</Current><DateUtc dt:dt=""string"">2018-10-10T18:01:28Z</DateUtc></FrequencyChange></FrequencyChanges></Clock>\n",KW_Experiment5A-12-1,59.944,1.0.0.105,2,1809649732,Professional,2.0.10.353,2.0.10.353,10/10/2018,10/10/2018 18:01,14:01:28,2.0.10.248,1,1,1,1,,,,,,,,PracticeProc,BlockList,3,1,Distractor1.bmp,1,0,,0,1,37677,401,,0,0,cyan,400,1,400,4,vertical,yellow,Distractor2.bmp,purple,Distractor2.bmp,blue,Distractor2.bmp,cyan,Distractor2.bmp,lime,Target1.bmp,red,Distractor1.bmp,5,1,3,TrialProc,,PracticeTrialList,1,1,-999999,1,38078,0,1,1175,39253,Target1.bmp,lime,1,,,,,,
KW_Experiment5A,12,1,"<?xml version=""1.0""?>\n<Clock xmlns:dt=""urn:schemas-microsoft-com:datatypes""><Description dt:dt=""string"">E-Prime Primary Realtime Clock</Description><StartTime><Timestamp dt:dt=""int"">0</Timestamp><DateUtc dt:dt=""string"">2018-10-10T18:01:28Z</DateUtc></StartTime><FrequencyChanges><FrequencyChange><Frequency dt:dt=""r8"">3215244</Frequency><Timestamp dt:dt=""r8"">5198719429781</Timestamp><Current dt:dt=""r8"">0</Current><DateUtc dt:dt=""string"">2018-10-10T18:01:28Z</DateUtc></FrequencyChange></FrequencyChanges></Clock>\n",KW_Experiment5A-12-1,59.944,1.0.0.105,2,1809649732,Professional,2.0.10.353,2.0.10.353,10/10/2018,10/10/2018 18:01,14:01:28,2.0.10.248,1,1,1,1,,,,,,,,PracticeProc,BlockList,4,1,Distractor1.bmp,1,0,,0,1,40280,400,,0,0,purple,400,1,400,,vertical,lime,Distractor1.bmp,cyan,Distractor1.bmp,yellow,Distractor1.bmp,blue,Distractor1.bmp,purple,Distractor2.bmp,red,Target1.bmp,6,1,4,TrialProc,5,PracticeTrialList,0,1,-999999,0,40680,0,2,733,41413,Target1.bmp,red,1,,,,,,
KW_Experiment5A,12,1,"<?xml version=""1.0""?>\n<Clock xmlns:dt=""urn:schemas-microsoft-com:datatypes""><Description dt:dt=""string"">E-Prime Primary Realtime Clock</Description><StartTime><Timestamp dt:dt=""int"">0</Timestamp><DateUtc dt:dt=""string"">2018-10-10T18:01:28Z</DateUtc></StartTime><FrequencyChanges><FrequencyChange><Frequency dt:dt=""r8"">3215244</Frequency><Timestamp dt:dt=""r8"">5198719429781</Timestamp><Current dt:dt=""r8"">0</Current><DateUtc dt:dt=""string"">2018-10-10T18:01:28Z</DateUtc></FrequencyChange></FrequencyChanges></Clock>\n",KW_Experiment5A-12-1,59.944,1.0.0.105,2,1809649732,Professional,2.0.10.353,2.0.10.353,10/10/2018,10/10/2018 18:01,14:01:28,2.0.10.248,1,1,1,1,,,,,,,,PracticeProc,BlockList,5,2,Distractor2.bmp,2,0,,1,0,42431,401,,0,0,cyan,400,1,400,4,horizontal,red,Distractor1.bmp,cyan,Distractor2.bmp,lime,Target2.bmp,purple,Distractor2.bmp,yellow,Distractor2.bmp,blue,Distractor2.bmp,3,1,5,TrialProc,,PracticeTrialList,0,2,-999999,1,42832,0,1,1573,44405,Target2.bmp,lime,2,,,,,,
KW_Experiment5A,12,1,"<?xml version=""1.0""?>\n<Clock xmlns:dt=""urn:schemas-microsoft-com:datatypes""><Description dt:dt=""string"">E-Prime Primary Realtime Clock</Description><StartTime><Timestamp dt:dt=""int"">0</Timestamp><DateUtc dt:dt=""string"">2018-10-10T18:01:28Z</DateUtc></StartTime><FrequencyChanges><FrequencyChange><Frequency dt:dt=""r8"">3215244</Frequency><Timestamp dt:dt=""r8"">5198719429781</Timestamp><Current dt:dt=""r8"">0</Current><DateUtc dt:dt=""string"">2018-10-10T18:01:28Z</DateUtc></FrequencyChange></FrequencyChanges></Clock>\n",KW_Experiment5A-12-1,59.944,1.0.0.105,2,1809649732,Professional,2.0.10.353,2.0.10.353,10/10/2018,10/10/2018 18:01,14:01:28,2.0.10.248,1,1,1,1,,,,,,,,PracticeProc,BlockList,6,2,Distractor2.bmp,2,0,,0,1,45418,500,,0,0,yellow,500,2,500,2,horizontal,lime,Target2.bmp,blue,Distractor2.bmp,cyan,Distractor1.bmp,red,Distractor2.bmp,purple,Distractor2.bmp,yellow,Distractor2.bmp,1,1,6,TrialProc,,PracticeTrialList,0,2,-999999,0,45918,0,1,1335,47253,Target2.bmp,lime,2,,,,,,
KW_Experiment5A,12,1,"<?xml version=""1.0""?>\n<Clock xmlns:dt=""urn:schemas-microsoft-com:datatypes""><Description dt:dt=""string"">E-Prime Primary Realtime Clock</Description><StartTime><Timestamp dt:dt=""int"">0</Timestamp><DateUtc dt:dt=""string"">2018-10-10T18:01:28Z</DateUtc></StartTime><FrequencyChanges><FrequencyChange><Frequency dt:dt=""r8"">3215244</Frequency><Timestamp dt:dt=""r8"">5198719429781</Timestamp><Current dt:dt=""r8"">0</Current><DateUtc dt:dt=""string"">2018-10-10T18:01:28Z</DateUtc></FrequencyChange></FrequencyChanges></Clock>\n",KW_Experiment5A-12-1,59.944,1.0.0.105,2,1809649732,Professional,2.0.10.353,2.0.10.353,10/10/2018,10/10/2018 18:01,14:01:28,2.0.10.248,2,2,1,2,,,,,,,,TrainingProc,BlockList,1,1,Distractor2.bmp,2,0,,0,32,59581,600,,0,0,blue,600,3,600,3,vertical,blue,Distractor2.bmp,red,Distractor1.bmp,cyan,Distractor1.bmp,purple,Distractor1.bmp,yellow,Distractor2.bmp,lime,Target1.bmp,,,,TrialProc,,TrainingTrialList,1,1,-999999,0,60181,0,1,664,60845,Target1.bmp,lime,1,,,,6,2,1
KW_Experiment5A,12,1,"<?xml version=""1.0""?>\n<Clock xmlns:dt=""urn:schemas-microsoft-com:datatypes""><Description dt:dt=""string"">E-Prime Primary Realtime Clock</Description><StartTime><Timestamp dt:dt=""int"">0</Timestamp><DateUtc dt:dt=""string"">2018-10-10T18:01:28Z</DateUtc></StartTime><FrequencyChanges><FrequencyChange><Frequency dt:dt=""r8"">3215244</Frequency><Timestamp dt:dt=""r8"">5198719429781</Timestamp><Current dt:dt=""r8"">0</Current><DateUtc dt:dt=""string"">2018-10-10T18:01:28Z</DateUtc></FrequencyChange></FrequencyChanges></Clock>\n",KW_Experiment5A-12-1,59.944,1.0.0.105,2,1809649732,Professional,2.0.10.353,2.0.10.353,10/10/2018,10/10/2018 18:01,14:01:28,2.0.10.248,2,2,1,2,,,,,,,,TrainingProc,BlockList,2,1,Distractor2.bmp,2,0,,0,1,61866,601,,0,0,blue,600,3,600,,vertical,blue,Distractor2.bmp,yellow,Distractor1.bmp,lime,Distractor1.bmp,cyan,Distractor2.bmp,purple,Distractor1.bmp,red,Target1.bmp,,,,TrialProc,3,TrainingTrialList,1,1,-999999,1,62467,0,1,522,62989,Target1.bmp,red,1,,,,12,2,2
KW_Experiment5A,12,1,"<?xml version=""1.0""?>\n<Clock xmlns:dt=""urn:schemas-microsoft-com:datatypes""><Description dt:dt=""string"">E-Prime Primary Realtime Clock</Description><StartTime><Timestamp dt:dt=""int"">0</Timestamp><DateUtc dt:dt=""string"">2018-10-10T18:01:28Z</DateUtc></StartTime><FrequencyChanges><FrequencyChange><Frequency dt:dt=""r8"">3215244</Frequency><Timestamp dt:dt=""r8"">5198719429781</Timestamp><Current dt:dt=""r8"">0</Current><DateUtc dt:dt=""string"">2018-10-10T18:01:28Z</DateUtc></FrequencyChange></FrequencyChanges></Clock>\n",KW_Experiment5A-12-1,59.944,1.0.0.105,2,1809649732,Professional,2.0.10.353,2.0.10.353,10/10/2018,10/10/2018 18:01,14:01:28,2.0.10.248,2,2,1,2,,,,,,,,TrainingProc,BlockList,3,2,Distractor2.bmp,2,0,,0,1,64001,601,,0,0,cyan,600,3,600,,horizontal,red,Target2.bmp,lime,Distractor2.bmp,purple,Distractor1.bmp,blue,Distractor2.bmp,yellow,Distractor2.bmp,cyan,Distractor2.bmp,,,,TrialProc,4,TrainingTrialList,1,2,-999999,1,64602,0,2,555,65157,Target2.bmp,red,2,,,,7,2,3
KW_Experiment5A,12,1,"<?xml version=""1.0""?>\n<Clock xmlns:dt=""urn:schemas-microsoft-com:datatypes""><Description dt:dt=""string"">E-Prime Primary Realtime Clock</Description><StartTime><Timestamp dt:dt=""int"">0</Timestamp><DateUtc dt:dt=""string"">2018-10-10T18:01:28Z</DateUtc></StartTime><FrequencyChanges><FrequencyChange><Frequency dt:dt=""r8"">3215244</Frequency><Timestamp dt:dt=""r8"">5198719429781</Timestamp><Current dt:dt=""r8"">0</Current><DateUtc dt:dt=""string"">2018-10-10T18:01:28Z</DateUtc></FrequencyChange></FrequencyChanges></Clock>\n",KW_Experiment5A-12-1,59.944,1.0.0.105,2,1809649732,Professional,2.0.10.353,2.0.10.353,10/10/2018,10/10/2018 18:01,14:01:28,2.0.10.248,2,2,1,2,,,,,,,,TrainingProc,BlockList,4,2,Distractor1.bmp,1,0,,0,1,66170,601,,0,0,purple,600,3,600,,horizontal,purple,Distractor1.bmp,lime,Distractor1.bmp,red,Target2.bmp,yellow,Distractor1.bmp,cyan,Distractor2.bmp,blue,Distractor2.bmp,,,,TrialProc,5,TrainingTrialList,1,2,-999999,1,66771,0,2,986,67757,Target2.bmp,red,2,,,,9,2,4
KW_Experiment5A,12,1,"<?xml version=""1.0""?>\n<Clock xmlns:dt=""urn:schemas-microsoft-com:datatypes""><Description dt:dt=""string"">E-Prime Primary Realtime Clock</Description><StartTime><Timestamp dt:dt=""int"">0</Timestamp><DateUtc dt:dt=""string"">2018-10-10T18:01:28Z</DateUtc></StartTime><FrequencyChanges><FrequencyChange><Frequency dt:dt=""r8"">3215244</Frequency><Timestamp dt:dt=""r8"">5198719429781</Timestamp><Current dt:dt=""r8"">0</Current><DateUtc dt:dt=""string"">2018-10-10T18:01:28Z</DateUtc></FrequencyChange></FrequencyChanges></Clock>\n",KW_Experiment5A-12-1,59.944,1.0.0.105,2,1809649732,Professional,2.0.10.353,2.0.10.353,10/10/2018,10/10/2018 18:01,14:01:28,2.0.10.248,2,2,1,2,,,,,,,,TrainingProc,BlockList,5,1,Distractor1.bmp,1,0,,0,0,68772,601,,0,0,cyan,600,3,600,4,vertical,cyan,Distractor2.bmp,yellow,Distractor1.bmp,purple,Distractor1.bmp,red,Distractor1.bmp,lime,Target1.bmp,blue,Distractor1.bmp,,,,TrialProc,,TrainingTrialList,1,1,-999999,1,69373,0,1,568,69941,Target1.bmp,lime,1,,,,5,2,5
KW_Experiment5A,12,1,"<?xml version=""1.0""?>\n<Clock xmlns:dt=""urn:schemas-microsoft-com:datatypes""><Description dt:dt=""string"">E-Prime Primary Realtime Clock</Description><StartTime><Timestamp dt:dt=""int"">0</Timestamp><DateUtc dt:dt=""string"">2018-10-10T18:01:28Z</DateUtc></StartTime><FrequencyChanges><FrequencyChange><Frequency dt:dt=""r8"">3215244</Frequency><Timestamp dt:dt=""r8"">5198719429781</Timestamp><Current dt:dt=""r8"">0</Current><DateUtc dt:dt=""string"">2018-10-10T18:01:28Z</DateUtc></FrequencyChange></FrequencyChanges></Clock>\n",KW_Experiment5A-12-1,59.944,1.0.0.105,2,1809649732,Professional,2.0.10.353,2.0.10.353,10/10/2018,10/10/2018 18:01,14:01:28,2.0.10.248,2,2,1,2,,,,,,,,TrainingProc,BlockList,6,2,Distractor2.bmp,2,0,,0,1,70958,500,,0,0,cyan,500,2,500,,horizontal,cyan,Distractor2.bmp,red,Target2.bmp,yellow,Distractor2.bmp,purple,Distractor1.bmp,lime,Distractor1.bmp,blue,Distractor2.bmp,,,,TrialProc,4,TrainingTrialList,1,2,-999999,0,71458,0,2,523,71981,Target2.bmp,red,2,,,,8,2,6
KW_Experiment5A,12,1,"<?xml version=""1.0""?>\n<Clock xmlns:dt=""urn:schemas-microsoft-com:datatypes""><Description dt:dt=""string"">E-Prime Primary Realtime Clock</Description><StartTime><Timestamp dt:dt=""int"">0</Timestamp><DateUtc dt:dt=""string"">2018-10-10T18:01:28Z</DateUtc></StartTime><FrequencyChanges><FrequencyChange><Frequency dt:dt=""r8"">3215244</Frequency><Timestamp dt:dt=""r8"">5198719429781</Timestamp><Current dt:dt=""r8"">0</Current><DateUtc dt:dt=""string"">2018-10-10T18:01:28Z</DateUtc></FrequencyChange></FrequencyChanges></Clock>\n",KW_Experiment5A-12-1,59.944,1.0.0.105,2,1809649732,Professional,2.0.10.353,2.0.10.353,10/10/2018,10/10/2018 18:01,14:01:28,2.0.10.248,2,2,1,2,,,,,,,,TrainingProc,BlockList,7,2,Distractor2.bmp,2,0,,0,1,72993,400,,0,0,blue,400,1,400,,horizontal,blue,Distractor2.bmp,lime,Distractor2.bmp,yellow,Distractor2.bmp,cyan,Distractor1.bmp,red,Target2.bmp,purple,Distractor2.bmp,,,,TrialProc,3,TrainingTrialList,0,2,-999999,0,73393,0,1,468,73861,Target2.bmp,red,2,,,,11,2,7
KW_Experiment5A,12,1,"<?xml version=""1.0""?>\n<Clock xmlns:dt=""urn:schemas-microsoft-com:datatypes""><Description dt:dt=""string"">E-Prime Primary Realtime Clock</Description><StartTime><Timestamp dt:dt=""int"">0</Timestamp><DateUtc dt:dt=""string"">2018-10-10T18:01:28Z</DateUtc></StartTime><FrequencyChanges><FrequencyChange><Frequency dt:dt=""r8"">3215244</Frequency><Timestamp dt:dt=""r8"">5198719429781</Timestamp><Current dt:dt=""r8"">0</Current><DateUtc dt:dt=""string"">2018-10-10T18:01:28Z</DateUtc></FrequencyChange></FrequencyChanges></Clock>\n",KW_Experiment5A-12-1,59.944,1.0.0.105,2,1809649732,Professional,2.0.10.353,2.0.10.353,10/10/2018,10/10/2018 18:01,14:01:28,2.0.10.248,2,2,1,2,,,,,,,,TrainingProc,BlockList,8,1,Distractor2.bmp,2,0,,0,1,74878,501,,0,0,cyan,500,2,500,,vertical,red,Target1.bmp,yellow,Distractor2.bmp,lime,Distractor2.bmp,purple,Distractor1.bmp,blue,Distractor2.bmp,cyan,Distractor1.bmp,,,,TrialProc,4,TrainingTrialList,0,1,-999999,1,75379,0,2,818,76197,Target1.bmp,red,1,,,,7,2,8
KW_Experiment5A,12,1,"<?xml version=""1.0""?>\n<Clock xmlns:dt=""urn:schemas-microsoft-com:datatypes""><Description dt:dt=""string"">E-Prime Primary Realtime Clock</Description><StartTime><Timestamp dt:dt=""int"">0</Timestamp><DateUtc dt:dt=""string"">2018-10-10T18:01:28Z</DateUtc></StartTime><FrequencyChanges><FrequencyChange><Frequency dt:dt=""r8"">3215244</Frequency><Timestamp dt:dt=""r8"">5198719429781</Timestamp><Current dt:dt=""r8"">0</Current><DateUtc dt:dt=""string"">2018-10-10T18:01:28Z</DateUtc></FrequencyChange></FrequencyChanges></Clock>\n",KW_Experiment5A-12-1,59.944,1.0.0.105,2,1809649732,Professional,2.0.10.353,2.0.10.353,10/10/2018,10/10/2018 18:01,14:01:28,2.0.10.248,2,2,1,2,,,,,,,,TrainingProc,BlockList,9,1,Distractor1.bmp,1,0,,0,1,77214,600,,0,0,yellow,600,3,600,,vertical,yellow,Distractor1.bmp,lime,Distractor1.bmp,red,Target1.bmp,blue,Distractor1.bmp,cyan,Distractor1.bmp,purple,Distractor2.bmp,,,,TrialProc,2,TrainingTrialList,1,1,-999999,0,77814,0,1,1103,78917,Target1.bmp,red,1,,,,9,2,9
KW_Experiment5A,12,1,"<?xml version=""1.0""?>\n<Clock xmlns:dt=""urn:schemas-microsoft-com:datatypes""><Description dt:dt=""string"">E-Prime Primary Realtime Clock</Description><StartTime><Timestamp dt:dt=""int"">0</Timestamp><DateUtc dt:dt=""string"">2018-10-10T18:01:28Z</DateUtc></StartTime><FrequencyChanges><FrequencyChange><Frequency dt:dt=""r8"">3215244</Frequency><Timestamp dt:dt=""r8"">5198719429781</Timestamp><Current dt:dt=""r8"">0</Current><DateUtc dt:dt=""string"">2018-10-10T18:01:28Z</DateUtc></FrequencyChange></FrequencyChanges></Clock>\n",KW_Experiment5A-12-1,59.944,1.0.0.105,2,1809649732,Professional,2.0.10.353,2.0.10.353,10/10/2018,10/10/2018 18:01,14:01:28,2.0.10.248,2,2,1,2,,,,,,,,TrainingProc,BlockList,10,1,Distractor2.bmp,2,0,,0,1,79933,500,,0,0,blue,500,2,500,,vertical,blue,Distractor2.bmp,lime,Distractor1.bmp,purple,Distractor1.bmp,red,Target1.bmp,cyan,Distractor2.bmp,yellow,Distractor1.bmp,,,,TrialProc,3,TrainingTrialList,1,1,-999999,0,80433,0,1,572,81005,Target1.bmp,red,1,,,,10,2,10
KW_Experiment5A,12,1,"<?xml version=""1.0""?>\n<Clock xmlns:dt=""urn:schemas-microsoft-com:datatypes""><Description dt:dt=""string"">E-Prime Primary Realtime Clock</Description><StartTime><Timestamp dt:dt=""int"">0</Timestamp><DateUtc dt:dt=""string"">2018-10-10T18:01:28Z</DateUtc></StartTime><FrequencyChanges><FrequencyChange><Frequency dt:dt=""r8"">3215244</Frequency><Timestamp dt:dt=""r8"">5198719429781</Timestamp><Current dt:dt=""r8"">0</Current><DateUtc dt:dt=""string"">2018-10-10T18:01:28Z</DateUtc></FrequencyChange></FrequencyChanges></Clock>\n",KW_Experiment5A-12-1,59.944,1.0.0.105,2,1809649732,Professional,2.0.10.353,2.0.10.353,10/10/2018,10/10/2018 18:01,14:01:28,2.0.10.248,2,2,1,2,,,,,,,,TrainingProc,BlockList,11,2,Distractor1.bmp,1,0,,0,1,82018,400,,0,0,blue,400,1,400,3,horizontal,lime,Target2.bmp,blue,Distractor1.bmp,purple,Distractor2.bmp,cyan,Distractor2.bmp,red,Distractor2.bmp,yellow,Distractor1.bmp,,,,TrialProc,,TrainingTrialList,1,2,-999999,0,82418,0,2,1442,83860,Target2.bmp,lime,2,,,,1,2,11
KW_Experiment5A,12,1,"<?xml version=""1.0""?>\n<Clock xmlns:dt=""urn:schemas-microsoft-com:datatypes""><Description dt:dt=""string"">E-Prime Primary Realtime Clock</Description><StartTime><Timestamp dt:dt=""int"">0</Timestamp><DateUtc dt:dt=""string"">2018-10-10T18:01:28Z</DateUtc></StartTime><FrequencyChanges><FrequencyChange><Frequency dt:dt=""r8"">3215244</Frequency><Timestamp dt:dt=""r8"">5198719429781</Timestamp><Current dt:dt=""r8"">0</Current><DateUtc dt:dt=""string"">2018-10-10T18:01:28Z</DateUtc></FrequencyChange></FrequencyChanges></Clock>\n",KW_Experiment5A-12-1,59.944,1.0.0.105,2,1809649732,Professional,2.0.10.353,2.0.10.353,10/10/2018,10/10/2018 18:01,14:01:28,2.0.10.248,2,2,1,2,,,,,,,,TrainingProc,BlockList,12,1,Distractor1.bmp,1,0,,0,1,84871,500,,0,0,cyan,500,2,500,,vertical,cyan,Distractor1.bmp,purple,Distractor1.bmp,lime,Distractor2.bmp,blue,Distractor2.bmp,red,Target1.bmp,yellow,Distractor1.bmp,,,,TrialProc,4,TrainingTrialList,1,1,-999999,0,85371,0,1,1041,86412,Target1.bmp,red,1,,,,11,2,12
KW_Experiment5A,12,1,"<?xml version=""1.0""?>\n<Clock xmlns:dt=""urn:schemas-microsoft-com:datatypes""><Description dt:dt=""string"">E-Prime Primary Realtime Clock</Description><StartTime><Timestamp dt:dt=""int"">0</Timestamp><DateUtc dt:dt=""string"">2018-10-10T18:01:28Z</DateUtc></StartTime><FrequencyChanges><FrequencyChange><Frequency dt:dt=""r8"">3215244</Frequency><Timestamp dt:dt=""r8"">5198719429781</Timestamp><Current dt:dt=""r8"">0</Current><DateUtc dt:dt=""string"">2018-10-10T18:01:28Z</DateUtc></FrequencyChange></FrequencyChanges></Clock>\n",KW_Experiment5A-12-1,59.944,1.0.0.105,2,1809649732,Professional,2.0.10.353,2.0.10.353,10/10/2018,10/10/2018 18:01,14:01:28,2.0.10.248,2,2,1,2,,,,,,,,TrainingProc,BlockList,13,1,Distractor1.bmp,1,0,,0,1,87423,500,,0,0,blue,500,2,500,,vertical,red,Target1.bmp,cyan,Distractor1.bmp,yellow,Distractor1.bmp,purple,Distractor1.bmp,lime,Distractor1.bmp,blue,Distractor2.bmp,,,,TrialProc,3,TrainingTrialList,1,1,-999999,0,87923,0,1,729,88652,Target1.bmp,red,1,,,,7,2,13
KW_Experiment5A,12,1,"<?xml version=""1.0""?>\n<Clock xmlns:dt=""urn:schemas-microsoft-com:datatypes""><Description dt:dt=""string"">E-Prime Primary Realtime Clock</Description><StartTime><Timestamp dt:dt=""int"">0</Timestamp><DateUtc dt:dt=""string"">2018-10-10T18:01:28Z</DateUtc></StartTime><FrequencyChanges><FrequencyChange><Frequency dt:dt=""r8"">3215244</Frequency><Timestamp dt:dt=""r8"">5198719429781</Timestamp><Current dt:dt=""r8"">0</Current><DateUtc dt:dt=""string"">2018-10-10T18:01:28Z</DateUtc></FrequencyChange></FrequencyChanges></Clock>\n",KW_Experiment5A-12-1,59.944,1.0.0.105,2,1809649732,Professional,2.0.10.353,2.0.10.353,10/10/2018,10/10/2018 18:01,14:01:28,2.0.10.248,2,2,1,2,,,,,,,,TrainingProc,BlockList,14,1,Distractor1.bmp,1,0,,0,1,89675,501,,0,0,lime,500,2,500,,vertical,lime,Distractor1.bmp,red,Target1.bmp,purple,Distractor1.bmp,cyan,Distractor1.bmp,blue,Distractor2.bmp,yellow,Distractor2.bmp,,,,TrialProc,6,TrainingTrialList,1,1,-999999,1,90176,0,1,524,90700,Target1.bmp,red,1,,,,8,2,14
KW_Experiment5A,12,1,"<?xml version=""1.0""?>\n<Clock xmlns:dt=""urn:schemas-microsoft-com:datatypes""><Description dt:dt=""string"">E-Prime Primary Realtime Clock</Description><StartTime><Timestamp dt:dt=""int"">0</Timestamp><DateUtc dt:dt=""string"">2018-10-10T18:01:28Z</DateUtc></StartTime><FrequencyChanges><FrequencyChange><Frequency dt:dt=""r8"">3215244</Frequency><Timestamp dt:dt=""r8"">5198719429781</Timestamp><Current dt:dt=""r8"">0</Current><DateUtc dt:dt=""string"">2018-10-10T18:01:28Z</DateUtc></FrequencyChange></FrequencyChanges></Clock>\n",KW_Experiment5A-12-1,59.944,1.0.0.105,2,1809649732,Professional,2.0.10.353,2.0.10.353,10/10/2018,10/10/2018 18:01,14:01:28,2.0.10.248,2,2,1,2,,,,,,,,TrainingProc,BlockList,15,2,Distractor1.bmp,1,0,,0,1,91710,401,,0,0,lime,400,1,400,,horizontal,lime,Distractor2.bmp,red,Target2.bmp,cyan,Distractor1.bmp,yellow,Distractor2.bmp,purple,Distractor1.bmp,blue,Distractor2.bmp,,,,TrialProc,6,TrainingTrialList,0,2,-999999,1,92111,0,1,469,92580,Target2.bmp,red,2,,,,8,2,15
KW_Experiment5A,12,1,"<?xml version=""1.0""?>\n<Clock xmlns:dt=""urn:schemas-microsoft-com:datatypes""><Description dt:dt=""string"">E-Prime Primary Realtime Clock</Description><StartTime><Timestamp dt:dt=""int"">0</Timestamp><DateUtc dt:dt=""string"">2018-10-10T18:01:28Z</DateUtc></StartTime><FrequencyChanges><FrequencyChange><Frequency dt:dt=""r8"">3215244</Frequency><Timestamp dt:dt=""r8"">5198719429781</Timestamp><Current dt:dt=""r8"">0</Current><DateUtc dt:dt=""string"">2018-10-10T18:01:28Z</DateUtc></FrequencyChange></FrequencyChanges></Clock>\n",KW_Experiment5A-12-1,59.944,1.0.0.105,2,1809649732,Professional,2.0.10.353,2.0.10.353,10/10/2018,10/10/2018 18:01,14:01:28,2.0.10.248,2,2,1,2,,,,,,,,TrainingProc,BlockList,16,1,Distractor1.bmp,1,0,,0,1,93595,601,,0,0,lime,600,3,600,,vertical,lime,Distractor1.bmp,blue,Distractor2.bmp,yellow,Distractor2.bmp,red,Target1.bmp,purple,Distractor1.bmp,cyan,Distractor1.bmp,,,,TrialProc,6,TrainingTrialList,1,1,-999999,1,94196,0,1,832,95028,Target1.bmp,red,1,,,,10,2,16
KW_Experiment5A,12,1,"<?xml version=""1.0""?>\n<Clock xmlns:dt=""urn:schemas-microsoft-com:datatypes""><Description dt:dt=""string"">E-Prime Primary Realtime Clock</Description><StartTime><Timestamp dt:dt=""int"">0</Timestamp><DateUtc dt:dt=""string"">2018-10-10T18:01:28Z</DateUtc></StartTime><FrequencyChanges><FrequencyChange><Frequency dt:dt=""r8"">3215244</Frequency><Timestamp dt:dt=""r8"">5198719429781</Timestamp><Current dt:dt=""r8"">0</Current><DateUtc dt:dt=""string"">2018-10-10T18:01:28Z</DateUtc></FrequencyChange></FrequencyChanges></Clock>\n",KW_Experiment5A-12-1,59.944,1.0.0.105,2,1809649732,Professional,2.0.10.353,2.0.10.353,10/10/2018,10/10/2018 18:01,14:01:28,2.0.10.248,2,2,1,2,,,,,,,,TrainingProc,BlockList,17,2,Distractor1.bmp,1,0,,0,1,96048,600,,0,0,blue,600,3,600,3,horizontal,blue,Distractor1.bmp,cyan,Distractor2.bmp,lime,Target2.bmp,yellow,Distractor1.bmp,red,Distractor1.bmp,purple,Distractor2.bmp,,,,TrialProc,,TrainingTrialList,1,2,-999999,0,96648,0,2,572,97220,Target2.bmp,lime,2,,,,3,2,17
KW_Experiment5A,12,1,"<?xml version=""1.0""?>\n<Clock xmlns:dt=""urn:schemas-microsoft-com:datatypes""><Description dt:dt=""string"">E-Prime Primary Realtime Clock</Description><StartTime><Timestamp dt:dt=""int"">0</Timestamp><DateUtc dt:dt=""string"">2018-10-10T18:01:28Z</DateUtc></StartTime><FrequencyChanges><FrequencyChange><Frequency dt:dt=""r8"">3215244</Frequency><Timestamp dt:dt=""r8"">5198719429781</Timestamp><Current dt:dt=""r8"">0</Current><DateUtc dt:dt=""string"">2018-10-10T18:01:28Z</DateUtc></FrequencyChange></FrequencyChanges></Clock>\n",KW_Experiment5A-12-1,59.944,1.0.0.105,2,1809649732,Professional,2.0.10.353,2.0.10.353,10/10/2018,10/10/2018 18:01,14:01:28,2.0.10.248,2,2,1,2,,,,,,,,TrainingProc,BlockList,18,1,Distractor1.bmp,1,0,,0,1,98233,601,,0,0,lime,600,3,600,,vertical,lime,Distractor1.bmp,purple,Distractor1.bmp,yellow,Distractor2.bmp,blue,Distractor1.bmp,cyan,Distractor2.bmp,red,Target1.bmp,,,,TrialProc,6,TrainingTrialList,1,1,-999999,1,98834,0,1,650,99484,Target1.bmp,red,1,,,,12,2,18
KW_Experiment5A,12,1,"<?xml version=""1.0""?>\n<Clock xmlns:dt=""urn:schemas-microsoft-com:datatypes""><Description dt:dt=""string"">E-Prime Primary Realtime Clock</Description><StartTime><Timestamp dt:dt=""int"">0</Timestamp><DateUtc dt:dt=""string"">2018-10-10T18:01:28Z</DateUtc></StartTime><FrequencyChanges><FrequencyChange><Frequency dt:dt=""r8"">3215244</Frequency><Timestamp dt:dt=""r8"">5198719429781</Timestamp><Current dt:dt=""r8"">0</Current><DateUtc dt:dt=""string"">2018-10-10T18:01:28Z</DateUtc></FrequencyChange></FrequencyChanges></Clock>\n",KW_Experiment5A-12-1,59.944,1.0.0.105,2,1809649732,Professional,2.0.10.353,2.0.10.353,10/10/2018,10/10/2018 18:01,14:01:28,2.0.10.248,2,2,1,2,,,,,,,,TrainingProc,BlockList,19,2,Distractor2.bmp,2,0,,0,1,100502,600,,0,0,red,600,3,600,1,horizontal,red,Distractor1.bmp,lime,Target2.bmp,cyan,Distractor2.bmp,blue,Distractor2.bmp,purple,Distractor1.bmp,yellow,Distractor2.bmp,,,,TrialProc,,TrainingTrialList,1,2,-999999,0,101102,0,2,494,101596,Target2.bmp,lime,2,,,,2,2,19
KW_Experiment5A,12,1,"<?xml version=""1.0""?>\n<Clock xmlns:dt=""urn:schemas-microsoft-com:datatypes""><Description dt:dt=""string"">E-Prime Primary Realtime Clock</Description><StartTime><Timestamp dt:dt=""int"">0</Timestamp><DateUtc dt:dt=""string"">2018-10-10T18:01:28Z</DateUtc></StartTime><FrequencyChanges><FrequencyChange><Frequency dt:dt=""r8"">3215244</Frequency><Timestamp dt:dt=""r8"">5198719429781</Timestamp><Current dt:dt=""r8"">0</Current><DateUtc dt:dt=""string"">2018-10-10T18:01:28Z</DateUtc></FrequencyChange></FrequencyChanges></Clock>\n",KW_Experiment5A-12-1,59.944,1.0.0.105,2,1809649732,Professional,2.0.10.353,2.0.10.353,10/10/2018,10/10/2018 18:01,14:01:28,2.0.10.248,2,2,1,2,,,,,,,,TrainingProc,BlockList,20,2,Distractor1.bmp,1,0,,0,1,102620,401,,0,0,yellow,400,1,400,,horizontal,yellow,Distractor1.bmp,cyan,Distractor1.bmp,blue,Distractor2.bmp,lime,Distractor2.bmp,purple,Distractor2.bmp,red,Target2.bmp,,,,TrialProc,2,TrainingTrialList,0,2,-999999,1,103021,0,1,655,103676,Target2.bmp,red,2,,,,12,2,20
KW_Experiment5A,12,1,"<?xml version=""1.0""?>\n<Clock xmlns:dt=""urn:schemas-microsoft-com:datatypes""><Description dt:dt=""string"">E-Prime Primary Realtime Clock</Description><StartTime><Timestamp dt:dt=""int"">0</Timestamp><DateUtc dt:dt=""string"">2018-10-10T18:01:28Z</DateUtc></StartTime><FrequencyChanges><FrequencyChange><Frequency dt:dt=""r8"">3215244</Frequency><Timestamp dt:dt=""r8"">5198719429781</Timestamp><Current dt:dt=""r8"">0</Current><DateUtc dt:dt=""string"">2018-10-10T18:01:28Z</DateUtc></FrequencyChange></FrequencyChanges></Clock>\n",KW_Experiment5A-12-1,59.944,1.0.0.105,2,1809649732,Professional,2.0.10.353,2.0.10.353,10/10/2018,10/10/2018 18:01,14:01:28,2.0.10.248,2,2,1,2,,,,,,,,TrainingProc,BlockList,21,1,Distractor2.bmp,2,0,,0,1,104689,500,,0,0,red,500,2,500,1,vertical,red,Distractor1.bmp,blue,Distractor1.bmp,yellow,Distractor1.bmp,lime,Target1.bmp,cyan,Distractor2.bmp,purple,Distractor1.bmp,,,,TrialProc,,TrainingTrialList,1,1,-999999,0,105189,0,1,487,105676,Target1.bmp,lime,1,,,,4,2,21
KW_Experiment5A,12,1,"<?xml version=""1.0""?>\n<Clock xmlns:dt=""urn:schemas-microsoft-com:datatypes""><Description dt:dt=""string"">E-Prime Primary Realtime Clock</Description><StartTime><Timestamp dt:dt=""int"">0</Timestamp><DateUtc dt:dt=""string"">2018-10-10T18:01:28Z</DateUtc></StartTime><FrequencyChanges><FrequencyChange><Frequency dt:dt=""r8"">3215244</Frequency><Timestamp dt:dt=""r8"">5198719429781</Timestamp><Current dt:dt=""r8"">0</Current><DateUtc dt:dt=""string"">2018-10-10T18:01:28Z</DateUtc></FrequencyChange></FrequencyChanges></Clock>\n",KW_Experiment5A-12-1,59.944,1.0.0.105,2,1809649732,Professional,2.0.10.353,2.0.10.353,10/10/2018,10/10/2018 18:01,14:01:28,2.0.10.248,2,2,1,2,,,,,,,,TrainingProc,BlockList,22,1,Distractor1.bmp,1,0,,0,1,106691,600,,0,0,lime,600,3,600,,vertical,lime,Distractor1.bmp,blue,Distractor2.bmp,cyan,Distractor1.bmp,yellow,Distractor1.bmp,red,Target1.bmp,purple,Distractor1.bmp,,,,TrialProc,6,TrainingTrialList,1,1,-999999,0,107291,0,1,545,107836,Target1.bmp,red,1,,,,11,2,22
KW_Experiment5A,12,1,"<?xml version=""1.0""?>\n<Clock xmlns:dt=""urn:schemas-microsoft-com:datatypes""><Description dt:dt=""string"">E-Prime Primary Realtime Clock</Description><StartTime><Timestamp dt:dt=""int"">0</Timestamp><DateUtc dt:dt=""string"">2018-10-10T18:01:28Z</DateUtc></StartTime><FrequencyChanges><FrequencyChange><Frequency dt:dt=""r8"">3215244</Frequency><Timestamp dt:dt=""r8"">5198719429781</Timestamp><Current dt:dt=""r8"">0</Current><DateUtc dt:dt=""string"">2018-10-10T18:01:28Z</DateUtc></FrequencyChange></FrequencyChanges></Clock>\n",KW_Experiment5A-12-1,59.944,1.0.0.105,2,1809649732,Professional,2.0.10.353,2.0.10.353,10/10/2018,10/10/2018 18:01,14:01:28,2.0.10.248,2,2,1,2,,,,,,,,TrainingProc,BlockList,23,1,Distractor1.bmp,1,0,,0,1,108859,601,,0,0,cyan,600,3,600,,vertical,cyan,Distractor2.bmp,blue,Distractor1.bmp,lime,Distractor2.bmp,red,Target1.bmp,yellow,Distractor1.bmp,purple,Distractor2.bmp,,,,TrialProc,4,TrainingTrialList,1,1,-999999,1,109460,0,1,464,109924,Target1.bmp,red,1,,,,10,2,23
KW_Experiment5A,12,1,"<?xml version=""1.0""?>\n<Clock xmlns:dt=""urn:schemas-microsoft-com:datatypes""><Description dt:dt=""string"">E-Prime Primary Realtime Clock</Description><StartTime><Timestamp dt:dt=""int"">0</Timestamp><DateUtc dt:dt=""string"">2018-10-10T18:01:28Z</DateUtc></StartTime><FrequencyChanges><FrequencyChange><Frequency dt:dt=""r8"">3215244</Frequency><Timestamp dt:dt=""r8"">5198719429781</Timestamp><Current dt:dt=""r8"">0</Current><DateUtc dt:dt=""string"">2018-10-10T18:01:28Z</DateUtc></FrequencyChange></FrequencyChanges></Clock>\n",KW_Experiment5A-12-1,59.944,1.0.0.105,2,1809649732,Professional,2.0.10.353,2.0.10.353,10/10/2018,10/10/2018 18:01,14:01:28,2.0.10.248,2,2,1,2,,,,,,,,TrainingProc,BlockList,24,2,Distractor1.bmp,1,0,,0,1,110945,500,,0,0,purple,500,2,500,,horizontal,purple,Distractor2.bmp,cyan,Distractor2.bmp,red,Target2.bmp,yellow,Distractor1.bmp,lime,Distractor2.bmp,blue,Distractor2.bmp,,,,TrialProc,5,TrainingTrialList,1,2,-999999,0,111445,0,2,711,112156,Target2.bmp,red,2,,,,9,2,24
KW_Experiment5A,12,1,"<?xml version=""1.0""?>\n<Clock xmlns:dt=""urn:schemas-microsoft-com:datatypes""><Description dt:dt=""string"">E-Prime Primary Realtime Clock</Description><StartTime><Timestamp dt:dt=""int"">0</Timestamp><DateUtc dt:dt=""string"">2018-10-10T18:01:28Z</DateUtc></StartTime><FrequencyChanges><FrequencyChange><Frequency dt:dt=""r8"">3215244</Frequency><Timestamp dt:dt=""r8"">5198719429781</Timestamp><Current dt:dt=""r8"">0</Current><DateUtc dt:dt=""string"">2018-10-10T18:01:28Z</DateUtc></FrequencyChange></FrequencyChanges></Clock>\n",KW_Experiment5A-12-1,59.944,1.0.0.105,2,1809649732,Professional,2.0.10.353,2.0.10.353,10/10/2018,10/10/2018 18:01,14:01:28,2.0.10.248,2,2,1,2,,,,,,,,TrainingProc,BlockList,25,2,Distractor2.bmp,2,0,,0,1,113180,400,,0,0,lime,400,1,400,,horizontal,red,Target2.bmp,yellow,Distractor2.bmp,purple,Distractor2.bmp,cyan,Distractor2.bmp,blue,Distractor1.bmp,lime,Distractor2.bmp,,,,TrialProc,6,TrainingTrialList,1,2,-999999,0,113580,0,2,568,114148,Target2.bmp,red,2,,,,7,3,25
KW_Experiment5A,12,1,"<?xml version=""1.0""?>\n<Clock xmlns:dt=""urn:schemas-microsoft-com:datatypes""><Description dt:dt=""string"">E-Prime Primary Realtime Clock</Description><StartTime><Timestamp dt:dt=""int"">0</Timestamp><DateUtc dt:dt=""string"">2018-10-10T18:01:28Z</DateUtc></StartTime><FrequencyChanges><FrequencyChange><Frequency dt:dt=""r8"">3215244</Frequency><Timestamp dt:dt=""r8"">5198719429781</Timestamp><Current dt:dt=""r8"">0</Current><DateUtc dt:dt=""string"">2018-10-10T18:01:28Z</DateUtc></FrequencyChange></FrequencyChanges></Clock>\n",KW_Experiment5A-12-1,59.944,1.0.0.105,2,1809649732,Professional,2.0.10.353,2.0.10.353,10/10/2018,10/10/2018 18:01,14:01:28,2.0.10.248,2,2,1,2,,,,,,,,TrainingProc,BlockList,26,1,Distractor1.bmp,1,0,,0,1,115165,501,,0,0,cyan,500,2,500,4,vertical,cyan,Distractor1.bmp,yellow,Distractor2.bmp,blue,Distractor1.bmp,purple,Distractor1.bmp,red,Distractor2.bmp,lime,Target1.bmp,,,,TrialProc,,TrainingTrialList,1,1,-999999,1,115666,0,1,634,116300,Target1.bmp,lime,1,,,,6,3,26
KW_Experiment5A,12,1,"<?xml version=""1.0""?>\n<Clock xmlns:dt=""urn:schemas-microsoft-com:datatypes""><Description dt:dt=""string"">E-Prime Primary Realtime Clock</Description><StartTime><Timestamp dt:dt=""int"">0</Timestamp><DateUtc dt:dt=""string"">2018-10-10T18:01:28Z</DateUtc></StartTime><FrequencyChanges><FrequencyChange><Frequency dt:dt=""r8"">3215244</Frequency><Timestamp dt:dt=""r8"">5198719429781</Timestamp><Current dt:dt=""r8"">0</Current><DateUtc dt:dt=""string"">2018-10-10T18:01:28Z</DateUtc></FrequencyChange></FrequencyChanges></Clock>\n",KW_Experiment5A-12-1,59.944,1.0.0.105,2,1809649732,Professional,2.0.10.353,2.0.10.353,10/10/2018,10/10/2018 18:01,14:01:28,2.0.10.248,2,2,1,2,,,,,,,,TrainingProc,BlockList,27,1,Distractor1.bmp,1,0,,0,1,117317,501,,0,0,lime,500,2,500,,vertical,lime,Distractor2.bmp,cyan,Distractor1.bmp,yellow,Distractor1.bmp,red,Target1.bmp,purple,Distractor1.bmp,blue,Distractor1.bmp,,,,TrialProc,6,TrainingTrialList,1,1,-999999,1,117818,0,1,458,118276,Target1.bmp,red,1,,,,10,3,27
KW_Experiment5A,12,1,"<?xml version=""1.0""?>\n<Clock xmlns:dt=""urn:schemas-microsoft-com:datatypes""><Description dt:dt=""string"">E-Prime Primary Realtime Clock</Description><StartTime><Timestamp dt:dt=""int"">0</Timestamp><DateUtc dt:dt=""string"">2018-10-10T18:01:28Z</DateUtc></StartTime><FrequencyChanges><FrequencyChange><Frequency dt:dt=""r8"">3215244</Frequency><Timestamp dt:dt=""r8"">5198719429781</Timestamp><Current dt:dt=""r8"">0</Current><DateUtc dt:dt=""string"">2018-10-10T18:01:28Z</DateUtc></FrequencyChange></FrequencyChanges></Clock>\n",KW_Experiment5A-12-1,59.944,1.0.0.105,2,1809649732,Professional,2.0.10.353,2.0.10.353,10/10/2018,10/10/2018 18:01,14:01:28,2.0.10.248,2,2,1,2,,,,,,,,TrainingProc,BlockList,28,2,Distractor1.bmp,1,0,,0,1,119286,600,,0,0,purple,600,3,600,5,horizontal,purple,Distractor2.bmp,yellow,Distractor1.bmp,red,Distractor2.bmp,cyan,Distractor2.bmp,lime,Target2.bmp,blue,Distractor1.bmp,,,,TrialProc,,TrainingTrialList,0,2,-999999,0,119886,0,1,662,120548,Target2.bmp,lime,2,,,,5,3,28
KW_Experiment5A,12,1,"<?xml version=""1.0""?>\n<Clock xmlns:dt=""urn:schemas-microsoft-com:datatypes""><Description dt:dt=""string"">E-Prime Primary Realtime Clock</Description><StartTime><Timestamp dt:dt=""int"">0</Timestamp><DateUtc dt:dt=""string"">2018-10-10T18:01:28Z</DateUtc></StartTime><FrequencyChanges><FrequencyChange><Frequency dt:dt=""r8"">3215244</Frequency><Timestamp dt:dt=""r8"">5198719429781</Timestamp><Current dt:dt=""r8"">0</Current><DateUtc dt:dt=""string"">2018-10-10T18:01:28Z</DateUtc></FrequencyChange></FrequencyChanges></Clock>\n",KW_Experiment5A-12-1,59.944,1.0.0.105,2,1809649732,Professional,2.0.10.353,2.0.10.353,10/10/2018,10/10/2018 18:01,14:01:28,2.0.10.248,2,2,1,2,,,,,,,,TrainingProc,BlockList,29,2,Distractor1.bmp,1,0,,0,1,121571,501,,0,0,blue,500,2,500,,horizontal,blue,Distractor1.bmp,cyan,Distractor1.bmp,lime,Distractor1.bmp,yellow,Distractor1.bmp,red,Target2.bmp,purple,Distractor1.bmp,,,,TrialProc,3,TrainingTrialList,1,2,-999999,1,122072,0,2,684,122756,Target2.bmp,red,2,,,,11,3,29
KW_Experiment5A,12,1,"<?xml version=""1.0""?>\n<Clock xmlns:dt=""urn:schemas-microsoft-com:datatypes""><Description dt:dt=""string"">E-Prime Primary Realtime Clock</Description><StartTime><Timestamp dt:dt=""int"">0</Timestamp><DateUtc dt:dt=""string"">2018-10-10T18:01:28Z</DateUtc></StartTime><FrequencyChanges><FrequencyChange><Frequency dt:dt=""r8"">3215244</Frequency><Timestamp dt:dt=""r8"">5198719429781</Timestamp><Current dt:dt=""r8"">0</Current><DateUtc dt:dt=""string"">2018-10-10T18:01:28Z</DateUtc></FrequencyChange></FrequencyChanges></Clock>\n",KW_Experiment5A-12-1,59.944,1.0.0.105,2,1809649732,Professional,2.0.10.353,2.0.10.353,10/10/2018,10/10/2018 18:01,14:01:28,2.0.10.248,2,2,1,2,,,,,,,,TrainingProc,BlockList,30,2,Distractor1.bmp,1,0,,0,1,123773,400,,0,0,purple,400,1,400,,horizontal,purple,Distractor2.bmp,yellow,Distractor2.bmp,blue,Distractor2.bmp,red,Target2.bmp,cyan,Distractor1.bmp,lime,Distractor2.bmp,,,,TrialProc,5,TrainingTrialList,1,2,-999999,0,124173,0,2,503,124676,Target2.bmp,red,2,,,,10,3,30
KW_Experiment5A,12,1,"<?xml version=""1.0""?>\n<Clock xmlns:dt=""urn:schemas-microsoft-com:datatypes""><Description dt:dt=""string"">E-Prime Primary Realtime Clock</Description><StartTime><Timestamp dt:dt=""int"">0</Timestamp><DateUtc dt:dt=""string"">2018-10-10T18:01:28Z</DateUtc></StartTime><FrequencyChanges><FrequencyChange><Frequency dt:dt=""r8"">3215244</Frequency><Timestamp dt:dt=""r8"">5198719429781</Timestamp><Current dt:dt=""r8"">0</Current><DateUtc dt:dt=""string"">2018-10-10T18:01:28Z</DateUtc></FrequencyChange></FrequencyChanges></Clock>\n",KW_Experiment5A-12-1,59.944,1.0.0.105,2,1809649732,Professional,2.0.10.353,2.0.10.353,10/10/2018,10/10/2018 18:01,14:01:28,2.0.10.248,2,2,1,2,,,,,,,,TrainingProc,BlockList,31,1,Distractor2.bmp,2,0,,0,1,125692,500,,0,0,cyan,500,2,500,,vertical,red,Target1.bmp,lime,Distractor2.bmp,yellow,Distractor1.bmp,purple,Distractor1.bmp,blue,Distractor2.bmp,cyan,Distractor1.bmp,,,,TrialProc,4,TrainingTrialList,1,1,-999999,0,126192,0,1,740,126932,Target1.bmp,red,1,,,,7,3,31
KW_Experiment5A,12,1,"<?xml version=""1.0""?>\n<Clock xmlns:dt=""urn:schemas-microsoft-com:datatypes""><Description dt:dt=""string"">E-Prime Primary Realtime Clock</Description><StartTime><Timestamp dt:dt=""int"">0</Timestamp><DateUtc dt:dt=""string"">2018-10-10T18:01:28Z</DateUtc></StartTime><FrequencyChanges><FrequencyChange><Frequency dt:dt=""r8"">3215244</Frequency><Timestamp dt:dt=""r8"">5198719429781</Timestamp><Current dt:dt=""r8"">0</Current><DateUtc dt:dt=""string"">2018-10-10T18:01:28Z</DateUtc></FrequencyChange></FrequencyChanges></Clock>\n",KW_Experiment5A-12-1,59.944,1.0.0.105,2,1809649732,Professional,2.0.10.353,2.0.10.353,10/10/2018,10/10/2018 18:01,14:01:28,2.0.10.248,2,2,1,2,,,,,,,,TrainingProc,BlockList,32,1,Distractor1.bmp,1,0,,0,1,127944,600,,0,0,yellow,600,3,600,,vertical,yellow,Distractor1.bmp,lime,Distractor1.bmp,purple,Distractor2.bmp,cyan,Distractor2.bmp,blue,Distractor2.bmp,red,Target1.bmp,,,,TrialProc,2,TrainingTrialList,1,1,-999999,0,128544,0,1,468,129012,Target1.bmp,red,1,,,,12,3,32
KW_Experiment5A,12,1,"<?xml version=""1.0""?>\n<Clock xmlns:dt=""urn:schemas-microsoft-com:datatypes""><Description dt:dt=""string"">E-Prime Primary Realtime Clock</Description><StartTime><Timestamp dt:dt=""int"">0</Timestamp><DateUtc dt:dt=""string"">2018-10-10T18:01:28Z</DateUtc></StartTime><FrequencyChanges><FrequencyChange><Frequency dt:dt=""r8"">3215244</Frequency><Timestamp dt:dt=""r8"">5198719429781</Timestamp><Current dt:dt=""r8"">0</Current><DateUtc dt:dt=""string"">2018-10-10T18:01:28Z</DateUtc></FrequencyChange></FrequencyChanges></Clock>\n",KW_Experiment5A-12-1,59.944,1.0.0.105,2,1809649732,Professional,2.0.10.353,2.0.10.353,10/10/2018,10/10/2018 18:01,14:01:28,2.0.10.248,2,2,1,2,,,,,,,,TrainingProc,BlockList,33,2,Distractor1.bmp,1,0,,0,1,130029,500,,0,0,purple,500,2,500,,horizontal,purple,Distractor2.bmp,cyan,Distractor1.bmp,lime,Distractor1.bmp,red,Target2.bmp,blue,Distractor1.bmp,yellow,Distractor2.bmp,,,,TrialProc,5,TrainingTrialList,1,2,-999999,0,130529,0,2,459,130988,Target2.bmp,red,2,,,,10,3,33
KW_Experiment5A,12,1,"<?xml version=""1.0""?>\n<Clock xmlns:dt=""urn:schemas-microsoft-com:datatypes""><Description dt:dt=""string"">E-Prime Primary Realtime Clock</Description><StartTime><Timestamp dt:dt=""int"">0</Timestamp><DateUtc dt:dt=""string"">2018-10-10T18:01:28Z</DateUtc></StartTime><FrequencyChanges><FrequencyChange><Frequency dt:dt=""r8"">3215244</Frequency><Timestamp dt:dt=""r8"">5198719429781</Timestamp><Current dt:dt=""r8"">0</Current><DateUtc dt:dt=""string"">2018-10-10T18:01:28Z</DateUtc></FrequencyChange></FrequencyChanges></Clock>\n",KW_Experiment5A-12-1,59.944,1.0.0.105,2,1809649732,Professional,2.0.10.353,2.0.10.353,10/10/2018,10/10/2018 18:01,14:01:28,2.0.10.248,2,2,1,2,,,,,,,,TrainingProc,BlockList,34,2,Distractor1.bmp,1,0,,0,1,131997,401,,0,0,lime,400,1,400,,horizontal,lime,Distractor1.bmp,red,Target2.bmp,cyan,Distractor1.bmp,blue,Distractor1.bmp,yellow,Distractor1.bmp,purple,Distractor2.bmp,,,,TrialProc,6,TrainingTrialList,1,2,-999999,1,132398,0,2,454,132852,Target2.bmp,red,2,,,,8,3,34
KW_Experiment5A,12,1,"<?xml version=""1.0""?>\n<Clock xmlns:dt=""urn:schemas-microsoft-com:datatypes""><Description dt:dt=""string"">E-Prime Primary Realtime Clock</Description><StartTime><Timestamp dt:dt=""int"">0</Timestamp><DateUtc dt:dt=""string"">2018-10-10T18:01:28Z</DateUtc></StartTime><FrequencyChanges><FrequencyChange><Frequency dt:dt=""r8"">3215244</Frequency><Timestamp dt:dt=""r8"">5198719429781</Timestamp><Current dt:dt=""r8"">0</Current><DateUtc dt:dt=""string"">2018-10-10T18:01:28Z</DateUtc></FrequencyChange></FrequencyChanges></Clock>\n",KW_Experiment5A-12-1,59.944,1.0.0.105,2,1809649732,Professional,2.0.10.353,2.0.10.353,10/10/2018,10/10/2018 18:01,14:01:28,2.0.10.248,2,2,1,2,,,,,,,,TrainingProc,BlockList,35,1,Distractor1.bmp,1,0,,0,1,133866,600,,0,0,purple,600,3,600,,vertical,purple,Distractor1.bmp,cyan,Distractor1.bmp,lime,Distractor2.bmp,blue,Distractor1.bmp,yellow,Distractor1.bmp,red,Target1.bmp,,,,TrialProc,5,TrainingTrialList,1,1,-999999,0,134466,0,1,450,134916,Target1.bmp,red,1,,,,12,3,35
KW_Experiment5A,12,1,"<?xml version=""1.0""?>\n<Clock xmlns:dt=""urn:schemas-microsoft-com:datatypes""><Description dt:dt=""string"">E-Prime Primary Realtime Clock</Description><StartTime><Timestamp dt:dt=""int"">0</Timestamp><DateUtc dt:dt=""string"">2018-10-10T18:01:28Z</DateUtc></StartTime><FrequencyChanges><FrequencyChange><Frequency dt:dt=""r8"">3215244</Frequency><Timestamp dt:dt=""r8"">5198719429781</Timestamp><Current dt:dt=""r8"">0</Current><DateUtc dt:dt=""string"">2018-10-10T18:01:28Z</DateUtc></FrequencyChange></FrequencyChanges></Clock>\n",KW_Experiment5A-12-1,59.944,1.0.0.105,2,1809649732,Professional,2.0.10.353,2.0.10.353,10/10/2018,10/10/2018 18:01,14:01:28,2.0.10.248,2,2,1,2,,,,,,,,TrainingProc,BlockList,36,1,Distractor1.bmp,1,0,,0,1,135934,401,,0,0,blue,400,1,400,,vertical,red,Target1.bmp,yellow,Distractor1.bmp,purple,Distractor1.bmp,lime,Distractor2.bmp,cyan,Distractor2.bmp,blue,Distractor2.bmp,,,,TrialProc,3,TrainingTrialList,1,1,-999999,1,136335,0,1,485,136820,Target1.bmp,red,1,,,,7,3,36
KW_Experiment5A,12,1,"<?xml version=""1.0""?>\n<Clock xmlns:dt=""urn:schemas-microsoft-com:datatypes""><Description dt:dt=""string"">E-Prime Primary Realtime Clock</Description><StartTime><Timestamp dt:dt=""int"">0</Timestamp><DateUtc dt:dt=""string"">2018-10-10T18:01:28Z</DateUtc></StartTime><FrequencyChanges><FrequencyChange><Frequency dt:dt=""r8"">3215244</Frequency><Timestamp dt:dt=""r8"">5198719429781</Timestamp><Current dt:dt=""r8"">0</Current><DateUtc dt:dt=""string"">2018-10-10T18:01:28Z</DateUtc></FrequencyChange></FrequencyChanges></Clock>\n",KW_Experiment5A-12-1,59.944,1.0.0.105,2,1809649732,Professional,2.0.10.353,2.0.10.353,10/10/2018,10/10/2018 18:01,14:01:28,2.0.10.248,2,2,1,2,,,,,,,,TrainingProc,BlockList,37,1,Distractor1.bmp,1,0,,0,1,137836,601,,0,0,yellow,600,3,600,,vertical,yellow,Distractor1.bmp,red,Target1.bmp,lime,Distractor1.bmp,blue,Distractor2.bmp,cyan,Distractor2.bmp,purple,Distractor2.bmp,,,,TrialProc,2,TrainingTrialList,0,1,-999999,1,138437,0,2,375,138812,Target1.bmp,red,1,,,,8,3,37
KW_Experiment5A,12,1,"<?xml version=""1.0""?>\n<Clock xmlns:dt=""urn:schemas-microsoft-com:datatypes""><Description dt:dt=""string"">E-Prime Primary Realtime Clock</Description><StartTime><Timestamp dt:dt=""int"">0</Timestamp><DateUtc dt:dt=""string"">2018-10-10T18:01:28Z</DateUtc></StartTime><FrequencyChanges><FrequencyChange><Frequency dt:dt=""r8"">3215244</Frequency><Timestamp dt:dt=""r8"">5198719429781</Timestamp><Current dt:dt=""r8"">0</Current><DateUtc dt:dt=""string"">2018-10-10T18:01:28Z</DateUtc></FrequencyChange></FrequencyChanges></Clock>\n",KW_Experiment5A-12-1,59.944,1.0.0.105,2,1809649732,Professional,2.0.10.353,2.0.10.353,10/10/2018,10/10/2018 18:01,14:01:28,2.0.10.248,2,2,1,2,,,,,,,,TrainingProc,BlockList,38,2,Distractor1.bmp,1,0,,0,1,139838,400,,0,0,yellow,400,1,400,2,horizontal,yellow,Distractor2.bmp,red,Distractor2.bmp,cyan,Distractor1.bmp,lime,Target2.bmp,purple,Distractor1.bmp,blue,Distractor1.bmp,,,,TrialProc,,TrainingTrialList,1,2,-999999,0,140238,0,2,478,140716,Target2.bmp,lime,2,,,,4,3,38
KW_Experiment5A,12,1,"<?xml version=""1.0""?>\n<Clock xmlns:dt=""urn:schemas-microsoft-com:datatypes""><Description dt:dt=""string"">E-Prime Primary Realtime Clock</Description><StartTime><Timestamp dt:dt=""int"">0</Timestamp><DateUtc dt:dt=""string"">2018-10-10T18:01:28Z</DateUtc></StartTime><FrequencyChanges><FrequencyChange><Frequency dt:dt=""r8"">3215244</Frequency><Timestamp dt:dt=""r8"">5198719429781</Timestamp><Current dt:dt=""r8"">0</Current><DateUtc dt:dt=""string"">2018-10-10T18:01:28Z</DateUtc></FrequencyChange></FrequencyChanges></Clock>\n",KW_Experiment5A-12-1,59.944,1.0.0.105,2,1809649732,Professional,2.0.10.353,2.0.10.353,10/10/2018,10/10/2018 18:01,14:01:28,2.0.10.248,2,2,1,2,,,,,,,,TrainingProc,BlockList,39,1,Distractor2.bmp,2,0,,0,1,141740,500,,0,0,cyan,500,2,500,4,vertical,lime,Target1.bmp,cyan,Distractor2.bmp,red,Distractor1.bmp,yellow,Distractor2.bmp,blue,Distractor2.bmp,purple,Distractor2.bmp,,,,TrialProc,,TrainingTrialList,1,1,-999999,0,142240,0,1,628,142868,Target1.bmp,lime,1,,,,1,3,39
KW_Experiment5A,12,1,"<?xml version=""1.0""?>\n<Clock xmlns:dt=""urn:schemas-microsoft-com:datatypes""><Description dt:dt=""string"">E-Prime Primary Realtime Clock</Description><StartTime><Timestamp dt:dt=""int"">0</Timestamp><DateUtc dt:dt=""string"">2018-10-10T18:01:28Z</DateUtc></StartTime><FrequencyChanges><FrequencyChange><Frequency dt:dt=""r8"">3215244</Frequency><Timestamp dt:dt=""r8"">5198719429781</Timestamp><Current dt:dt=""r8"">0</Current><DateUtc dt:dt=""string"">2018-10-10T18:01:28Z</DateUtc></FrequencyChange></FrequencyChanges></Clock>\n",KW_Experiment5A-12-1,59.944,1.0.0.105,2,1809649732,Professional,2.0.10.353,2.0.10.353,10/10/2018,10/10/2018 18:01,14:01:28,2.0.10.248,2,2,1,2,,,,,,,,TrainingProc,BlockList,40,1,Distractor2.bmp,2,0,,0,1,143892,500,,0,0,lime,500,2,500,,vertical,lime,Distractor2.bmp,yellow,Distractor1.bmp,cyan,Distractor2.bmp,purple,Distractor1.bmp,red,Target1.bmp,blue,Distractor2.bmp,,,,TrialProc,6,TrainingTrialList,1,1,-999999,0,144392,0,1,516,144908,Target1.bmp,red,1,,,,11,3,40
KW_Experiment5A,12,1,"<?xml version=""1.0""?>\n<Clock xmlns:dt=""urn:schemas-microsoft-com:datatypes""><Description dt:dt=""string"">E-Prime Primary Realtime Clock</Description><StartTime><Timestamp dt:dt=""int"">0</Timestamp><DateUtc dt:dt=""string"">2018-10-10T18:01:28Z</DateUtc></StartTime><FrequencyChanges><FrequencyChange><Frequency dt:dt=""r8"">3215244</Frequency><Timestamp dt:dt=""r8"">5198719429781</Timestamp><Current dt:dt=""r8"">0</Current><DateUtc dt:dt=""string"">2018-10-10T18:01:28Z</DateUtc></FrequencyChange></FrequencyChanges></Clock>\n",KW_Experiment5A-12-1,59.944,1.0.0.105,2,1809649732,Professional,2.0.10.353,2.0.10.353,10/10/2018,10/10/2018 18:01,14:01:28,2.0.10.248,2,2,1,2,,,,,,,,TrainingProc,BlockList,41,2,Distractor2.bmp,2,0,,0,1,145927,600,,0,0,cyan,600,3,600,,horizontal,cyan,Distractor2.bmp,blue,Distractor1.bmp,red,Target2.bmp,purple,Distractor2.bmp,yellow,Distractor1.bmp,lime,Distractor2.bmp,,,,TrialProc,4,TrainingTrialList,1,2,-999999,0,146527,0,2,469,146996,Target2.bmp,red,2,,,,9,3,41
KW_Experiment5A,12,1,"<?xml version=""1.0""?>\n<Clock xmlns:dt=""urn:schemas-microsoft-com:datatypes""><Description dt:dt=""string"">E-Prime Primary Realtime Clock</Description><StartTime><Timestamp dt:dt=""int"">0</Timestamp><DateUtc dt:dt=""string"">2018-10-10T18:01:28Z</DateUtc></StartTime><FrequencyChanges><FrequencyChange><Frequency dt:dt=""r8"">3215244</Frequency><Timestamp dt:dt=""r8"">5198719429781</Timestamp><Current dt:dt=""r8"">0</Current><DateUtc dt:dt=""string"">2018-10-10T18:01:28Z</DateUtc></FrequencyChange></FrequencyChanges></Clock>\n",KW_Experiment5A-12-1,59.944,1.0.0.105,2,1809649732,Professional,2.0.10.353,2.0.10.353,10/10/2018,10/10/2018 18:01,14:01:28,2.0.10.248,2,2,1,2,,,,,,,,TrainingProc,BlockList,42,2,Distractor1.bmp,1,0,,0,1,148012,401,,0,0,blue,400,1,400,3,horizontal,blue,Distractor1.bmp,lime,Target2.bmp,purple,Distractor1.bmp,red,Distractor2.bmp,yellow,Distractor1.bmp,cyan,Distractor1.bmp,,,,TrialProc,,TrainingTrialList,1,2,-999999,1,148413,0,2,471,148884,Target2.bmp,lime,2,,,,2,3,42
KW_Experiment5A,12,1,"<?xml version=""1.0""?>\n<Clock xmlns:dt=""urn:schemas-microsoft-com:datatypes""><Description dt:dt=""string"">E-Prime Primary Realtime Clock</Description><StartTime><Timestamp dt:dt=""int"">0</Timestamp><DateUtc dt:dt=""string"">2018-10-10T18:01:28Z</DateUtc></StartTime><FrequencyChanges><FrequencyChange><Frequency dt:dt=""r8"">3215244</Frequency><Timestamp dt:dt=""r8"">5198719429781</Timestamp><Current dt:dt=""r8"">0</Current><DateUtc dt:dt=""string"">2018-10-10T18:01:28Z</DateUtc></FrequencyChange></FrequencyChanges></Clock>\n",KW_Experiment5A-12-1,59.944,1.0.0.105,2,1809649732,Professional,2.0.10.353,2.0.10.353,10/10/2018,10/10/2018 18:01,14:01:28,2.0.10.248,2,2,1,2,,,,,,,,TrainingProc,BlockList,43,1,Distractor1.bmp,1,0,,0,1,149897,501,,0,0,lime,500,2,500,,vertical,lime,Distractor1.bmp,cyan,Distractor1.bmp,red,Target1.bmp,purple,Distractor1.bmp,blue,Distractor1.bmp,yellow,Distractor1.bmp,,,,TrialProc,6,TrainingTrialList,1,1,-999999,1,150398,0,1,462,150860,Target1.bmp,red,1,,,,9,3,43
KW_Experiment5A,12,1,"<?xml version=""1.0""?>\n<Clock xmlns:dt=""urn:schemas-microsoft-com:datatypes""><Description dt:dt=""string"">E-Prime Primary Realtime Clock</Description><StartTime><Timestamp dt:dt=""int"">0</Timestamp><DateUtc dt:dt=""string"">2018-10-10T18:01:28Z</DateUtc></StartTime><FrequencyChanges><FrequencyChange><Frequency dt:dt=""r8"">3215244</Frequency><Timestamp dt:dt=""r8"">5198719429781</Timestamp><Current dt:dt=""r8"">0</Current><DateUtc dt:dt=""string"">2018-10-10T18:01:28Z</DateUtc></FrequencyChange></FrequencyChanges></Clock>\n",KW_Experiment5A-12-1,59.944,1.0.0.105,2,1809649732,Professional,2.0.10.353,2.0.10.353,10/10/2018,10/10/2018 18:01,14:01:28,2.0.10.248,2,2,1,2,,,,,,,,TrainingProc,BlockList,44,2,Distractor2.bmp,2,0,,0,0,151882,501,,0,0,cyan,500,2,500,,horizontal,cyan,Distractor2.bmp,red,Target2.bmp,purple,Distractor2.bmp,blue,Distractor1.bmp,yellow,Distractor1.bmp,lime,Distractor2.bmp,,,,TrialProc,4,TrainingTrialList,1,2,-999999,1,152383,0,2,381,152764,Target2.bmp,red,2,,,,8,3,44
KW_Experiment5A,12,1,"<?xml version=""1.0""?>\n<Clock xmlns:dt=""urn:schemas-microsoft-com:datatypes""><Description dt:dt=""string"">E-Prime Primary Realtime Clock</Description><StartTime><Timestamp dt:dt=""int"">0</Timestamp><DateUtc dt:dt=""string"">2018-10-10T18:01:28Z</DateUtc></StartTime><FrequencyChanges><FrequencyChange><Frequency dt:dt=""r8"">3215244</Frequency><Timestamp dt:dt=""r8"">5198719429781</Timestamp><Current dt:dt=""r8"">0</Current><DateUtc dt:dt=""string"">2018-10-10T18:01:28Z</DateUtc></FrequencyChange></FrequencyChanges></Clock>\n",KW_Experiment5A-12-1,59.944,1.0.0.105,2,1809649732,Professional,2.0.10.353,2.0.10.353,10/10/2018,10/10/2018 18:01,14:01:28,2.0.10.248,2,2,1,2,,,,,,,,TrainingProc,BlockList,45,2,Distractor1.bmp,1,0,,0,1,153784,401,,0,0,blue,400,1,400,,horizontal,blue,Distractor2.bmp,lime,Distractor2.bmp,red,Target2.bmp,purple,Distractor1.bmp,cyan,Distractor2.bmp,yellow,Distractor2.bmp,,,,TrialProc,3,TrainingTrialList,1,2,-999999,1,154185,0,2,579,154764,Target2.bmp,red,2,,,,9,3,45
KW_Experiment5A,12,1,"<?xml version=""1.0""?>\n<Clock xmlns:dt=""urn:schemas-microsoft-com:datatypes""><Description dt:dt=""string"">E-Prime Primary Realtime Clock</Description><StartTime><Timestamp dt:dt=""int"">0</Timestamp><DateUtc dt:dt=""string"">2018-10-10T18:01:28Z</DateUtc></StartTime><FrequencyChanges><FrequencyChange><Frequency dt:dt=""r8"">3215244</Frequency><Timestamp dt:dt=""r8"">5198719429781</Timestamp><Current dt:dt=""r8"">0</Current><DateUtc dt:dt=""string"">2018-10-10T18:01:28Z</DateUtc></FrequencyChange></FrequencyChanges></Clock>\n",KW_Experiment5A-12-1,59.944,1.0.0.105,2,1809649732,Professional,2.0.10.353,2.0.10.353,10/10/2018,10/10/2018 18:01,14:01:28,2.0.10.248,2,2,1,2,,,,,,,,TrainingProc,BlockList,46,1,Distractor1.bmp,1,0,,0,1,155786,601,,0,0,yellow,600,3,600,2,vertical,yellow,Distractor2.bmp,blue,Distractor2.bmp,lime,Target1.bmp,purple,Distractor1.bmp,red,Distractor1.bmp,cyan,Distractor2.bmp,,,,TrialProc,,TrainingTrialList,0,1,-999999,1,156387,0,2,529,156916,Target1.bmp,lime,1,,,,3,3,46
KW_Experiment5A,12,1,"<?xml version=""1.0""?>\n<Clock xmlns:dt=""urn:schemas-microsoft-com:datatypes""><Description dt:dt=""string"">E-Prime Primary Realtime Clock</Description><StartTime><Timestamp dt:dt=""int"">0</Timestamp><DateUtc dt:dt=""string"">2018-10-10T18:01:28Z</DateUtc></StartTime><FrequencyChanges><FrequencyChange><Frequency dt:dt=""r8"">3215244</Frequency><Timestamp dt:dt=""r8"">5198719429781</Timestamp><Current dt:dt=""r8"">0</Current><DateUtc dt:dt=""string"">2018-10-10T18:01:28Z</DateUtc></FrequencyChange></FrequencyChanges></Clock>\n",KW_Experiment5A-12-1,59.944,1.0.0.105,2,1809649732,Professional,2.0.10.353,2.0.10.353,10/10/2018,10/10/2018 18:01,14:01:28,2.0.10.248,2,2,1,2,,,,,,,,TrainingProc,BlockList,47,1,Distractor1.bmp,1,0,,0,1,157938,500,,0,0,lime,500,2,500,,vertical,lime,Distractor1.bmp,cyan,Distractor2.bmp,yellow,Distractor1.bmp,purple,Distractor1.bmp,red,Target1.bmp,blue,Distractor1.bmp,,,,TrialProc,6,TrainingTrialList,1,1,-999999,0,158438,0,1,478,158916,Target1.bmp,red,1,,,,11,3,47
KW_Experiment5A,12,1,"<?xml version=""1.0""?>\n<Clock xmlns:dt=""urn:schemas-microsoft-com:datatypes""><Description dt:dt=""string"">E-Prime Primary Realtime Clock</Description><StartTime><Timestamp dt:dt=""int"">0</Timestamp><DateUtc dt:dt=""string"">2018-10-10T18:01:28Z</DateUtc></StartTime><FrequencyChanges><FrequencyChange><Frequency dt:dt=""r8"">3215244</Frequency><Timestamp dt:dt=""r8"">5198719429781</Timestamp><Current dt:dt=""r8"">0</Current><DateUtc dt:dt=""string"">2018-10-10T18:01:28Z</DateUtc></FrequencyChange></FrequencyChanges></Clock>\n",KW_Experiment5A-12-1,59.944,1.0.0.105,2,1809649732,Professional,2.0.10.353,2.0.10.353,10/10/2018,10/10/2018 18:01,14:01:28,2.0.10.248,2,2,1,2,,,,,,,,TrainingProc,BlockList,48,1,Distractor2.bmp,2,0,,0,1,159940,600,,0,0,blue,600,3,600,,vertical,blue,Distractor2.bmp,cyan,Distractor2.bmp,yellow,Distractor1.bmp,lime,Distractor1.bmp,purple,Distractor2.bmp,red,Target1.bmp,,,,TrialProc,3,TrainingTrialList,1,1,-999999,0,160540,0,1,488,161028,Target1.bmp,red,1,,,,12,3,48
KW_Experiment5A,12,1,"<?xml version=""1.0""?>\n<Clock xmlns:dt=""urn:schemas-microsoft-com:datatypes""><Description dt:dt=""string"">E-Prime Primary Realtime Clock</Description><StartTime><Timestamp dt:dt=""int"">0</Timestamp><DateUtc dt:dt=""string"">2018-10-10T18:01:28Z</DateUtc></StartTime><FrequencyChanges><FrequencyChange><Frequency dt:dt=""r8"">3215244</Frequency><Timestamp dt:dt=""r8"">5198719429781</Timestamp><Current dt:dt=""r8"">0</Current><DateUtc dt:dt=""string"">2018-10-10T18:01:28Z</DateUtc></FrequencyChange></FrequencyChanges></Clock>\n",KW_Experiment5A-12-1,59.944,1.0.0.105,2,1809649732,Professional,2.0.10.353,2.0.10.353,10/10/2018,10/10/2018 18:01,14:01:28,2.0.10.248,3,2,1,3,,,,,,,,TrainingProc,BlockList,1,2,Distractor1.bmp,1,0,,0,23,164611,600,,0,0,blue,600,3,600,,horizontal,blue,Distractor1.bmp,lime,Distractor2.bmp,purple,Distractor2.bmp,red,Target2.bmp,cyan,Distractor1.bmp,yellow,Distractor1.bmp,,,,TrialProc,3,TrainingTrialList,1,2,-999999,0,165211,0,2,721,165932,Target2.bmp,red,2,,,,10,4,49
KW_Experiment5A,12,1,"<?xml version=""1.0""?>\n<Clock xmlns:dt=""urn:schemas-microsoft-com:datatypes""><Description dt:dt=""string"">E-Prime Primary Realtime Clock</Description><StartTime><Timestamp dt:dt=""int"">0</Timestamp><DateUtc dt:dt=""string"">2018-10-10T18:01:28Z</DateUtc></StartTime><FrequencyChanges><FrequencyChange><Frequency dt:dt=""r8"">3215244</Frequency><Timestamp dt:dt=""r8"">5198719429781</Timestamp><Current dt:dt=""r8"">0</Current><DateUtc dt:dt=""string"">2018-10-10T18:01:28Z</DateUtc></FrequencyChange></FrequencyChanges></Clock>\n",KW_Experiment5A-12-1,59.944,1.0.0.105,2,1809649732,Professional,2.0.10.353,2.0.10.353,10/10/2018,10/10/2018 18:01,14:01:28,2.0.10.248,3,2,1,3,,,,,,,,TrainingProc,BlockList,2,1,Distractor1.bmp,1,0,,0,1,166946,501,,0,0,purple,500,2,500,,vertical,red,Target1.bmp,yellow,Distractor1.bmp,cyan,Distractor2.bmp,blue,Distractor2.bmp,lime,Distractor2.bmp,purple,Distractor2.bmp,,,,TrialProc,5,TrainingTrialList,1,1,-999999,1,167447,0,1,629,168076,Target1.bmp,red,1,,,,7,4,50
KW_Experiment5A,12,1,"<?xml version=""1.0""?>\n<Clock xmlns:dt=""urn:schemas-microsoft-com:datatypes""><Description dt:dt=""string"">E-Prime Primary Realtime Clock</Description><StartTime><Timestamp dt:dt=""int"">0</Timestamp><DateUtc dt:dt=""string"">2018-10-10T18:01:28Z</DateUtc></StartTime><FrequencyChanges><FrequencyChange><Frequency dt:dt=""r8"">3215244</Frequency><Timestamp dt:dt=""r8"">5198719429781</Timestamp><Current dt:dt=""r8"">0</Current><DateUtc dt:dt=""string"">2018-10-10T18:01:28Z</DateUtc></FrequencyChange></FrequencyChanges></Clock>\n",KW_Experiment5A-12-1,59.944,1.0.0.105,2,1809649732,Professional,2.0.10.353,2.0.10.353,10/10/2018,10/10/2018 18:01,14:01:28,2.0.10.248,3,2,1,3,,,,,,,,TrainingProc,BlockList,3,2,Distractor2.bmp,2,0,,0,1,169098,401,,0,0,red,400,1,400,1,horizontal,red,Distractor2.bmp,purple,Distractor2.bmp,blue,Distractor1.bmp,yellow,Distractor1.bmp,cyan,Distractor2.bmp,lime,Target2.bmp,,,,TrialProc,,TrainingTrialList,1,2,-999999,1,169499,0,2,657,170156,Target2.bmp,lime,2,,,,6,4,51
KW_Experiment5A,12,1,"<?xml version=""1.0""?>\n<Clock xmlns:dt=""urn:schemas-microsoft-com:datatypes""><Description dt:dt=""string"">E-Prime Primary Realtime Clock</Description><StartTime><Timestamp dt:dt=""int"">0</Timestamp><DateUtc dt:dt=""string"">2018-10-10T18:01:28Z</DateUtc></StartTime><FrequencyChanges><FrequencyChange><Frequency dt:dt=""r8"">3215244</Frequency><Timestamp dt:dt=""r8"">5198719429781</Timestamp><Current dt:dt=""r8"">0</Current><DateUtc dt:dt=""string"">2018-10-10T18:01:28Z</DateUtc></FrequencyChange></FrequencyChanges></Clock>\n",KW_Experiment5A-12-1,59.944,1.0.0.105,2,1809649732,Professional,2.0.10.353,2.0.10.353,10/10/2018,10/10/2018 18:01,14:01:28,2.0.10.248,3,2,1,3,,,,,,,,TrainingProc,BlockList,4,1,Distractor1.bmp,1,0,,0,1,171167,400,,0,0,blue,400,1,400,,vertical,blue,Distractor1.bmp,lime,Distractor1.bmp,yellow,Distractor1.bmp,purple,Distractor2.bmp,cyan,Distractor2.bmp,red,Target1.bmp,,,,TrialProc,3,TrainingTrialList,0,1,-999999,0,171567,0,2,525,172092,Target1.bmp,red,1,,,,12,4,52
KW_Experiment5A,12,1,"<?xml version=""1.0""?>\n<Clock xmlns:dt=""urn:schemas-microsoft-com:datatypes""><Description dt:dt=""string"">E-Prime Primary Realtime Clock</Description><StartTime><Timestamp dt:dt=""int"">0</Timestamp><DateUtc dt:dt=""string"">2018-10-10T18:01:28Z</DateUtc></StartTime><FrequencyChanges><FrequencyChange><Frequency dt:dt=""r8"">3215244</Frequency><Timestamp dt:dt=""r8"">5198719429781</Timestamp><Current dt:dt=""r8"">0</Current><DateUtc dt:dt=""string"">2018-10-10T18:01:28Z</DateUtc></FrequencyChange></FrequencyChanges></Clock>\n",KW_Experiment5A-12-1,59.944,1.0.0.105,2,1809649732,Professional,2.0.10.353,2.0.10.353,10/10/2018,10/10/2018 18:01,14:01:28,2.0.10.248,3,2,1,3,,,,,,,,TrainingProc,BlockList,5,2,Distractor2.bmp,2,0,,0,1,173119,500,,0,0,lime,500,2,500,,horizontal,lime,Distractor1.bmp,blue,Distractor1.bmp,cyan,Distractor1.bmp,yellow,Distractor2.bmp,red,Target2.bmp,purple,Distractor2.bmp,,,,TrialProc,6,TrainingTrialList,0,2,-999999,0,173619,0,1,561,174180,Target2.bmp,red,2,,,,11,4,53
KW_Experiment5A,12,1,"<?xml version=""1.0""?>\n<Clock xmlns:dt=""urn:schemas-microsoft-com:datatypes""><Description dt:dt=""string"">E-Prime Primary Realtime Clock</Description><StartTime><Timestamp dt:dt=""int"">0</Timestamp><DateUtc dt:dt=""string"">2018-10-10T18:01:28Z</DateUtc></StartTime><FrequencyChanges><FrequencyChange><Frequency dt:dt=""r8"">3215244</Frequency><Timestamp dt:dt=""r8"">5198719429781</Timestamp><Current dt:dt=""r8"">0</Current><DateUtc dt:dt=""string"">2018-10-10T18:01:28Z</DateUtc></FrequencyChange></FrequencyChanges></Clock>\n",KW_Experiment5A-12-1,59.944,1.0.0.105,2,1809649732,Professional,2.0.10.353,2.0.10.353,10/10/2018,10/10/2018 18:01,14:01:28,2.0.10.248,3,2,1,3,,,,,,,,TrainingProc,BlockList,6,2,Distractor1.bmp,1,0,,0,1,175204,600,,0,0,lime,600,3,600,,horizontal,lime,Distractor2.bmp,red,Target2.bmp,yellow,Distractor1.bmp,purple,Distractor1.bmp,blue,Distractor2.bmp,cyan,Distractor1.bmp,,,,TrialProc,6,TrainingTrialList,1,2,-999999,0,175804,0,2,552,176356,Target2.bmp,red,2,,,,8,4,54
KW_Experiment5A,12,1,"<?xml version=""1.0""?>\n<Clock xmlns:dt=""urn:schemas-microsoft-com:datatypes""><Description dt:dt=""string"">E-Prime Primary Realtime Clock</Description><StartTime><Timestamp dt:dt=""int"">0</Timestamp><DateUtc dt:dt=""string"">2018-10-10T18:01:28Z</DateUtc></StartTime><FrequencyChanges><FrequencyChange><Frequency dt:dt=""r8"">3215244</Frequency><Timestamp dt:dt=""r8"">5198719429781</Timestamp><Current dt:dt=""r8"">0</Current><DateUtc dt:dt=""string"">2018-10-10T18:01:28Z</DateUtc></FrequencyChange></FrequencyChanges></Clock>\n",KW_Experiment5A-12-1,59.944,1.0.0.105,2,1809649732,Professional,2.0.10.353,2.0.10.353,10/10/2018,10/10/2018 18:01,14:01:28,2.0.10.248,3,2,1,3,,,,,,,,TrainingProc,BlockList,7,1,Distractor1.bmp,1,0,,0,1,177373,500,,0,0,yellow,500,2,500,,vertical,yellow,Distractor1.bmp,red,Target1.bmp,lime,Distractor1.bmp,blue,Distractor2.bmp,purple,Distractor2.bmp,cyan,Distractor1.bmp,,,,TrialProc,2,TrainingTrialList,1,1,-999999,0,177873,0,1,579,178452,Target1.bmp,red,1,,,,8,4,55
KW_Experiment5A,12,1,"<?xml version=""1.0""?>\n<Clock xmlns:dt=""urn:schemas-microsoft-com:datatypes""><Description dt:dt=""string"">E-Prime Primary Realtime Clock</Description><StartTime><Timestamp dt:dt=""int"">0</Timestamp><DateUtc dt:dt=""string"">2018-10-10T18:01:28Z</DateUtc></StartTime><FrequencyChanges><FrequencyChange><Frequency dt:dt=""r8"">3215244</Frequency><Timestamp dt:dt=""r8"">5198719429781</Timestamp><Current dt:dt=""r8"">0</Current><DateUtc dt:dt=""string"">2018-10-10T18:01:28Z</DateUtc></FrequencyChange></FrequencyChanges></Clock>\n",KW_Experiment5A-12-1,59.944,1.0.0.105,2,1809649732,Professional,2.0.10.353,2.0.10.353,10/10/2018,10/10/2018 18:01,14:01:28,2.0.10.248,3,2,1,3,,,,,,,,TrainingProc,BlockList,8,1,Distractor2.bmp,2,0,,0,1,179475,400,,0,0,purple,400,1,400,,vertical,purple,Distractor1.bmp,cyan,Distractor1.bmp,red,Target1.bmp,lime,Distractor2.bmp,blue,Distractor1.bmp,yellow,Distractor1.bmp,,,,TrialProc,5,TrainingTrialList,1,1,-999999,0,179875,0,1,673,180548,Target1.bmp,red,1,,,,9,4,56
KW_Experiment5A,12,1,"<?xml version=""1.0""?>\n<Clock xmlns:dt=""urn:schemas-microsoft-com:datatypes""><Description dt:dt=""string"">E-Prime Primary Realtime Clock</Description><StartTime><Timestamp dt:dt=""int"">0</Timestamp><DateUtc dt:dt=""string"">2018-10-10T18:01:28Z</DateUtc></StartTime><FrequencyChanges><FrequencyChange><Frequency dt:dt=""r8"">3215244</Frequency><Timestamp dt:dt=""r8"">5198719429781</Timestamp><Current dt:dt=""r8"">0</Current><DateUtc dt:dt=""string"">2018-10-10T18:01:28Z</DateUtc></FrequencyChange></FrequencyChanges></Clock>\n",KW_Experiment5A-12-1,59.944,1.0.0.105,2,1809649732,Professional,2.0.10.353,2.0.10.353,10/10/2018,10/10/2018 18:01,14:01:28,2.0.10.248,3,2,1,3,,,,,,,,TrainingProc,BlockList,9,1,Distractor1.bmp,1,0,,0,1,181560,500,,0,0,red,500,2,500,1,vertical,red,Distractor2.bmp,cyan,Distractor1.bmp,blue,Distractor1.bmp,lime,Target1.bmp,yellow,Distractor1.bmp,purple,Distractor1.bmp,,,,TrialProc,,TrainingTrialList,1,1,-999999,0,182060,0,1,464,182524,Target1.bmp,lime,1,,,,4,4,57
KW_Experiment5A,12,1,"<?xml version=""1.0""?>\n<Clock xmlns:dt=""urn:schemas-microsoft-com:datatypes""><Description dt:dt=""string"">E-Prime Primary Realtime Clock</Description><StartTime><Timestamp dt:dt=""int"">0</Timestamp><DateUtc dt:dt=""string"">2018-10-10T18:01:28Z</DateUtc></StartTime><FrequencyChanges><FrequencyChange><Frequency dt:dt=""r8"">3215244</Frequency><Timestamp dt:dt=""r8"">5198719429781</Timestamp><Current dt:dt=""r8"">0</Current><DateUtc dt:dt=""string"">2018-10-10T18:01:28Z</DateUtc></FrequencyChange></FrequencyChanges></Clock>\n",KW_Experiment5A-12-1,59.944,1.0.0.105,2,1809649732,Professional,2.0.10.353,2.0.10.353,10/10/2018,10/10/2018 18:01,14:01:28,2.0.10.248,3,2,1,3,,,,,,,,TrainingProc,BlockList,10,2,Distractor2.bmp,2,0,,0,1,183545,500,,0,0,blue,500,2,500,3,horizontal,blue,Distractor2.bmp,lime,Target2.bmp,purple,Distractor2.bmp,cyan,Distractor1.bmp,yellow,Distractor2.bmp,red,Distractor2.bmp,,,,TrialProc,,TrainingTrialList,1,2,-999999,0,184045,0,2,343,184388,Target2.bmp,lime,2,,,,2,4,58
KW_Experiment5A,12,1,"<?xml version=""1.0""?>\n<Clock xmlns:dt=""urn:schemas-microsoft-com:datatypes""><Description dt:dt=""string"">E-Prime Primary Realtime Clock</Description><StartTime><Timestamp dt:dt=""int"">0</Timestamp><DateUtc dt:dt=""string"">2018-10-10T18:01:28Z</DateUtc></StartTime><FrequencyChanges><FrequencyChange><Frequency dt:dt=""r8"">3215244</Frequency><Timestamp dt:dt=""r8"">5198719429781</Timestamp><Current dt:dt=""r8"">0</Current><DateUtc dt:dt=""string"">2018-10-10T18:01:28Z</DateUtc></FrequencyChange></FrequencyChanges></Clock>\n",KW_Experiment5A-12-1,59.944,1.0.0.105,2,1809649732,Professional,2.0.10.353,2.0.10.353,10/10/2018,10/10/2018 18:01,14:01:28,2.0.10.248,3,2,1,3,,,,,,,,TrainingProc,BlockList,11,2,Distractor2.bmp,2,0,,0,1,185397,600,,0,0,blue,600,3,600,,horizontal,blue,Distractor2.bmp,cyan,Distractor2.bmp,lime,Distractor2.bmp,purple,Distractor2.bmp,yellow,Distractor2.bmp,red,Target2.bmp,,,,TrialProc,3,TrainingTrialList,0,2,-999999,0,185997,0,1,423,186420,Target2.bmp,red,2,,,,12,4,59
KW_Experiment5A,12,1,"<?xml version=""1.0""?>\n<Clock xmlns:dt=""urn:schemas-microsoft-com:datatypes""><Description dt:dt=""string"">E-Prime Primary Realtime Clock</Description><StartTime><Timestamp dt:dt=""int"">0</Timestamp><DateUtc dt:dt=""string"">2018-10-10T18:01:28Z</DateUtc></StartTime><FrequencyChanges><FrequencyChange><Frequency dt:dt=""r8"">3215244</Frequency><Timestamp dt:dt=""r8"">5198719429781</Timestamp><Current dt:dt=""r8"">0</Current><DateUtc dt:dt=""string"">2018-10-10T18:01:28Z</DateUtc></FrequencyChange></FrequencyChanges></Clock>\n",KW_Experiment5A-12-1,59.944,1.0.0.105,2,1809649732,Professional,2.0.10.353,2.0.10.353,10/10/2018,10/10/2018 18:01,14:01:28,2.0.10.248,3,2,1,3,,,,,,,,TrainingProc,BlockList,12,1,Distractor2.bmp,2,0,,0,1,187432,400,,0,0,cyan,400,1,400,,vertical,cyan,Distractor2.bmp,blue,Distractor2.bmp,red,Target1.bmp,yellow,Distractor2.bmp,lime,Distractor1.bmp,purple,Distractor1.bmp,,,,TrialProc,4,TrainingTrialList,1,1,-999999,0,187832,0,1,468,188300,Target1.bmp,red,1,,,,9,4,60
KW_Experiment5A,12,1,"<?xml version=""1.0""?>\n<Clock xmlns:dt=""urn:schemas-microsoft-com:datatypes""><Description dt:dt=""string"">E-Prime Primary Realtime Clock</Description><StartTime><Timestamp dt:dt=""int"">0</Timestamp><DateUtc dt:dt=""string"">2018-10-10T18:01:28Z</DateUtc></StartTime><FrequencyChanges><FrequencyChange><Frequency dt:dt=""r8"">3215244</Frequency><Timestamp dt:dt=""r8"">5198719429781</Timestamp><Current dt:dt=""r8"">0</Current><DateUtc dt:dt=""string"">2018-10-10T18:01:28Z</DateUtc></FrequencyChange></FrequencyChanges></Clock>\n",KW_Experiment5A-12-1,59.944,1.0.0.105,2,1809649732,Professional,2.0.10.353,2.0.10.353,10/10/2018,10/10/2018 18:01,14:01:28,2.0.10.248,3,2,1,3,,,,,,,,TrainingProc,BlockList,13,2,Distractor1.bmp,1,0,,0,1,189317,400,,0,0,purple,400,1,400,,horizontal,purple,Distractor2.bmp,lime,Distractor2.bmp,red,Target2.bmp,cyan,Distractor1.bmp,blue,Distractor2.bmp,yellow,Distractor2.bmp,,,,TrialProc,5,TrainingTrialList,1,2,-999999,0,189717,0,2,462,190179,Target2.bmp,red,2,,,,9,4,61
KW_Experiment5A,12,1,"<?xml version=""1.0""?>\n<Clock xmlns:dt=""urn:schemas-microsoft-com:datatypes""><Description dt:dt=""string"">E-Prime Primary Realtime Clock</Description><StartTime><Timestamp dt:dt=""int"">0</Timestamp><DateUtc dt:dt=""string"">2018-10-10T18:01:28Z</DateUtc></StartTime><FrequencyChanges><FrequencyChange><Frequency dt:dt=""r8"">3215244</Frequency><Timestamp dt:dt=""r8"">5198719429781</Timestamp><Current dt:dt=""r8"">0</Current><DateUtc dt:dt=""string"">2018-10-10T18:01:28Z</DateUtc></FrequencyChange></FrequencyChanges></Clock>\n",KW_Experiment5A-12-1,59.944,1.0.0.105,2,1809649732,Professional,2.0.10.353,2.0.10.353,10/10/2018,10/10/2018 18:01,14:01:28,2.0.10.248,3,2,1,3,,,,,,,,TrainingProc,BlockList,14,1,Distractor2.bmp,2,0,,0,1,191202,500,,0,0,lime,500,2,500,,vertical,lime,Distractor1.bmp,purple,Distractor1.bmp,cyan,Distractor1.bmp,red,Target1.bmp,blue,Distractor2.bmp,yellow,Distractor1.bmp,,,,TrialProc,6,TrainingTrialList,1,1,-999999,0,191702,0,1,437,192139,Target1.bmp,red,1,,,,10,4,62
KW_Experiment5A,12,1,"<?xml version=""1.0""?>\n<Clock xmlns:dt=""urn:schemas-microsoft-com:datatypes""><Description dt:dt=""string"">E-Prime Primary Realtime Clock</Description><StartTime><Timestamp dt:dt=""int"">0</Timestamp><DateUtc dt:dt=""string"">2018-10-10T18:01:28Z</DateUtc></StartTime><FrequencyChanges><FrequencyChange><Frequency dt:dt=""r8"">3215244</Frequency><Timestamp dt:dt=""r8"">5198719429781</Timestamp><Current dt:dt=""r8"">0</Current><DateUtc dt:dt=""string"">2018-10-10T18:01:28Z</DateUtc></FrequencyChange></FrequencyChanges></Clock>\n",KW_Experiment5A-12-1,59.944,1.0.0.105,2,1809649732,Professional,2.0.10.353,2.0.10.353,10/10/2018,10/10/2018 18:01,14:01:28,2.0.10.248,3,2,1,3,,,,,,,,TrainingProc,BlockList,15,2,Distractor1.bmp,1,0,,0,1,193154,400,,0,0,blue,400,1,400,3,horizontal,lime,Target2.bmp,blue,Distractor1.bmp,yellow,Distractor2.bmp,purple,Distractor1.bmp,red,Distractor1.bmp,cyan,Distractor2.bmp,,,,TrialProc,,TrainingTrialList,0,2,-999999,0,193554,0,1,729,194283,Target2.bmp,lime,2,,,,1,4,63
KW_Experiment5A,12,1,"<?xml version=""1.0""?>\n<Clock xmlns:dt=""urn:schemas-microsoft-com:datatypes""><Description dt:dt=""string"">E-Prime Primary Realtime Clock</Description><StartTime><Timestamp dt:dt=""int"">0</Timestamp><DateUtc dt:dt=""string"">2018-10-10T18:01:28Z</DateUtc></StartTime><FrequencyChanges><FrequencyChange><Frequency dt:dt=""r8"">3215244</Frequency><Timestamp dt:dt=""r8"">5198719429781</Timestamp><Current dt:dt=""r8"">0</Current><DateUtc dt:dt=""string"">2018-10-10T18:01:28Z</DateUtc></FrequencyChange></FrequencyChanges></Clock>\n",KW_Experiment5A-12-1,59.944,1.0.0.105,2,1809649732,Professional,2.0.10.353,2.0.10.353,10/10/2018,10/10/2018 18:01,14:01:28,2.0.10.248,3,2,1,3,,,,,,,,TrainingProc,BlockList,16,1,Distractor2.bmp,2,0,,0,1,195306,600,,0,0,blue,600,3,600,,vertical,red,Target1.bmp,lime,Distractor2.bmp,cyan,Distractor1.bmp,purple,Distractor2.bmp,yellow,Distractor2.bmp,blue,Distractor2.bmp,,,,TrialProc,3,TrainingTrialList,1,1,-999999,0,195906,0,1,665,196571,Target1.bmp,red,1,,,,7,4,64
KW_Experiment5A,12,1,"<?xml version=""1.0""?>\n<Clock xmlns:dt=""urn:schemas-microsoft-com:datatypes""><Description dt:dt=""string"">E-Prime Primary Realtime Clock</Description><StartTime><Timestamp dt:dt=""int"">0</Timestamp><DateUtc dt:dt=""string"">2018-10-10T18:01:28Z</DateUtc></StartTime><FrequencyChanges><FrequencyChange><Frequency dt:dt=""r8"">3215244</Frequency><Timestamp dt:dt=""r8"">5198719429781</Timestamp><Current dt:dt=""r8"">0</Current><DateUtc dt:dt=""string"">2018-10-10T18:01:28Z</DateUtc></FrequencyChange></FrequencyChanges></Clock>\n",KW_Experiment5A-12-1,59.944,1.0.0.105,2,1809649732,Professional,2.0.10.353,2.0.10.353,10/10/2018,10/10/2018 18:01,14:01:28,2.0.10.248,3,2,1,3,,,,,,,,TrainingProc,BlockList,17,1,Distractor1.bmp,1,0,,0,1,197591,401,,0,0,cyan,400,1,400,,vertical,cyan,Distractor1.bmp,lime,Distractor1.bmp,blue,Distractor2.bmp,yellow,Distractor2.bmp,red,Target1.bmp,purple,Distractor1.bmp,,,,TrialProc,4,TrainingTrialList,1,1,-999999,1,197992,0,1,507,198499,Target1.bmp,red,1,,,,11,4,65
KW_Experiment5A,12,1,"<?xml version=""1.0""?>\n<Clock xmlns:dt=""urn:schemas-microsoft-com:datatypes""><Description dt:dt=""string"">E-Prime Primary Realtime Clock</Description><StartTime><Timestamp dt:dt=""int"">0</Timestamp><DateUtc dt:dt=""string"">2018-10-10T18:01:28Z</DateUtc></StartTime><FrequencyChanges><FrequencyChange><Frequency dt:dt=""r8"">3215244</Frequency><Timestamp dt:dt=""r8"">5198719429781</Timestamp><Current dt:dt=""r8"">0</Current><DateUtc dt:dt=""string"">2018-10-10T18:01:28Z</DateUtc></FrequencyChange></FrequencyChanges></Clock>\n",KW_Experiment5A-12-1,59.944,1.0.0.105,2,1809649732,Professional,2.0.10.353,2.0.10.353,10/10/2018,10/10/2018 18:01,14:01:28,2.0.10.248,3,2,1,3,,,,,,,,TrainingProc,BlockList,18,2,Distractor2.bmp,2,0,,0,1,199510,500,,0,0,yellow,500,2,500,,horizontal,yellow,Distractor1.bmp,red,Target2.bmp,lime,Distractor2.bmp,blue,Distractor2.bmp,cyan,Distractor1.bmp,purple,Distractor1.bmp,,,,TrialProc,2,TrainingTrialList,1,2,-999999,0,200010,0,2,489,200499,Target2.bmp,red,2,,,,8,4,66
KW_Experiment5A,12,1,"<?xml version=""1.0""?>\n<Clock xmlns:dt=""urn:schemas-microsoft-com:datatypes""><Description dt:dt=""string"">E-Prime Primary Realtime Clock</Description><StartTime><Timestamp dt:dt=""int"">0</Timestamp><DateUtc dt:dt=""string"">2018-10-10T18:01:28Z</DateUtc></StartTime><FrequencyChanges><FrequencyChange><Frequency dt:dt=""r8"">3215244</Frequency><Timestamp dt:dt=""r8"">5198719429781</Timestamp><Current dt:dt=""r8"">0</Current><DateUtc dt:dt=""string"">2018-10-10T18:01:28Z</DateUtc></FrequencyChange></FrequencyChanges></Clock>\n",KW_Experiment5A-12-1,59.944,1.0.0.105,2,1809649732,Professional,2.0.10.353,2.0.10.353,10/10/2018,10/10/2018 18:01,14:01:28,2.0.10.248,3,2,1,3,,,,,,,,TrainingProc,BlockList,19,1,Distractor2.bmp,2,0,,0,1,201512,600,,0,0,blue,600,3,600,,vertical,red,Target1.bmp,yellow,Distractor2.bmp,lime,Distractor1.bmp,cyan,Distractor1.bmp,purple,Distractor2.bmp,blue,Distractor2.bmp,,,,TrialProc,3,TrainingTrialList,1,1,-999999,0,202112,0,1,499,202611,Target1.bmp,red,1,,,,7,4,67
KW_Experiment5A,12,1,"<?xml version=""1.0""?>\n<Clock xmlns:dt=""urn:schemas-microsoft-com:datatypes""><Description dt:dt=""string"">E-Prime Primary Realtime Clock</Description><StartTime><Timestamp dt:dt=""int"">0</Timestamp><DateUtc dt:dt=""string"">2018-10-10T18:01:28Z</DateUtc></StartTime><FrequencyChanges><FrequencyChange><Frequency dt:dt=""r8"">3215244</Frequency><Timestamp dt:dt=""r8"">5198719429781</Timestamp><Current dt:dt=""r8"">0</Current><DateUtc dt:dt=""string"">2018-10-10T18:01:28Z</DateUtc></FrequencyChange></FrequencyChanges></Clock>\n",KW_Experiment5A-12-1,59.944,1.0.0.105,2,1809649732,Professional,2.0.10.353,2.0.10.353,10/10/2018,10/10/2018 18:01,14:01:28,2.0.10.248,3,2,1,3,,,,,,,,TrainingProc,BlockList,20,1,Distractor2.bmp,2,0,,0,1,203630,401,,0,0,blue,400,1,400,,vertical,blue,Distractor2.bmp,lime,Distractor1.bmp,cyan,Distractor1.bmp,purple,Distractor2.bmp,red,Target1.bmp,yellow,Distractor2.bmp,,,,TrialProc,3,TrainingTrialList,1,1,-999999,1,204031,0,1,460,204491,Target1.bmp,red,1,,,,11,4,68
KW_Experiment5A,12,1,"<?xml version=""1.0""?>\n<Clock xmlns:dt=""urn:schemas-microsoft-com:datatypes""><Description dt:dt=""string"">E-Prime Primary Realtime Clock</Description><StartTime><Timestamp dt:dt=""int"">0</Timestamp><DateUtc dt:dt=""string"">2018-10-10T18:01:28Z</DateUtc></StartTime><FrequencyChanges><FrequencyChange><Frequency dt:dt=""r8"">3215244</Frequency><Timestamp dt:dt=""r8"">5198719429781</Timestamp><Current dt:dt=""r8"">0</Current><DateUtc dt:dt=""string"">2018-10-10T18:01:28Z</DateUtc></FrequencyChange></FrequencyChanges></Clock>\n",KW_Experiment5A-12-1,59.944,1.0.0.105,2,1809649732,Professional,2.0.10.353,2.0.10.353,10/10/2018,10/10/2018 18:01,14:01:28,2.0.10.248,3,2,1,3,,,,,,,,TrainingProc,BlockList,21,1,Distractor1.bmp,1,0,,0,1,205515,601,,0,0,cyan,600,3,600,,vertical,cyan,Distractor1.bmp,blue,Distractor2.bmp,lime,Distractor2.bmp,red,Target1.bmp,yellow,Distractor1.bmp,purple,Distractor2.bmp,,,,TrialProc,4,TrainingTrialList,1,1,-999999,1,206116,0,1,527,206643,Target1.bmp,red,1,,,,10,4,69
KW_Experiment5A,12,1,"<?xml version=""1.0""?>\n<Clock xmlns:dt=""urn:schemas-microsoft-com:datatypes""><Description dt:dt=""string"">E-Prime Primary Realtime Clock</Description><StartTime><Timestamp dt:dt=""int"">0</Timestamp><DateUtc dt:dt=""string"">2018-10-10T18:01:28Z</DateUtc></StartTime><FrequencyChanges><FrequencyChange><Frequency dt:dt=""r8"">3215244</Frequency><Timestamp dt:dt=""r8"">5198719429781</Timestamp><Current dt:dt=""r8"">0</Current><DateUtc dt:dt=""string"">2018-10-10T18:01:28Z</DateUtc></FrequencyChange></FrequencyChanges></Clock>\n",KW_Experiment5A-12-1,59.944,1.0.0.105,2,1809649732,Professional,2.0.10.353,2.0.10.353,10/10/2018,10/10/2018 18:01,14:01:28,2.0.10.248,3,2,1,3,,,,,,,,TrainingProc,BlockList,22,1,Distractor2.bmp,2,0,,0,1,207667,501,,0,0,purple,500,2,500,5,vertical,purple,Distractor1.bmp,cyan,Distractor2.bmp,blue,Distractor2.bmp,yellow,Distractor1.bmp,lime,Target1.bmp,red,Distractor2.bmp,,,,TrialProc,,TrainingTrialList,1,1,-999999,1,208168,0,1,2083,210251,Target1.bmp,lime,1,,,,5,4,70
KW_Experiment5A,12,1,"<?xml version=""1.0""?>\n<Clock xmlns:dt=""urn:schemas-microsoft-com:datatypes""><Description dt:dt=""string"">E-Prime Primary Realtime Clock</Description><StartTime><Timestamp dt:dt=""int"">0</Timestamp><DateUtc dt:dt=""string"">2018-10-10T18:01:28Z</DateUtc></StartTime><FrequencyChanges><FrequencyChange><Frequency dt:dt=""r8"">3215244</Frequency><Timestamp dt:dt=""r8"">5198719429781</Timestamp><Current dt:dt=""r8"">0</Current><DateUtc dt:dt=""string"">2018-10-10T18:01:28Z</DateUtc></FrequencyChange></FrequencyChanges></Clock>\n",KW_Experiment5A-12-1,59.944,1.0.0.105,2,1809649732,Professional,2.0.10.353,2.0.10.353,10/10/2018,10/10/2018 18:01,14:01:28,2.0.10.248,3,2,1,3,,,,,,,,TrainingProc,BlockList,23,1,Distractor1.bmp,1,0,,0,1,211271,400,,0,0,cyan,400,1,400,4,vertical,cyan,Distractor1.bmp,red,Distractor1.bmp,lime,Target1.bmp,purple,Distractor1.bmp,blue,Distractor1.bmp,yellow,Distractor1.bmp,,,,TrialProc,,TrainingTrialList,1,1,-999999,0,211671,0,1,660,212331,Target1.bmp,lime,1,,,,3,4,71
KW_Experiment5A,12,1,"<?xml version=""1.0""?>\n<Clock xmlns:dt=""urn:schemas-microsoft-com:datatypes""><Description dt:dt=""string"">E-Prime Primary Realtime Clock</Description><StartTime><Timestamp dt:dt=""int"">0</Timestamp><DateUtc dt:dt=""string"">2018-10-10T18:01:28Z</DateUtc></StartTime><FrequencyChanges><FrequencyChange><Frequency dt:dt=""r8"">3215244</Frequency><Timestamp dt:dt=""r8"">5198719429781</Timestamp><Current dt:dt=""r8"">0</Current><DateUtc dt:dt=""string"">2018-10-10T18:01:28Z</DateUtc></FrequencyChange></FrequencyChanges></Clock>\n",KW_Experiment5A-12-1,59.944,1.0.0.105,2,1809649732,Professional,2.0.10.353,2.0.10.353,10/10/2018,10/10/2018 18:01,14:01:28,2.0.10.248,3,2,1,3,,,,,,,,TrainingProc,BlockList,24,1,Distractor2.bmp,2,0,,0,1,213356,500,,0,0,yellow,500,2,500,,vertical,yellow,Distractor2.bmp,blue,Distractor1.bmp,cyan,Distractor1.bmp,lime,Distractor2.bmp,purple,Distractor2.bmp,red,Target1.bmp,,,,TrialProc,2,TrainingTrialList,1,1,-999999,0,213856,0,1,651,214507,Target1.bmp,red,1,,,,12,4,72
KW_Experiment5A,12,1,"<?xml version=""1.0""?>\n<Clock xmlns:dt=""urn:schemas-microsoft-com:datatypes""><Description dt:dt=""string"">E-Prime Primary Realtime Clock</Description><StartTime><Timestamp dt:dt=""int"">0</Timestamp><DateUtc dt:dt=""string"">2018-10-10T18:01:28Z</DateUtc></StartTime><FrequencyChanges><FrequencyChange><Frequency dt:dt=""r8"">3215244</Frequency><Timestamp dt:dt=""r8"">5198719429781</Timestamp><Current dt:dt=""r8"">0</Current><DateUtc dt:dt=""string"">2018-10-10T18:01:28Z</DateUtc></FrequencyChange></FrequencyChanges></Clock>\n",KW_Experiment5A-12-1,59.944,1.0.0.105,2,1809649732,Professional,2.0.10.353,2.0.10.353,10/10/2018,10/10/2018 18:01,14:01:28,2.0.10.248,3,2,1,3,,,,,,,,TrainingProc,BlockList,25,1,Distractor2.bmp,2,0,,1,1,215524,401,,0,0,purple,400,1,400,,vertical,purple,Distractor2.bmp,yellow,Distractor1.bmp,lime,Distractor1.bmp,blue,Distractor1.bmp,cyan,Distractor1.bmp,red,Target1.bmp,,,,TrialProc,5,TrainingTrialList,1,1,-999999,1,215925,0,1,422,216347,Target1.bmp,red,1,,,,12,5,73
KW_Experiment5A,12,1,"<?xml version=""1.0""?>\n<Clock xmlns:dt=""urn:schemas-microsoft-com:datatypes""><Description dt:dt=""string"">E-Prime Primary Realtime Clock</Description><StartTime><Timestamp dt:dt=""int"">0</Timestamp><DateUtc dt:dt=""string"">2018-10-10T18:01:28Z</DateUtc></StartTime><FrequencyChanges><FrequencyChange><Frequency dt:dt=""r8"">3215244</Frequency><Timestamp dt:dt=""r8"">5198719429781</Timestamp><Current dt:dt=""r8"">0</Current><DateUtc dt:dt=""string"">2018-10-10T18:01:28Z</DateUtc></FrequencyChange></FrequencyChanges></Clock>\n",KW_Experiment5A-12-1,59.944,1.0.0.105,2,1809649732,Professional,2.0.10.353,2.0.10.353,10/10/2018,10/10/2018 18:01,14:01:28,2.0.10.248,3,2,1,3,,,,,,,,TrainingProc,BlockList,26,2,Distractor1.bmp,1,0,,1,0,217359,501,,0,0,lime,500,2,500,,horizontal,lime,Distractor2.bmp,red,Target2.bmp,blue,Distractor1.bmp,yellow,Distractor1.bmp,cyan,Distractor1.bmp,purple,Distractor1.bmp,,,,TrialProc,6,TrainingTrialList,1,2,-999999,1,217860,0,2,471,218331,Target2.bmp,red,2,,,,8,5,74
KW_Experiment5A,12,1,"<?xml version=""1.0""?>\n<Clock xmlns:dt=""urn:schemas-microsoft-com:datatypes""><Description dt:dt=""string"">E-Prime Primary Realtime Clock</Description><StartTime><Timestamp dt:dt=""int"">0</Timestamp><DateUtc dt:dt=""string"">2018-10-10T18:01:28Z</DateUtc></StartTime><FrequencyChanges><FrequencyChange><Frequency dt:dt=""r8"">3215244</Frequency><Timestamp dt:dt=""r8"">5198719429781</Timestamp><Current dt:dt=""r8"">0</Current><DateUtc dt:dt=""string"">2018-10-10T18:01:28Z</DateUtc></FrequencyChange></FrequencyChanges></Clock>\n",KW_Experiment5A-12-1,59.944,1.0.0.105,2,1809649732,Professional,2.0.10.353,2.0.10.353,10/10/2018,10/10/2018 18:01,14:01:28,2.0.10.248,3,2,1,3,,,,,,,,TrainingProc,BlockList,27,1,Distractor1.bmp,1,0,,0,1,219345,400,,0,0,purple,400,1,400,,vertical,purple,Distractor2.bmp,cyan,Distractor1.bmp,red,Target1.bmp,yellow,Distractor1.bmp,lime,Distractor1.bmp,blue,Distractor2.bmp,,,,TrialProc,5,TrainingTrialList,1,1,-999999,0,219745,0,1,658,220403,Target1.bmp,red,1,,,,9,5,75
KW_Experiment5A,12,1,"<?xml version=""1.0""?>\n<Clock xmlns:dt=""urn:schemas-microsoft-com:datatypes""><Description dt:dt=""string"">E-Prime Primary Realtime Clock</Description><StartTime><Timestamp dt:dt=""int"">0</Timestamp><DateUtc dt:dt=""string"">2018-10-10T18:01:28Z</DateUtc></StartTime><FrequencyChanges><FrequencyChange><Frequency dt:dt=""r8"">3215244</Frequency><Timestamp dt:dt=""r8"">5198719429781</Timestamp><Current dt:dt=""r8"">0</Current><DateUtc dt:dt=""string"">2018-10-10T18:01:28Z</DateUtc></FrequencyChange></FrequencyChanges></Clock>\n",KW_Experiment5A-12-1,59.944,1.0.0.105,2,1809649732,Professional,2.0.10.353,2.0.10.353,10/10/2018,10/10/2018 18:01,14:01:28,2.0.10.248,3,2,1,3,,,,,,,,TrainingProc,BlockList,28,1,Distractor2.bmp,2,0,,0,1,221413,601,,0,0,purple,600,3,600,,vertical,purple,Distractor1.bmp,yellow,Distractor1.bmp,red,Target1.bmp,cyan,Distractor2.bmp,blue,Distractor1.bmp,lime,Distractor1.bmp,,,,TrialProc,5,TrainingTrialList,1,1,-999999,1,222014,0,1,445,222459,Target1.bmp,red,1,,,,9,5,76
KW_Experiment5A,12,1,"<?xml version=""1.0""?>\n<Clock xmlns:dt=""urn:schemas-microsoft-com:datatypes""><Description dt:dt=""string"">E-Prime Primary Realtime Clock</Description><StartTime><Timestamp dt:dt=""int"">0</Timestamp><DateUtc dt:dt=""string"">2018-10-10T18:01:28Z</DateUtc></StartTime><FrequencyChanges><FrequencyChange><Frequency dt:dt=""r8"">3215244</Frequency><Timestamp dt:dt=""r8"">5198719429781</Timestamp><Current dt:dt=""r8"">0</Current><DateUtc dt:dt=""string"">2018-10-10T18:01:28Z</DateUtc></FrequencyChange></FrequencyChanges></Clock>\n",KW_Experiment5A-12-1,59.944,1.0.0.105,2,1809649732,Professional,2.0.10.353,2.0.10.353,10/10/2018,10/10/2018 18:01,14:01:28,2.0.10.248,3,2,1,3,,,,,,,,TrainingProc,BlockList,29,1,Distractor2.bmp,2,0,,0,1,223482,600,,0,0,purple,600,3,600,,vertical,purple,Distractor2.bmp,blue,Distractor2.bmp,lime,Distractor2.bmp,cyan,Distractor2.bmp,red,Target1.bmp,yellow,Distractor2.bmp,,,,TrialProc,5,TrainingTrialList,1,1,-999999,0,224082,0,1,425,224507,Target1.bmp,red,1,,,,11,5,77
KW_Experiment5A,12,1,"<?xml version=""1.0""?>\n<Clock xmlns:dt=""urn:schemas-microsoft-com:datatypes""><Description dt:dt=""string"">E-Prime Primary Realtime Clock</Description><StartTime><Timestamp dt:dt=""int"">0</Timestamp><DateUtc dt:dt=""string"">2018-10-10T18:01:28Z</DateUtc></StartTime><FrequencyChanges><FrequencyChange><Frequency dt:dt=""r8"">3215244</Frequency><Timestamp dt:dt=""r8"">5198719429781</Timestamp><Current dt:dt=""r8"">0</Current><DateUtc dt:dt=""string"">2018-10-10T18:01:28Z</DateUtc></FrequencyChange></FrequencyChanges></Clock>\n",KW_Experiment5A-12-1,59.944,1.0.0.105,2,1809649732,Professional,2.0.10.353,2.0.10.353,10/10/2018,10/10/2018 18:01,14:01:28,2.0.10.248,3,2,1,3,,,,,,,,TrainingProc,BlockList,30,2,Distractor2.bmp,2,0,,0,1,225517,400,,0,0,cyan,400,1,400,,horizontal,cyan,Distractor2.bmp,purple,Distractor1.bmp,blue,Distractor2.bmp,red,Target2.bmp,yellow,Distractor2.bmp,lime,Distractor2.bmp,,,,TrialProc,4,TrainingTrialList,1,2,-999999,0,225917,0,2,398,226315,Target2.bmp,red,2,,,,10,5,78
KW_Experiment5A,12,1,"<?xml version=""1.0""?>\n<Clock xmlns:dt=""urn:schemas-microsoft-com:datatypes""><Description dt:dt=""string"">E-Prime Primary Realtime Clock</Description><StartTime><Timestamp dt:dt=""int"">0</Timestamp><DateUtc dt:dt=""string"">2018-10-10T18:01:28Z</DateUtc></StartTime><FrequencyChanges><FrequencyChange><Frequency dt:dt=""r8"">3215244</Frequency><Timestamp dt:dt=""r8"">5198719429781</Timestamp><Current dt:dt=""r8"">0</Current><DateUtc dt:dt=""string"">2018-10-10T18:01:28Z</DateUtc></FrequencyChange></FrequencyChanges></Clock>\n",KW_Experiment5A-12-1,59.944,1.0.0.105,2,1809649732,Professional,2.0.10.353,2.0.10.353,10/10/2018,10/10/2018 18:01,14:01:28,2.0.10.248,3,2,1,3,,,,,,,,TrainingProc,BlockList,31,2,Distractor1.bmp,1,0,,0,1,227335,401,,0,0,purple,400,1,400,5,horizontal,lime,Target2.bmp,purple,Distractor1.bmp,red,Distractor1.bmp,blue,Distractor2.bmp,cyan,Distractor2.bmp,yellow,Distractor1.bmp,,,,TrialProc,,TrainingTrialList,0,2,-999999,1,227736,0,1,667,228403,Target2.bmp,lime,2,,,,1,5,79
KW_Experiment5A,12,1,"<?xml version=""1.0""?>\n<Clock xmlns:dt=""urn:schemas-microsoft-com:datatypes""><Description dt:dt=""string"">E-Prime Primary Realtime Clock</Description><StartTime><Timestamp dt:dt=""int"">0</Timestamp><DateUtc dt:dt=""string"">2018-10-10T18:01:28Z</DateUtc></StartTime><FrequencyChanges><FrequencyChange><Frequency dt:dt=""r8"">3215244</Frequency><Timestamp dt:dt=""r8"">5198719429781</Timestamp><Current dt:dt=""r8"">0</Current><DateUtc dt:dt=""string"">2018-10-10T18:01:28Z</DateUtc></FrequencyChange></FrequencyChanges></Clock>\n",KW_Experiment5A-12-1,59.944,1.0.0.105,2,1809649732,Professional,2.0.10.353,2.0.10.353,10/10/2018,10/10/2018 18:01,14:01:28,2.0.10.248,3,2,1,3,,,,,,,,TrainingProc,BlockList,32,1,Distractor1.bmp,1,0,,0,1,229421,400,,0,0,purple,400,1,400,,vertical,red,Target1.bmp,cyan,Distractor1.bmp,yellow,Distractor2.bmp,blue,Distractor2.bmp,lime,Distractor1.bmp,purple,Distractor2.bmp,,,,TrialProc,5,TrainingTrialList,1,1,-999999,0,229821,0,1,582,230403,Target1.bmp,red,1,,,,7,5,80
KW_Experiment5A,12,1,"<?xml version=""1.0""?>\n<Clock xmlns:dt=""urn:schemas-microsoft-com:datatypes""><Description dt:dt=""string"">E-Prime Primary Realtime Clock</Description><StartTime><Timestamp dt:dt=""int"">0</Timestamp><DateUtc dt:dt=""string"">2018-10-10T18:01:28Z</DateUtc></StartTime><FrequencyChanges><FrequencyChange><Frequency dt:dt=""r8"">3215244</Frequency><Timestamp dt:dt=""r8"">5198719429781</Timestamp><Current dt:dt=""r8"">0</Current><DateUtc dt:dt=""string"">2018-10-10T18:01:28Z</DateUtc></FrequencyChange></FrequencyChanges></Clock>\n",KW_Experiment5A-12-1,59.944,1.0.0.105,2,1809649732,Professional,2.0.10.353,2.0.10.353,10/10/2018,10/10/2018 18:01,14:01:28,2.0.10.248,3,2,1,3,,,,,,,,TrainingProc,BlockList,33,2,Distractor1.bmp,1,0,,1,0,231422,501,,0,0,blue,500,2,500,,horizontal,blue,Distractor2.bmp,yellow,Distractor2.bmp,purple,Distractor2.bmp,lime,Distractor1.bmp,red,Target2.bmp,cyan,Distractor1.bmp,,,,TrialProc,3,TrainingTrialList,1,2,-999999,1,231923,0,2,616,232539,Target2.bmp,red,2,,,,11,5,81
KW_Experiment5A,12,1,"<?xml version=""1.0""?>\n<Clock xmlns:dt=""urn:schemas-microsoft-com:datatypes""><Description dt:dt=""string"">E-Prime Primary Realtime Clock</Description><StartTime><Timestamp dt:dt=""int"">0</Timestamp><DateUtc dt:dt=""string"">2018-10-10T18:01:28Z</DateUtc></StartTime><FrequencyChanges><FrequencyChange><Frequency dt:dt=""r8"">3215244</Frequency><Timestamp dt:dt=""r8"">5198719429781</Timestamp><Current dt:dt=""r8"">0</Current><DateUtc dt:dt=""string"">2018-10-10T18:01:28Z</DateUtc></FrequencyChange></FrequencyChanges></Clock>\n",KW_Experiment5A-12-1,59.944,1.0.0.105,2,1809649732,Professional,2.0.10.353,2.0.10.353,10/10/2018,10/10/2018 18:01,14:01:28,2.0.10.248,3,2,1,3,,,,,,,,TrainingProc,BlockList,34,1,Distractor1.bmp,1,0,,0,1,233558,600,,0,0,blue,600,3,600,,vertical,blue,Distractor1.bmp,cyan,Distractor2.bmp,lime,Distractor1.bmp,purple,Distractor1.bmp,red,Target1.bmp,yellow,Distractor1.bmp,,,,TrialProc,3,TrainingTrialList,1,1,-999999,0,234158,0,1,677,234835,Target1.bmp,red,1,,,,11,5,82
KW_Experiment5A,12,1,"<?xml version=""1.0""?>\n<Clock xmlns:dt=""urn:schemas-microsoft-com:datatypes""><Description dt:dt=""string"">E-Prime Primary Realtime Clock</Description><StartTime><Timestamp dt:dt=""int"">0</Timestamp><DateUtc dt:dt=""string"">2018-10-10T18:01:28Z</DateUtc></StartTime><FrequencyChanges><FrequencyChange><Frequency dt:dt=""r8"">3215244</Frequency><Timestamp dt:dt=""r8"">5198719429781</Timestamp><Current dt:dt=""r8"">0</Current><DateUtc dt:dt=""string"">2018-10-10T18:01:28Z</DateUtc></FrequencyChange></FrequencyChanges></Clock>\n",KW_Experiment5A-12-1,59.944,1.0.0.105,2,1809649732,Professional,2.0.10.353,2.0.10.353,10/10/2018,10/10/2018 18:01,14:01:28,2.0.10.248,3,2,1,3,,,,,,,,TrainingProc,BlockList,35,1,Distractor1.bmp,1,0,,0,1,235860,500,,0,0,purple,500,2,500,5,vertical,purple,Distractor1.bmp,red,Distractor2.bmp,yellow,Distractor1.bmp,blue,Distractor2.bmp,cyan,Distractor1.bmp,lime,Target1.bmp,,,,TrialProc,,TrainingTrialList,1,1,-999999,0,236360,0,1,643,237003,Target1.bmp,lime,1,,,,6,5,83
KW_Experiment5A,12,1,"<?xml version=""1.0""?>\n<Clock xmlns:dt=""urn:schemas-microsoft-com:datatypes""><Description dt:dt=""string"">E-Prime Primary Realtime Clock</Description><StartTime><Timestamp dt:dt=""int"">0</Timestamp><DateUtc dt:dt=""string"">2018-10-10T18:01:28Z</DateUtc></StartTime><FrequencyChanges><FrequencyChange><Frequency dt:dt=""r8"">3215244</Frequency><Timestamp dt:dt=""r8"">5198719429781</Timestamp><Current dt:dt=""r8"">0</Current><DateUtc dt:dt=""string"">2018-10-10T18:01:28Z</DateUtc></FrequencyChange></FrequencyChanges></Clock>\n",KW_Experiment5A-12-1,59.944,1.0.0.105,2,1809649732,Professional,2.0.10.353,2.0.10.353,10/10/2018,10/10/2018 18:01,14:01:28,2.0.10.248,3,2,1,3,,,,,,,,TrainingProc,BlockList,36,2,Distractor1.bmp,1,0,,0,1,238029,400,,0,0,blue,400,1,400,,horizontal,red,Target2.bmp,yellow,Distractor1.bmp,cyan,Distractor2.bmp,lime,Distractor2.bmp,purple,Distractor1.bmp,blue,Distractor2.bmp,,,,TrialProc,3,TrainingTrialList,1,2,-999999,0,238429,0,2,726,239155,Target2.bmp,red,2,,,,7,5,84
KW_Experiment5A,12,1,"<?xml version=""1.0""?>\n<Clock xmlns:dt=""urn:schemas-microsoft-com:datatypes""><Description dt:dt=""string"">E-Prime Primary Realtime Clock</Description><StartTime><Timestamp dt:dt=""int"">0</Timestamp><DateUtc dt:dt=""string"">2018-10-10T18:01:28Z</DateUtc></StartTime><FrequencyChanges><FrequencyChange><Frequency dt:dt=""r8"">3215244</Frequency><Timestamp dt:dt=""r8"">5198719429781</Timestamp><Current dt:dt=""r8"">0</Current><DateUtc dt:dt=""string"">2018-10-10T18:01:28Z</DateUtc></FrequencyChange></FrequencyChanges></Clock>\n",KW_Experiment5A-12-1,59.944,1.0.0.105,2,1809649732,Professional,2.0.10.353,2.0.10.353,10/10/2018,10/10/2018 18:01,14:01:28,2.0.10.248,3,2,1,3,,,,,,,,TrainingProc,BlockList,37,2,Distractor1.bmp,1,0,,0,1,240181,600,,0,0,lime,600,3,600,,horizontal,lime,Distractor1.bmp,cyan,Distractor2.bmp,red,Target2.bmp,yellow,Distractor1.bmp,purple,Distractor2.bmp,blue,Distractor2.bmp,,,,TrialProc,6,TrainingTrialList,1,2,-999999,0,240781,0,2,646,241427,Target2.bmp,red,2,,,,9,5,85
KW_Experiment5A,12,1,"<?xml version=""1.0""?>\n<Clock xmlns:dt=""urn:schemas-microsoft-com:datatypes""><Description dt:dt=""string"">E-Prime Primary Realtime Clock</Description><StartTime><Timestamp dt:dt=""int"">0</Timestamp><DateUtc dt:dt=""string"">2018-10-10T18:01:28Z</DateUtc></StartTime><FrequencyChanges><FrequencyChange><Frequency dt:dt=""r8"">3215244</Frequency><Timestamp dt:dt=""r8"">5198719429781</Timestamp><Current dt:dt=""r8"">0</Current><DateUtc dt:dt=""string"">2018-10-10T18:01:28Z</DateUtc></FrequencyChange></FrequencyChanges></Clock>\n",KW_Experiment5A-12-1,59.944,1.0.0.105,2,1809649732,Professional,2.0.10.353,2.0.10.353,10/10/2018,10/10/2018 18:01,14:01:28,2.0.10.248,3,2,1,3,,,,,,,,TrainingProc,BlockList,38,1,Distractor1.bmp,1,0,,0,1,242449,401,,0,0,yellow,400,1,400,,vertical,yellow,Distractor1.bmp,blue,Distractor1.bmp,cyan,Distractor2.bmp,red,Target1.bmp,purple,Distractor1.bmp,lime,Distractor1.bmp,,,,TrialProc,2,TrainingTrialList,1,1,-999999,1,242850,0,1,537,243387,Target1.bmp,red,1,,,,10,5,86
KW_Experiment5A,12,1,"<?xml version=""1.0""?>\n<Clock xmlns:dt=""urn:schemas-microsoft-com:datatypes""><Description dt:dt=""string"">E-Prime Primary Realtime Clock</Description><StartTime><Timestamp dt:dt=""int"">0</Timestamp><DateUtc dt:dt=""string"">2018-10-10T18:01:28Z</DateUtc></StartTime><FrequencyChanges><FrequencyChange><Frequency dt:dt=""r8"">3215244</Frequency><Timestamp dt:dt=""r8"">5198719429781</Timestamp><Current dt:dt=""r8"">0</Current><DateUtc dt:dt=""string"">2018-10-10T18:01:28Z</DateUtc></FrequencyChange></FrequencyChanges></Clock>\n",KW_Experiment5A-12-1,59.944,1.0.0.105,2,1809649732,Professional,2.0.10.353,2.0.10.353,10/10/2018,10/10/2018 18:01,14:01:28,2.0.10.248,3,2,1,3,,,,,,,,TrainingProc,BlockList,39,2,Distractor1.bmp,1,0,,0,1,244401,500,,0,0,cyan,500,2,500,,horizontal,cyan,Distractor2.bmp,red,Target2.bmp,purple,Distractor1.bmp,yellow,Distractor2.bmp,lime,Distractor2.bmp,blue,Distractor2.bmp,,,,TrialProc,4,TrainingTrialList,1,2,-999999,0,244901,0,2,502,245403,Target2.bmp,red,2,,,,8,5,87
KW_Experiment5A,12,1,"<?xml version=""1.0""?>\n<Clock xmlns:dt=""urn:schemas-microsoft-com:datatypes""><Description dt:dt=""string"">E-Prime Primary Realtime Clock</Description><StartTime><Timestamp dt:dt=""int"">0</Timestamp><DateUtc dt:dt=""string"">2018-10-10T18:01:28Z</DateUtc></StartTime><FrequencyChanges><FrequencyChange><Frequency dt:dt=""r8"">3215244</Frequency><Timestamp dt:dt=""r8"">5198719429781</Timestamp><Current dt:dt=""r8"">0</Current><DateUtc dt:dt=""string"">2018-10-10T18:01:28Z</DateUtc></FrequencyChange></FrequencyChanges></Clock>\n",KW_Experiment5A-12-1,59.944,1.0.0.105,2,1809649732,Professional,2.0.10.353,2.0.10.353,10/10/2018,10/10/2018 18:01,14:01:28,2.0.10.248,3,2,1,3,,,,,,,,TrainingProc,BlockList,40,2,Distractor2.bmp,2,0,,0,1,246420,600,,0,0,yellow,600,3,600,2,horizontal,yellow,Distractor2.bmp,blue,Distractor2.bmp,cyan,Distractor2.bmp,lime,Target2.bmp,purple,Distractor2.bmp,red,Distractor1.bmp,,,,TrialProc,,TrainingTrialList,0,2,-999999,0,247020,0,1,903,247923,Target2.bmp,lime,2,,,,4,5,88
KW_Experiment5A,12,1,"<?xml version=""1.0""?>\n<Clock xmlns:dt=""urn:schemas-microsoft-com:datatypes""><Description dt:dt=""string"">E-Prime Primary Realtime Clock</Description><StartTime><Timestamp dt:dt=""int"">0</Timestamp><DateUtc dt:dt=""string"">2018-10-10T18:01:28Z</DateUtc></StartTime><FrequencyChanges><FrequencyChange><Frequency dt:dt=""r8"">3215244</Frequency><Timestamp dt:dt=""r8"">5198719429781</Timestamp><Current dt:dt=""r8"">0</Current><DateUtc dt:dt=""string"">2018-10-10T18:01:28Z</DateUtc></FrequencyChange></FrequencyChanges></Clock>\n",KW_Experiment5A-12-1,59.944,1.0.0.105,2,1809649732,Professional,2.0.10.353,2.0.10.353,10/10/2018,10/10/2018 18:01,14:01:28,2.0.10.248,3,2,1,3,,,,,,,,TrainingProc,BlockList,41,1,Distractor2.bmp,2,0,,0,1,248939,400,,0,0,lime,400,1,400,,vertical,lime,Distractor2.bmp,cyan,Distractor1.bmp,purple,Distractor1.bmp,red,Target1.bmp,yellow,Distractor2.bmp,blue,Distractor1.bmp,,,,TrialProc,6,TrainingTrialList,1,1,-999999,0,249339,0,1,696,250035,Target1.bmp,red,1,,,,10,5,89
KW_Experiment5A,12,1,"<?xml version=""1.0""?>\n<Clock xmlns:dt=""urn:schemas-microsoft-com:datatypes""><Description dt:dt=""string"">E-Prime Primary Realtime Clock</Description><StartTime><Timestamp dt:dt=""int"">0</Timestamp><DateUtc dt:dt=""string"">2018-10-10T18:01:28Z</DateUtc></StartTime><FrequencyChanges><FrequencyChange><Frequency dt:dt=""r8"">3215244</Frequency><Timestamp dt:dt=""r8"">5198719429781</Timestamp><Current dt:dt=""r8"">0</Current><DateUtc dt:dt=""string"">2018-10-10T18:01:28Z</DateUtc></FrequencyChange></FrequencyChanges></Clock>\n",KW_Experiment5A-12-1,59.944,1.0.0.105,2,1809649732,Professional,2.0.10.353,2.0.10.353,10/10/2018,10/10/2018 18:01,14:01:28,2.0.10.248,3,2,1,3,,,,,,,,TrainingProc,BlockList,42,1,Distractor2.bmp,2,0,,0,1,251057,601,,0,0,cyan,600,3,600,4,vertical,cyan,Distractor1.bmp,purple,Distractor1.bmp,lime,Target1.bmp,red,Distractor2.bmp,yellow,Distractor1.bmp,blue,Distractor1.bmp,,,,TrialProc,,TrainingTrialList,0,1,-999999,1,251658,0,2,521,252179,Target1.bmp,lime,1,,,,3,5,90
