ExperimentName,Subject,Session,Clock.Information,DataFile.Basename,Display.RefreshRate,ExperimentVersion,Group,RandomSeed,RuntimeCapabilities,RuntimeVersion,RuntimeVersionExpected,SessionDate,SessionStartDateTimeUtc,SessionTime,StudioVersion,Block,BlockList,BlockList.Cycle,BlockList.Sample,PostTestQ1.RESP,PostTestQ1CJ.RESP,PostTestQ2.RESP,PostTestQ2CJ.RESP,PostTestQ3.RESP,PostTestQ3CJ.RESP,PostTestSlide.RESP,Procedure[Block],Running[Block],Trial,CorrectResponse,Distractor,DistractorList,Fixation.ACC,Fixation.CRESP,Fixation.DurationError,Fixation.OnsetDelay,Fixation.OnsetTime,Fixation.OnsetToOnsetTime,Fixation.RESP,Fixation.RT,Fixation.RTTime,ItemColor,Jitter,JitterList,JitterTime,Lime0List,Orientation,Pos1Color,Pos1Item,Pos2Color,Pos2Item,Pos3Color,Pos3Item,Pos4Color,Pos4Item,Pos5Color,Pos5Item,Pos6Color,Pos6Item,PracticeTrialList,PracticeTrialList.Cycle,PracticeTrialList.Sample,Procedure[Trial],Red0List,Running[Trial],Stimulus.ACC,Stimulus.CRESP,Stimulus.DurationError,Stimulus.OnsetDelay,Stimulus.OnsetTime,Stimulus.OnsetToOnsetTime,Stimulus.RESP,Stimulus.RT,Stimulus.RTTime,Target,TargetColor,TargetList,TestTrialList,TestTrialList.Cycle,TestTrialList.Sample,TrainingTrialList,TrainingTrialList.Cycle,TrainingTrialList.Sample
KW_Experiment5A,44,1,"<?xml version=""1.0""?>\n<Clock xmlns:dt=""urn:schemas-microsoft-com:datatypes""><Description dt:dt=""string"">E-Prime Primary Realtime Clock</Description><StartTime><Timestamp dt:dt=""int"">0</Timestamp><DateUtc dt:dt=""string"">2018-10-25T19:41:38Z</DateUtc></StartTime><FrequencyChanges><FrequencyChange><Frequency dt:dt=""r8"">3215273</Frequency><Timestamp dt:dt=""r8"">1606425227862</Timestamp><Current dt:dt=""r8"">0</Current><DateUtc dt:dt=""string"">2018-10-25T19:41:38Z</DateUtc></FrequencyChange></FrequencyChanges></Clock>\n",KW_Experiment5A-44-1,59.944,1.0.0.105,1,108080576,Professional,2.0.10.353,2.0.10.353,10/25/2018,10/25/2018 19:41,15:41:38,2.0.10.248,1,1,1,1,,,,,,,,PracticeProc,BlockList,1,2,Distractor1.bmp,1,0,,0,41,188582,600,,0,0,yellow,600,3,600,,horizontal,yellow,Distractor1.bmp,red,Target2.bmp,cyan,Distractor1.bmp,purple,Distractor2.bmp,lime,Distractor2.bmp,blue,Distractor2.bmp,2,1,1,TrialProc,2,PracticeTrialList,1,2,-999999,0,189182,0,2,6263,195445,Target2.bmp,red,2,,,,,,
KW_Experiment5A,44,1,"<?xml version=""1.0""?>\n<Clock xmlns:dt=""urn:schemas-microsoft-com:datatypes""><Description dt:dt=""string"">E-Prime Primary Realtime Clock</Description><StartTime><Timestamp dt:dt=""int"">0</Timestamp><DateUtc dt:dt=""string"">2018-10-25T19:41:38Z</DateUtc></StartTime><FrequencyChanges><FrequencyChange><Frequency dt:dt=""r8"">3215273</Frequency><Timestamp dt:dt=""r8"">1606425227862</Timestamp><Current dt:dt=""r8"">0</Current><DateUtc dt:dt=""string"">2018-10-25T19:41:38Z</DateUtc></FrequencyChange></FrequencyChanges></Clock>\n",KW_Experiment5A-44-1,59.944,1.0.0.105,1,108080576,Professional,2.0.10.353,2.0.10.353,10/25/2018,10/25/2018 19:41,15:41:38,2.0.10.248,1,1,1,1,,,,,,,,PracticeProc,BlockList,2,1,Distractor1.bmp,1,0,,0,1,196472,601,,0,0,purple,600,3,600,5,vertical,yellow,Distractor1.bmp,purple,Distractor1.bmp,lime,Target1.bmp,blue,Distractor1.bmp,cyan,Distractor2.bmp,red,Distractor2.bmp,3,1,2,TrialProc,,PracticeTrialList,1,1,-999999,1,197073,0,1,2940,200013,Target1.bmp,lime,1,,,,,,
KW_Experiment5A,44,1,"<?xml version=""1.0""?>\n<Clock xmlns:dt=""urn:schemas-microsoft-com:datatypes""><Description dt:dt=""string"">E-Prime Primary Realtime Clock</Description><StartTime><Timestamp dt:dt=""int"">0</Timestamp><DateUtc dt:dt=""string"">2018-10-25T19:41:38Z</DateUtc></StartTime><FrequencyChanges><FrequencyChange><Frequency dt:dt=""r8"">3215273</Frequency><Timestamp dt:dt=""r8"">1606425227862</Timestamp><Current dt:dt=""r8"">0</Current><DateUtc dt:dt=""string"">2018-10-25T19:41:38Z</DateUtc></FrequencyChange></FrequencyChanges></Clock>\n",KW_Experiment5A-44-1,59.944,1.0.0.105,1,108080576,Professional,2.0.10.353,2.0.10.353,10/25/2018,10/25/2018 19:41,15:41:38,2.0.10.248,1,1,1,1,,,,,,,,PracticeProc,BlockList,3,1,Distractor2.bmp,2,0,,0,1,201027,500,,0,0,blue,500,2,500,3,vertical,purple,Distractor1.bmp,cyan,Distractor2.bmp,red,Distractor2.bmp,blue,Distractor1.bmp,lime,Target1.bmp,yellow,Distractor2.bmp,5,1,3,TrialProc,,PracticeTrialList,1,1,-999999,0,201527,0,1,3574,205101,Target1.bmp,lime,1,,,,,,
KW_Experiment5A,44,1,"<?xml version=""1.0""?>\n<Clock xmlns:dt=""urn:schemas-microsoft-com:datatypes""><Description dt:dt=""string"">E-Prime Primary Realtime Clock</Description><StartTime><Timestamp dt:dt=""int"">0</Timestamp><DateUtc dt:dt=""string"">2018-10-25T19:41:38Z</DateUtc></StartTime><FrequencyChanges><FrequencyChange><Frequency dt:dt=""r8"">3215273</Frequency><Timestamp dt:dt=""r8"">1606425227862</Timestamp><Current dt:dt=""r8"">0</Current><DateUtc dt:dt=""string"">2018-10-25T19:41:38Z</DateUtc></FrequencyChange></FrequencyChanges></Clock>\n",KW_Experiment5A-44-1,59.944,1.0.0.105,1,108080576,Professional,2.0.10.353,2.0.10.353,10/25/2018,10/25/2018 19:41,15:41:38,2.0.10.248,1,1,1,1,,,,,,,,PracticeProc,BlockList,4,1,Distractor2.bmp,2,0,,1,0,206114,501,,0,0,cyan,500,2,500,4,vertical,lime,Target1.bmp,purple,Distractor2.bmp,blue,Distractor1.bmp,yellow,Distractor1.bmp,red,Distractor1.bmp,cyan,Distractor1.bmp,1,1,4,TrialProc,,PracticeTrialList,0,1,-999999,1,206615,0,2,34469,241084,Target1.bmp,lime,1,,,,,,
KW_Experiment5A,44,1,"<?xml version=""1.0""?>\n<Clock xmlns:dt=""urn:schemas-microsoft-com:datatypes""><Description dt:dt=""string"">E-Prime Primary Realtime Clock</Description><StartTime><Timestamp dt:dt=""int"">0</Timestamp><DateUtc dt:dt=""string"">2018-10-25T19:41:38Z</DateUtc></StartTime><FrequencyChanges><FrequencyChange><Frequency dt:dt=""r8"">3215273</Frequency><Timestamp dt:dt=""r8"">1606425227862</Timestamp><Current dt:dt=""r8"">0</Current><DateUtc dt:dt=""string"">2018-10-25T19:41:38Z</DateUtc></FrequencyChange></FrequencyChanges></Clock>\n",KW_Experiment5A-44-1,59.944,1.0.0.105,1,108080576,Professional,2.0.10.353,2.0.10.353,10/25/2018,10/25/2018 19:41,15:41:38,2.0.10.248,1,1,1,1,,,,,,,,PracticeProc,BlockList,5,2,Distractor1.bmp,1,0,,0,1,242114,400,,0,0,cyan,400,1,400,,horizontal,yellow,Distractor1.bmp,blue,Distractor1.bmp,lime,Distractor1.bmp,purple,Distractor2.bmp,cyan,Distractor2.bmp,red,Target2.bmp,6,1,5,TrialProc,4,PracticeTrialList,1,2,-999999,0,242514,0,2,4802,247316,Target2.bmp,red,2,,,,,,
KW_Experiment5A,44,1,"<?xml version=""1.0""?>\n<Clock xmlns:dt=""urn:schemas-microsoft-com:datatypes""><Description dt:dt=""string"">E-Prime Primary Realtime Clock</Description><StartTime><Timestamp dt:dt=""int"">0</Timestamp><DateUtc dt:dt=""string"">2018-10-25T19:41:38Z</DateUtc></StartTime><FrequencyChanges><FrequencyChange><Frequency dt:dt=""r8"">3215273</Frequency><Timestamp dt:dt=""r8"">1606425227862</Timestamp><Current dt:dt=""r8"">0</Current><DateUtc dt:dt=""string"">2018-10-25T19:41:38Z</DateUtc></FrequencyChange></FrequencyChanges></Clock>\n",KW_Experiment5A-44-1,59.944,1.0.0.105,1,108080576,Professional,2.0.10.353,2.0.10.353,10/25/2018,10/25/2018 19:41,15:41:38,2.0.10.248,1,1,1,1,,,,,,,,PracticeProc,BlockList,6,1,Distractor1.bmp,1,0,,1,1,248336,401,,0,0,cyan,400,1,400,,vertical,blue,Distractor2.bmp,purple,Distractor2.bmp,cyan,Distractor2.bmp,red,Target1.bmp,lime,Distractor1.bmp,yellow,Distractor2.bmp,4,1,6,TrialProc,4,PracticeTrialList,1,1,-999999,1,248737,0,1,1459,250196,Target1.bmp,red,1,,,,,,
KW_Experiment5A,44,1,"<?xml version=""1.0""?>\n<Clock xmlns:dt=""urn:schemas-microsoft-com:datatypes""><Description dt:dt=""string"">E-Prime Primary Realtime Clock</Description><StartTime><Timestamp dt:dt=""int"">0</Timestamp><DateUtc dt:dt=""string"">2018-10-25T19:41:38Z</DateUtc></StartTime><FrequencyChanges><FrequencyChange><Frequency dt:dt=""r8"">3215273</Frequency><Timestamp dt:dt=""r8"">1606425227862</Timestamp><Current dt:dt=""r8"">0</Current><DateUtc dt:dt=""string"">2018-10-25T19:41:38Z</DateUtc></FrequencyChange></FrequencyChanges></Clock>\n",KW_Experiment5A-44-1,59.944,1.0.0.105,1,108080576,Professional,2.0.10.353,2.0.10.353,10/25/2018,10/25/2018 19:41,15:41:38,2.0.10.248,2,2,1,2,,,,,,,,TrainingProc,BlockList,1,1,Distractor1.bmp,1,0,,0,37,267537,401,,0,0,red,400,1,400,1,vertical,red,Distractor1.bmp,cyan,Distractor2.bmp,yellow,Distractor2.bmp,lime,Target1.bmp,purple,Distractor1.bmp,blue,Distractor2.bmp,,,,TrialProc,,TrainingTrialList,1,1,-999999,1,267938,0,1,1506,269444,Target1.bmp,lime,1,,,,4,1,1
KW_Experiment5A,44,1,"<?xml version=""1.0""?>\n<Clock xmlns:dt=""urn:schemas-microsoft-com:datatypes""><Description dt:dt=""string"">E-Prime Primary Realtime Clock</Description><StartTime><Timestamp dt:dt=""int"">0</Timestamp><DateUtc dt:dt=""string"">2018-10-25T19:41:38Z</DateUtc></StartTime><FrequencyChanges><FrequencyChange><Frequency dt:dt=""r8"">3215273</Frequency><Timestamp dt:dt=""r8"">1606425227862</Timestamp><Current dt:dt=""r8"">0</Current><DateUtc dt:dt=""string"">2018-10-25T19:41:38Z</DateUtc></FrequencyChange></FrequencyChanges></Clock>\n",KW_Experiment5A-44-1,59.944,1.0.0.105,1,108080576,Professional,2.0.10.353,2.0.10.353,10/25/2018,10/25/2018 19:41,15:41:38,2.0.10.248,2,2,1,2,,,,,,,,TrainingProc,BlockList,2,1,Distractor1.bmp,1,0,,0,1,270457,500,,0,0,blue,500,2,500,3,vertical,blue,Distractor1.bmp,cyan,Distractor2.bmp,red,Distractor1.bmp,yellow,Distractor1.bmp,purple,Distractor2.bmp,lime,Target1.bmp,,,,TrialProc,,TrainingTrialList,1,1,-999999,0,270957,0,1,1391,272348,Target1.bmp,lime,1,,,,6,1,2
KW_Experiment5A,44,1,"<?xml version=""1.0""?>\n<Clock xmlns:dt=""urn:schemas-microsoft-com:datatypes""><Description dt:dt=""string"">E-Prime Primary Realtime Clock</Description><StartTime><Timestamp dt:dt=""int"">0</Timestamp><DateUtc dt:dt=""string"">2018-10-25T19:41:38Z</DateUtc></StartTime><FrequencyChanges><FrequencyChange><Frequency dt:dt=""r8"">3215273</Frequency><Timestamp dt:dt=""r8"">1606425227862</Timestamp><Current dt:dt=""r8"">0</Current><DateUtc dt:dt=""string"">2018-10-25T19:41:38Z</DateUtc></FrequencyChange></FrequencyChanges></Clock>\n",KW_Experiment5A-44-1,59.944,1.0.0.105,1,108080576,Professional,2.0.10.353,2.0.10.353,10/25/2018,10/25/2018 19:41,15:41:38,2.0.10.248,2,2,1,2,,,,,,,,TrainingProc,BlockList,3,2,Distractor1.bmp,1,0,,0,1,273359,401,,0,0,lime,400,1,400,,horizontal,red,Target2.bmp,yellow,Distractor1.bmp,blue,Distractor1.bmp,purple,Distractor2.bmp,cyan,Distractor2.bmp,lime,Distractor2.bmp,,,,TrialProc,6,TrainingTrialList,1,2,-999999,1,273760,0,2,1076,274836,Target2.bmp,red,2,,,,7,1,3
KW_Experiment5A,44,1,"<?xml version=""1.0""?>\n<Clock xmlns:dt=""urn:schemas-microsoft-com:datatypes""><Description dt:dt=""string"">E-Prime Primary Realtime Clock</Description><StartTime><Timestamp dt:dt=""int"">0</Timestamp><DateUtc dt:dt=""string"">2018-10-25T19:41:38Z</DateUtc></StartTime><FrequencyChanges><FrequencyChange><Frequency dt:dt=""r8"">3215273</Frequency><Timestamp dt:dt=""r8"">1606425227862</Timestamp><Current dt:dt=""r8"">0</Current><DateUtc dt:dt=""string"">2018-10-25T19:41:38Z</DateUtc></FrequencyChange></FrequencyChanges></Clock>\n",KW_Experiment5A-44-1,59.944,1.0.0.105,1,108080576,Professional,2.0.10.353,2.0.10.353,10/25/2018,10/25/2018 19:41,15:41:38,2.0.10.248,2,2,1,2,,,,,,,,TrainingProc,BlockList,4,1,Distractor2.bmp,2,0,,0,1,275862,400,,0,0,cyan,400,1,400,4,vertical,cyan,Distractor2.bmp,yellow,Distractor2.bmp,red,Distractor2.bmp,purple,Distractor2.bmp,lime,Target1.bmp,blue,Distractor2.bmp,,,,TrialProc,,TrainingTrialList,1,1,-999999,0,276262,0,1,574,276836,Target1.bmp,lime,1,,,,5,1,4
KW_Experiment5A,44,1,"<?xml version=""1.0""?>\n<Clock xmlns:dt=""urn:schemas-microsoft-com:datatypes""><Description dt:dt=""string"">E-Prime Primary Realtime Clock</Description><StartTime><Timestamp dt:dt=""int"">0</Timestamp><DateUtc dt:dt=""string"">2018-10-25T19:41:38Z</DateUtc></StartTime><FrequencyChanges><FrequencyChange><Frequency dt:dt=""r8"">3215273</Frequency><Timestamp dt:dt=""r8"">1606425227862</Timestamp><Current dt:dt=""r8"">0</Current><DateUtc dt:dt=""string"">2018-10-25T19:41:38Z</DateUtc></FrequencyChange></FrequencyChanges></Clock>\n",KW_Experiment5A-44-1,59.944,1.0.0.105,1,108080576,Professional,2.0.10.353,2.0.10.353,10/25/2018,10/25/2018 19:41,15:41:38,2.0.10.248,2,2,1,2,,,,,,,,TrainingProc,BlockList,5,2,Distractor2.bmp,2,0,,0,1,277847,400,,0,0,yellow,400,1,400,,horizontal,yellow,Distractor2.bmp,purple,Distractor1.bmp,red,Target2.bmp,cyan,Distractor2.bmp,lime,Distractor1.bmp,blue,Distractor2.bmp,,,,TrialProc,2,TrainingTrialList,1,2,-999999,0,278247,0,2,1157,279404,Target2.bmp,red,2,,,,9,1,5
KW_Experiment5A,44,1,"<?xml version=""1.0""?>\n<Clock xmlns:dt=""urn:schemas-microsoft-com:datatypes""><Description dt:dt=""string"">E-Prime Primary Realtime Clock</Description><StartTime><Timestamp dt:dt=""int"">0</Timestamp><DateUtc dt:dt=""string"">2018-10-25T19:41:38Z</DateUtc></StartTime><FrequencyChanges><FrequencyChange><Frequency dt:dt=""r8"">3215273</Frequency><Timestamp dt:dt=""r8"">1606425227862</Timestamp><Current dt:dt=""r8"">0</Current><DateUtc dt:dt=""string"">2018-10-25T19:41:38Z</DateUtc></FrequencyChange></FrequencyChanges></Clock>\n",KW_Experiment5A-44-1,59.944,1.0.0.105,1,108080576,Professional,2.0.10.353,2.0.10.353,10/25/2018,10/25/2018 19:41,15:41:38,2.0.10.248,2,2,1,2,,,,,,,,TrainingProc,BlockList,6,1,Distractor2.bmp,2,0,,0,1,280416,500,,0,0,yellow,500,2,500,2,vertical,yellow,Distractor2.bmp,blue,Distractor2.bmp,lime,Target1.bmp,red,Distractor2.bmp,purple,Distractor2.bmp,cyan,Distractor2.bmp,,,,TrialProc,,TrainingTrialList,1,1,-999999,0,280916,0,1,719,281635,Target1.bmp,lime,1,,,,3,1,6
KW_Experiment5A,44,1,"<?xml version=""1.0""?>\n<Clock xmlns:dt=""urn:schemas-microsoft-com:datatypes""><Description dt:dt=""string"">E-Prime Primary Realtime Clock</Description><StartTime><Timestamp dt:dt=""int"">0</Timestamp><DateUtc dt:dt=""string"">2018-10-25T19:41:38Z</DateUtc></StartTime><FrequencyChanges><FrequencyChange><Frequency dt:dt=""r8"">3215273</Frequency><Timestamp dt:dt=""r8"">1606425227862</Timestamp><Current dt:dt=""r8"">0</Current><DateUtc dt:dt=""string"">2018-10-25T19:41:38Z</DateUtc></FrequencyChange></FrequencyChanges></Clock>\n",KW_Experiment5A-44-1,59.944,1.0.0.105,1,108080576,Professional,2.0.10.353,2.0.10.353,10/25/2018,10/25/2018 19:41,15:41:38,2.0.10.248,2,2,1,2,,,,,,,,TrainingProc,BlockList,7,2,Distractor2.bmp,2,0,,0,1,282651,401,,0,0,red,400,1,400,1,horizontal,red,Distractor1.bmp,purple,Distractor1.bmp,lime,Target2.bmp,cyan,Distractor2.bmp,blue,Distractor2.bmp,yellow,Distractor2.bmp,,,,TrialProc,,TrainingTrialList,1,2,-999999,1,283052,0,2,799,283851,Target2.bmp,lime,2,,,,3,1,7
KW_Experiment5A,44,1,"<?xml version=""1.0""?>\n<Clock xmlns:dt=""urn:schemas-microsoft-com:datatypes""><Description dt:dt=""string"">E-Prime Primary Realtime Clock</Description><StartTime><Timestamp dt:dt=""int"">0</Timestamp><DateUtc dt:dt=""string"">2018-10-25T19:41:38Z</DateUtc></StartTime><FrequencyChanges><FrequencyChange><Frequency dt:dt=""r8"">3215273</Frequency><Timestamp dt:dt=""r8"">1606425227862</Timestamp><Current dt:dt=""r8"">0</Current><DateUtc dt:dt=""string"">2018-10-25T19:41:38Z</DateUtc></FrequencyChange></FrequencyChanges></Clock>\n",KW_Experiment5A-44-1,59.944,1.0.0.105,1,108080576,Professional,2.0.10.353,2.0.10.353,10/25/2018,10/25/2018 19:41,15:41:38,2.0.10.248,2,2,1,2,,,,,,,,TrainingProc,BlockList,8,2,Distractor1.bmp,1,0,,0,1,284870,400,,0,0,blue,400,1,400,3,horizontal,blue,Distractor1.bmp,lime,Target2.bmp,purple,Distractor1.bmp,red,Distractor1.bmp,yellow,Distractor2.bmp,cyan,Distractor2.bmp,,,,TrialProc,,TrainingTrialList,1,2,-999999,0,285270,0,2,981,286251,Target2.bmp,lime,2,,,,2,1,8
KW_Experiment5A,44,1,"<?xml version=""1.0""?>\n<Clock xmlns:dt=""urn:schemas-microsoft-com:datatypes""><Description dt:dt=""string"">E-Prime Primary Realtime Clock</Description><StartTime><Timestamp dt:dt=""int"">0</Timestamp><DateUtc dt:dt=""string"">2018-10-25T19:41:38Z</DateUtc></StartTime><FrequencyChanges><FrequencyChange><Frequency dt:dt=""r8"">3215273</Frequency><Timestamp dt:dt=""r8"">1606425227862</Timestamp><Current dt:dt=""r8"">0</Current><DateUtc dt:dt=""string"">2018-10-25T19:41:38Z</DateUtc></FrequencyChange></FrequencyChanges></Clock>\n",KW_Experiment5A-44-1,59.944,1.0.0.105,1,108080576,Professional,2.0.10.353,2.0.10.353,10/25/2018,10/25/2018 19:41,15:41:38,2.0.10.248,2,2,1,2,,,,,,,,TrainingProc,BlockList,9,2,Distractor1.bmp,1,0,,0,1,287272,501,,0,0,yellow,500,2,500,,horizontal,yellow,Distractor1.bmp,red,Target2.bmp,lime,Distractor1.bmp,purple,Distractor1.bmp,cyan,Distractor1.bmp,blue,Distractor1.bmp,,,,TrialProc,2,TrainingTrialList,1,2,-999999,1,287773,0,2,566,288339,Target2.bmp,red,2,,,,8,1,9
KW_Experiment5A,44,1,"<?xml version=""1.0""?>\n<Clock xmlns:dt=""urn:schemas-microsoft-com:datatypes""><Description dt:dt=""string"">E-Prime Primary Realtime Clock</Description><StartTime><Timestamp dt:dt=""int"">0</Timestamp><DateUtc dt:dt=""string"">2018-10-25T19:41:38Z</DateUtc></StartTime><FrequencyChanges><FrequencyChange><Frequency dt:dt=""r8"">3215273</Frequency><Timestamp dt:dt=""r8"">1606425227862</Timestamp><Current dt:dt=""r8"">0</Current><DateUtc dt:dt=""string"">2018-10-25T19:41:38Z</DateUtc></FrequencyChange></FrequencyChanges></Clock>\n",KW_Experiment5A-44-1,59.944,1.0.0.105,1,108080576,Professional,2.0.10.353,2.0.10.353,10/25/2018,10/25/2018 19:41,15:41:38,2.0.10.248,2,2,1,2,,,,,,,,TrainingProc,BlockList,10,1,Distractor2.bmp,2,0,,0,1,289357,601,,0,0,purple,600,3,600,5,vertical,purple,Distractor2.bmp,lime,Target1.bmp,yellow,Distractor2.bmp,blue,Distractor1.bmp,red,Distractor2.bmp,cyan,Distractor1.bmp,,,,TrialProc,,TrainingTrialList,1,1,-999999,1,289958,0,1,717,290675,Target1.bmp,lime,1,,,,2,1,10
KW_Experiment5A,44,1,"<?xml version=""1.0""?>\n<Clock xmlns:dt=""urn:schemas-microsoft-com:datatypes""><Description dt:dt=""string"">E-Prime Primary Realtime Clock</Description><StartTime><Timestamp dt:dt=""int"">0</Timestamp><DateUtc dt:dt=""string"">2018-10-25T19:41:38Z</DateUtc></StartTime><FrequencyChanges><FrequencyChange><Frequency dt:dt=""r8"">3215273</Frequency><Timestamp dt:dt=""r8"">1606425227862</Timestamp><Current dt:dt=""r8"">0</Current><DateUtc dt:dt=""string"">2018-10-25T19:41:38Z</DateUtc></FrequencyChange></FrequencyChanges></Clock>\n",KW_Experiment5A-44-1,59.944,1.0.0.105,1,108080576,Professional,2.0.10.353,2.0.10.353,10/25/2018,10/25/2018 19:41,15:41:38,2.0.10.248,2,2,1,2,,,,,,,,TrainingProc,BlockList,11,2,Distractor2.bmp,2,0,,0,1,291693,600,,0,0,cyan,600,3,600,,horizontal,cyan,Distractor1.bmp,blue,Distractor1.bmp,lime,Distractor1.bmp,purple,Distractor1.bmp,red,Target2.bmp,yellow,Distractor2.bmp,,,,TrialProc,4,TrainingTrialList,1,2,-999999,0,292293,0,2,638,292931,Target2.bmp,red,2,,,,11,1,11
KW_Experiment5A,44,1,"<?xml version=""1.0""?>\n<Clock xmlns:dt=""urn:schemas-microsoft-com:datatypes""><Description dt:dt=""string"">E-Prime Primary Realtime Clock</Description><StartTime><Timestamp dt:dt=""int"">0</Timestamp><DateUtc dt:dt=""string"">2018-10-25T19:41:38Z</DateUtc></StartTime><FrequencyChanges><FrequencyChange><Frequency dt:dt=""r8"">3215273</Frequency><Timestamp dt:dt=""r8"">1606425227862</Timestamp><Current dt:dt=""r8"">0</Current><DateUtc dt:dt=""string"">2018-10-25T19:41:38Z</DateUtc></FrequencyChange></FrequencyChanges></Clock>\n",KW_Experiment5A-44-1,59.944,1.0.0.105,1,108080576,Professional,2.0.10.353,2.0.10.353,10/25/2018,10/25/2018 19:41,15:41:38,2.0.10.248,2,2,1,2,,,,,,,,TrainingProc,BlockList,12,2,Distractor2.bmp,2,0,,0,1,293945,600,,0,0,cyan,600,3,600,,horizontal,cyan,Distractor1.bmp,blue,Distractor1.bmp,purple,Distractor2.bmp,red,Target2.bmp,yellow,Distractor2.bmp,lime,Distractor2.bmp,,,,TrialProc,4,TrainingTrialList,1,2,-999999,0,294545,0,2,866,295411,Target2.bmp,red,2,,,,10,1,12
KW_Experiment5A,44,1,"<?xml version=""1.0""?>\n<Clock xmlns:dt=""urn:schemas-microsoft-com:datatypes""><Description dt:dt=""string"">E-Prime Primary Realtime Clock</Description><StartTime><Timestamp dt:dt=""int"">0</Timestamp><DateUtc dt:dt=""string"">2018-10-25T19:41:38Z</DateUtc></StartTime><FrequencyChanges><FrequencyChange><Frequency dt:dt=""r8"">3215273</Frequency><Timestamp dt:dt=""r8"">1606425227862</Timestamp><Current dt:dt=""r8"">0</Current><DateUtc dt:dt=""string"">2018-10-25T19:41:38Z</DateUtc></FrequencyChange></FrequencyChanges></Clock>\n",KW_Experiment5A-44-1,59.944,1.0.0.105,1,108080576,Professional,2.0.10.353,2.0.10.353,10/25/2018,10/25/2018 19:41,15:41:38,2.0.10.248,2,2,1,2,,,,,,,,TrainingProc,BlockList,13,2,Distractor1.bmp,1,0,,0,0,296430,501,,0,0,cyan,500,2,500,4,horizontal,cyan,Distractor2.bmp,red,Distractor1.bmp,purple,Distractor1.bmp,yellow,Distractor1.bmp,lime,Target2.bmp,blue,Distractor1.bmp,,,,TrialProc,,TrainingTrialList,1,2,-999999,1,296931,0,2,1200,298131,Target2.bmp,lime,2,,,,5,1,13
KW_Experiment5A,44,1,"<?xml version=""1.0""?>\n<Clock xmlns:dt=""urn:schemas-microsoft-com:datatypes""><Description dt:dt=""string"">E-Prime Primary Realtime Clock</Description><StartTime><Timestamp dt:dt=""int"">0</Timestamp><DateUtc dt:dt=""string"">2018-10-25T19:41:38Z</DateUtc></StartTime><FrequencyChanges><FrequencyChange><Frequency dt:dt=""r8"">3215273</Frequency><Timestamp dt:dt=""r8"">1606425227862</Timestamp><Current dt:dt=""r8"">0</Current><DateUtc dt:dt=""string"">2018-10-25T19:41:38Z</DateUtc></FrequencyChange></FrequencyChanges></Clock>\n",KW_Experiment5A-44-1,59.944,1.0.0.105,1,108080576,Professional,2.0.10.353,2.0.10.353,10/25/2018,10/25/2018 19:41,15:41:38,2.0.10.248,2,2,1,2,,,,,,,,TrainingProc,BlockList,14,2,Distractor1.bmp,1,0,,0,1,299150,500,,0,0,purple,500,2,500,5,horizontal,purple,Distractor1.bmp,cyan,Distractor2.bmp,blue,Distractor2.bmp,red,Distractor1.bmp,yellow,Distractor1.bmp,lime,Target2.bmp,,,,TrialProc,,TrainingTrialList,0,2,-999999,0,299650,0,1,865,300515,Target2.bmp,lime,2,,,,6,1,14
KW_Experiment5A,44,1,"<?xml version=""1.0""?>\n<Clock xmlns:dt=""urn:schemas-microsoft-com:datatypes""><Description dt:dt=""string"">E-Prime Primary Realtime Clock</Description><StartTime><Timestamp dt:dt=""int"">0</Timestamp><DateUtc dt:dt=""string"">2018-10-25T19:41:38Z</DateUtc></StartTime><FrequencyChanges><FrequencyChange><Frequency dt:dt=""r8"">3215273</Frequency><Timestamp dt:dt=""r8"">1606425227862</Timestamp><Current dt:dt=""r8"">0</Current><DateUtc dt:dt=""string"">2018-10-25T19:41:38Z</DateUtc></FrequencyChange></FrequencyChanges></Clock>\n",KW_Experiment5A-44-1,59.944,1.0.0.105,1,108080576,Professional,2.0.10.353,2.0.10.353,10/25/2018,10/25/2018 19:41,15:41:38,2.0.10.248,2,2,1,2,,,,,,,,TrainingProc,BlockList,15,1,Distractor2.bmp,2,0,,0,1,301535,601,,0,0,red,600,3,600,1,vertical,red,Distractor1.bmp,cyan,Distractor1.bmp,purple,Distractor2.bmp,yellow,Distractor2.bmp,lime,Target1.bmp,blue,Distractor2.bmp,,,,TrialProc,,TrainingTrialList,1,1,-999999,1,302136,0,1,1099,303235,Target1.bmp,lime,1,,,,5,1,15
KW_Experiment5A,44,1,"<?xml version=""1.0""?>\n<Clock xmlns:dt=""urn:schemas-microsoft-com:datatypes""><Description dt:dt=""string"">E-Prime Primary Realtime Clock</Description><StartTime><Timestamp dt:dt=""int"">0</Timestamp><DateUtc dt:dt=""string"">2018-10-25T19:41:38Z</DateUtc></StartTime><FrequencyChanges><FrequencyChange><Frequency dt:dt=""r8"">3215273</Frequency><Timestamp dt:dt=""r8"">1606425227862</Timestamp><Current dt:dt=""r8"">0</Current><DateUtc dt:dt=""string"">2018-10-25T19:41:38Z</DateUtc></FrequencyChange></FrequencyChanges></Clock>\n",KW_Experiment5A-44-1,59.944,1.0.0.105,1,108080576,Professional,2.0.10.353,2.0.10.353,10/25/2018,10/25/2018 19:41,15:41:38,2.0.10.248,2,2,1,2,,,,,,,,TrainingProc,BlockList,16,2,Distractor2.bmp,2,0,,0,1,304254,401,,0,0,purple,400,1,400,,horizontal,purple,Distractor2.bmp,yellow,Distractor1.bmp,lime,Distractor2.bmp,cyan,Distractor2.bmp,blue,Distractor1.bmp,red,Target2.bmp,,,,TrialProc,5,TrainingTrialList,1,2,-999999,1,304655,0,2,1284,305939,Target2.bmp,red,2,,,,12,1,16
KW_Experiment5A,44,1,"<?xml version=""1.0""?>\n<Clock xmlns:dt=""urn:schemas-microsoft-com:datatypes""><Description dt:dt=""string"">E-Prime Primary Realtime Clock</Description><StartTime><Timestamp dt:dt=""int"">0</Timestamp><DateUtc dt:dt=""string"">2018-10-25T19:41:38Z</DateUtc></StartTime><FrequencyChanges><FrequencyChange><Frequency dt:dt=""r8"">3215273</Frequency><Timestamp dt:dt=""r8"">1606425227862</Timestamp><Current dt:dt=""r8"">0</Current><DateUtc dt:dt=""string"">2018-10-25T19:41:38Z</DateUtc></FrequencyChange></FrequencyChanges></Clock>\n",KW_Experiment5A-44-1,59.944,1.0.0.105,1,108080576,Professional,2.0.10.353,2.0.10.353,10/25/2018,10/25/2018 19:41,15:41:38,2.0.10.248,2,2,1,2,,,,,,,,TrainingProc,BlockList,17,1,Distractor2.bmp,2,0,,0,1,306957,500,,0,0,red,500,2,500,1,vertical,red,Distractor2.bmp,cyan,Distractor1.bmp,purple,Distractor1.bmp,lime,Target1.bmp,yellow,Distractor2.bmp,blue,Distractor2.bmp,,,,TrialProc,,TrainingTrialList,1,1,-999999,0,307457,0,1,682,308139,Target1.bmp,lime,1,,,,4,1,17
KW_Experiment5A,44,1,"<?xml version=""1.0""?>\n<Clock xmlns:dt=""urn:schemas-microsoft-com:datatypes""><Description dt:dt=""string"">E-Prime Primary Realtime Clock</Description><StartTime><Timestamp dt:dt=""int"">0</Timestamp><DateUtc dt:dt=""string"">2018-10-25T19:41:38Z</DateUtc></StartTime><FrequencyChanges><FrequencyChange><Frequency dt:dt=""r8"">3215273</Frequency><Timestamp dt:dt=""r8"">1606425227862</Timestamp><Current dt:dt=""r8"">0</Current><DateUtc dt:dt=""string"">2018-10-25T19:41:38Z</DateUtc></FrequencyChange></FrequencyChanges></Clock>\n",KW_Experiment5A-44-1,59.944,1.0.0.105,1,108080576,Professional,2.0.10.353,2.0.10.353,10/25/2018,10/25/2018 19:41,15:41:38,2.0.10.248,2,2,1,2,,,,,,,,TrainingProc,BlockList,18,2,Distractor1.bmp,1,0,,0,1,309159,600,,0,0,yellow,600,3,600,2,horizontal,yellow,Distractor1.bmp,purple,Distractor2.bmp,red,Distractor2.bmp,lime,Target2.bmp,blue,Distractor1.bmp,cyan,Distractor1.bmp,,,,TrialProc,,TrainingTrialList,0,2,-999999,0,309759,0,1,764,310523,Target2.bmp,lime,2,,,,4,1,18
KW_Experiment5A,44,1,"<?xml version=""1.0""?>\n<Clock xmlns:dt=""urn:schemas-microsoft-com:datatypes""><Description dt:dt=""string"">E-Prime Primary Realtime Clock</Description><StartTime><Timestamp dt:dt=""int"">0</Timestamp><DateUtc dt:dt=""string"">2018-10-25T19:41:38Z</DateUtc></StartTime><FrequencyChanges><FrequencyChange><Frequency dt:dt=""r8"">3215273</Frequency><Timestamp dt:dt=""r8"">1606425227862</Timestamp><Current dt:dt=""r8"">0</Current><DateUtc dt:dt=""string"">2018-10-25T19:41:38Z</DateUtc></FrequencyChange></FrequencyChanges></Clock>\n",KW_Experiment5A-44-1,59.944,1.0.0.105,1,108080576,Professional,2.0.10.353,2.0.10.353,10/25/2018,10/25/2018 19:41,15:41:38,2.0.10.248,2,2,1,2,,,,,,,,TrainingProc,BlockList,19,2,Distractor1.bmp,1,0,,0,1,311544,501,,0,0,cyan,500,2,500,4,horizontal,lime,Target2.bmp,cyan,Distractor1.bmp,yellow,Distractor2.bmp,red,Distractor2.bmp,blue,Distractor2.bmp,purple,Distractor1.bmp,,,,TrialProc,,TrainingTrialList,1,2,-999999,1,312045,0,2,1158,313203,Target2.bmp,lime,2,,,,1,1,19
KW_Experiment5A,44,1,"<?xml version=""1.0""?>\n<Clock xmlns:dt=""urn:schemas-microsoft-com:datatypes""><Description dt:dt=""string"">E-Prime Primary Realtime Clock</Description><StartTime><Timestamp dt:dt=""int"">0</Timestamp><DateUtc dt:dt=""string"">2018-10-25T19:41:38Z</DateUtc></StartTime><FrequencyChanges><FrequencyChange><Frequency dt:dt=""r8"">3215273</Frequency><Timestamp dt:dt=""r8"">1606425227862</Timestamp><Current dt:dt=""r8"">0</Current><DateUtc dt:dt=""string"">2018-10-25T19:41:38Z</DateUtc></FrequencyChange></FrequencyChanges></Clock>\n",KW_Experiment5A-44-1,59.944,1.0.0.105,1,108080576,Professional,2.0.10.353,2.0.10.353,10/25/2018,10/25/2018 19:41,15:41:38,2.0.10.248,2,2,1,2,,,,,,,,TrainingProc,BlockList,20,1,Distractor2.bmp,2,0,,0,1,314213,601,,0,0,cyan,600,3,600,4,vertical,lime,Target1.bmp,cyan,Distractor2.bmp,yellow,Distractor1.bmp,red,Distractor1.bmp,purple,Distractor1.bmp,blue,Distractor1.bmp,,,,TrialProc,,TrainingTrialList,1,1,-999999,1,314814,0,1,941,315755,Target1.bmp,lime,1,,,,1,1,20
KW_Experiment5A,44,1,"<?xml version=""1.0""?>\n<Clock xmlns:dt=""urn:schemas-microsoft-com:datatypes""><Description dt:dt=""string"">E-Prime Primary Realtime Clock</Description><StartTime><Timestamp dt:dt=""int"">0</Timestamp><DateUtc dt:dt=""string"">2018-10-25T19:41:38Z</DateUtc></StartTime><FrequencyChanges><FrequencyChange><Frequency dt:dt=""r8"">3215273</Frequency><Timestamp dt:dt=""r8"">1606425227862</Timestamp><Current dt:dt=""r8"">0</Current><DateUtc dt:dt=""string"">2018-10-25T19:41:38Z</DateUtc></FrequencyChange></FrequencyChanges></Clock>\n",KW_Experiment5A-44-1,59.944,1.0.0.105,1,108080576,Professional,2.0.10.353,2.0.10.353,10/25/2018,10/25/2018 19:41,15:41:38,2.0.10.248,2,2,1,2,,,,,,,,TrainingProc,BlockList,21,2,Distractor2.bmp,2,0,,0,1,316766,400,,0,0,purple,400,1,400,5,horizontal,purple,Distractor1.bmp,red,Distractor2.bmp,lime,Target2.bmp,cyan,Distractor2.bmp,blue,Distractor1.bmp,yellow,Distractor2.bmp,,,,TrialProc,,TrainingTrialList,1,2,-999999,0,317166,0,2,1277,318443,Target2.bmp,lime,2,,,,3,1,21
KW_Experiment5A,44,1,"<?xml version=""1.0""?>\n<Clock xmlns:dt=""urn:schemas-microsoft-com:datatypes""><Description dt:dt=""string"">E-Prime Primary Realtime Clock</Description><StartTime><Timestamp dt:dt=""int"">0</Timestamp><DateUtc dt:dt=""string"">2018-10-25T19:41:38Z</DateUtc></StartTime><FrequencyChanges><FrequencyChange><Frequency dt:dt=""r8"">3215273</Frequency><Timestamp dt:dt=""r8"">1606425227862</Timestamp><Current dt:dt=""r8"">0</Current><DateUtc dt:dt=""string"">2018-10-25T19:41:38Z</DateUtc></FrequencyChange></FrequencyChanges></Clock>\n",KW_Experiment5A-44-1,59.944,1.0.0.105,1,108080576,Professional,2.0.10.353,2.0.10.353,10/25/2018,10/25/2018 19:41,15:41:38,2.0.10.248,2,2,1,2,,,,,,,,TrainingProc,BlockList,22,1,Distractor1.bmp,1,0,,0,1,319468,401,,0,0,yellow,400,1,400,2,vertical,lime,Target1.bmp,yellow,Distractor1.bmp,cyan,Distractor1.bmp,blue,Distractor2.bmp,red,Distractor2.bmp,purple,Distractor1.bmp,,,,TrialProc,,TrainingTrialList,1,1,-999999,1,319869,0,1,638,320507,Target1.bmp,lime,1,,,,1,1,22
KW_Experiment5A,44,1,"<?xml version=""1.0""?>\n<Clock xmlns:dt=""urn:schemas-microsoft-com:datatypes""><Description dt:dt=""string"">E-Prime Primary Realtime Clock</Description><StartTime><Timestamp dt:dt=""int"">0</Timestamp><DateUtc dt:dt=""string"">2018-10-25T19:41:38Z</DateUtc></StartTime><FrequencyChanges><FrequencyChange><Frequency dt:dt=""r8"">3215273</Frequency><Timestamp dt:dt=""r8"">1606425227862</Timestamp><Current dt:dt=""r8"">0</Current><DateUtc dt:dt=""string"">2018-10-25T19:41:38Z</DateUtc></FrequencyChange></FrequencyChanges></Clock>\n",KW_Experiment5A-44-1,59.944,1.0.0.105,1,108080576,Professional,2.0.10.353,2.0.10.353,10/25/2018,10/25/2018 19:41,15:41:38,2.0.10.248,2,2,1,2,,,,,,,,TrainingProc,BlockList,23,1,Distractor2.bmp,2,0,,0,1,321520,400,,0,0,blue,400,1,400,3,vertical,blue,Distractor2.bmp,cyan,Distractor1.bmp,yellow,Distractor2.bmp,red,Distractor2.bmp,purple,Distractor1.bmp,lime,Target1.bmp,,,,TrialProc,,TrainingTrialList,1,1,-999999,0,321920,0,1,667,322587,Target1.bmp,lime,1,,,,6,1,23
KW_Experiment5A,44,1,"<?xml version=""1.0""?>\n<Clock xmlns:dt=""urn:schemas-microsoft-com:datatypes""><Description dt:dt=""string"">E-Prime Primary Realtime Clock</Description><StartTime><Timestamp dt:dt=""int"">0</Timestamp><DateUtc dt:dt=""string"">2018-10-25T19:41:38Z</DateUtc></StartTime><FrequencyChanges><FrequencyChange><Frequency dt:dt=""r8"">3215273</Frequency><Timestamp dt:dt=""r8"">1606425227862</Timestamp><Current dt:dt=""r8"">0</Current><DateUtc dt:dt=""string"">2018-10-25T19:41:38Z</DateUtc></FrequencyChange></FrequencyChanges></Clock>\n",KW_Experiment5A-44-1,59.944,1.0.0.105,1,108080576,Professional,2.0.10.353,2.0.10.353,10/25/2018,10/25/2018 19:41,15:41:38,2.0.10.248,2,2,1,2,,,,,,,,TrainingProc,BlockList,24,1,Distractor2.bmp,2,0,,0,1,323605,601,,0,0,purple,600,3,600,5,vertical,purple,Distractor1.bmp,lime,Target1.bmp,blue,Distractor2.bmp,red,Distractor2.bmp,yellow,Distractor2.bmp,cyan,Distractor2.bmp,,,,TrialProc,,TrainingTrialList,1,1,-999999,1,324206,0,1,765,324971,Target1.bmp,lime,1,,,,2,1,24
KW_Experiment5A,44,1,"<?xml version=""1.0""?>\n<Clock xmlns:dt=""urn:schemas-microsoft-com:datatypes""><Description dt:dt=""string"">E-Prime Primary Realtime Clock</Description><StartTime><Timestamp dt:dt=""int"">0</Timestamp><DateUtc dt:dt=""string"">2018-10-25T19:41:38Z</DateUtc></StartTime><FrequencyChanges><FrequencyChange><Frequency dt:dt=""r8"">3215273</Frequency><Timestamp dt:dt=""r8"">1606425227862</Timestamp><Current dt:dt=""r8"">0</Current><DateUtc dt:dt=""string"">2018-10-25T19:41:38Z</DateUtc></FrequencyChange></FrequencyChanges></Clock>\n",KW_Experiment5A-44-1,59.944,1.0.0.105,1,108080576,Professional,2.0.10.353,2.0.10.353,10/25/2018,10/25/2018 19:41,15:41:38,2.0.10.248,2,2,1,2,,,,,,,,TrainingProc,BlockList,25,1,Distractor1.bmp,1,0,,0,1,325991,600,,0,0,cyan,600,3,600,,vertical,red,Target1.bmp,lime,Distractor1.bmp,purple,Distractor1.bmp,yellow,Distractor1.bmp,blue,Distractor2.bmp,cyan,Distractor2.bmp,,,,TrialProc,4,TrainingTrialList,1,1,-999999,0,326591,0,1,596,327187,Target1.bmp,red,1,,,,7,2,25
KW_Experiment5A,44,1,"<?xml version=""1.0""?>\n<Clock xmlns:dt=""urn:schemas-microsoft-com:datatypes""><Description dt:dt=""string"">E-Prime Primary Realtime Clock</Description><StartTime><Timestamp dt:dt=""int"">0</Timestamp><DateUtc dt:dt=""string"">2018-10-25T19:41:38Z</DateUtc></StartTime><FrequencyChanges><FrequencyChange><Frequency dt:dt=""r8"">3215273</Frequency><Timestamp dt:dt=""r8"">1606425227862</Timestamp><Current dt:dt=""r8"">0</Current><DateUtc dt:dt=""string"">2018-10-25T19:41:38Z</DateUtc></FrequencyChange></FrequencyChanges></Clock>\n",KW_Experiment5A-44-1,59.944,1.0.0.105,1,108080576,Professional,2.0.10.353,2.0.10.353,10/25/2018,10/25/2018 19:41,15:41:38,2.0.10.248,2,2,1,2,,,,,,,,TrainingProc,BlockList,26,1,Distractor2.bmp,2,0,,1,0,328209,501,,0,0,yellow,500,2,500,,vertical,yellow,Distractor2.bmp,cyan,Distractor2.bmp,purple,Distractor2.bmp,red,Target1.bmp,lime,Distractor2.bmp,blue,Distractor1.bmp,,,,TrialProc,2,TrainingTrialList,1,1,-999999,1,328710,0,1,645,329355,Target1.bmp,red,1,,,,10,2,26
KW_Experiment5A,44,1,"<?xml version=""1.0""?>\n<Clock xmlns:dt=""urn:schemas-microsoft-com:datatypes""><Description dt:dt=""string"">E-Prime Primary Realtime Clock</Description><StartTime><Timestamp dt:dt=""int"">0</Timestamp><DateUtc dt:dt=""string"">2018-10-25T19:41:38Z</DateUtc></StartTime><FrequencyChanges><FrequencyChange><Frequency dt:dt=""r8"">3215273</Frequency><Timestamp dt:dt=""r8"">1606425227862</Timestamp><Current dt:dt=""r8"">0</Current><DateUtc dt:dt=""string"">2018-10-25T19:41:38Z</DateUtc></FrequencyChange></FrequencyChanges></Clock>\n",KW_Experiment5A-44-1,59.944,1.0.0.105,1,108080576,Professional,2.0.10.353,2.0.10.353,10/25/2018,10/25/2018 19:41,15:41:38,2.0.10.248,2,2,1,2,,,,,,,,TrainingProc,BlockList,27,1,Distractor1.bmp,1,0,,0,1,330378,601,,0,0,blue,600,3,600,3,vertical,blue,Distractor1.bmp,cyan,Distractor2.bmp,red,Distractor2.bmp,purple,Distractor1.bmp,yellow,Distractor1.bmp,lime,Target1.bmp,,,,TrialProc,,TrainingTrialList,1,1,-999999,1,330979,0,1,600,331579,Target1.bmp,lime,1,,,,6,2,27
KW_Experiment5A,44,1,"<?xml version=""1.0""?>\n<Clock xmlns:dt=""urn:schemas-microsoft-com:datatypes""><Description dt:dt=""string"">E-Prime Primary Realtime Clock</Description><StartTime><Timestamp dt:dt=""int"">0</Timestamp><DateUtc dt:dt=""string"">2018-10-25T19:41:38Z</DateUtc></StartTime><FrequencyChanges><FrequencyChange><Frequency dt:dt=""r8"">3215273</Frequency><Timestamp dt:dt=""r8"">1606425227862</Timestamp><Current dt:dt=""r8"">0</Current><DateUtc dt:dt=""string"">2018-10-25T19:41:38Z</DateUtc></FrequencyChange></FrequencyChanges></Clock>\n",KW_Experiment5A-44-1,59.944,1.0.0.105,1,108080576,Professional,2.0.10.353,2.0.10.353,10/25/2018,10/25/2018 19:41,15:41:38,2.0.10.248,2,2,1,2,,,,,,,,TrainingProc,BlockList,28,1,Distractor1.bmp,1,0,,0,1,332597,600,,0,0,yellow,600,3,600,,vertical,yellow,Distractor2.bmp,red,Target1.bmp,lime,Distractor1.bmp,purple,Distractor1.bmp,blue,Distractor1.bmp,cyan,Distractor1.bmp,,,,TrialProc,2,TrainingTrialList,1,1,-999999,0,333197,0,1,750,333947,Target1.bmp,red,1,,,,8,2,28
KW_Experiment5A,44,1,"<?xml version=""1.0""?>\n<Clock xmlns:dt=""urn:schemas-microsoft-com:datatypes""><Description dt:dt=""string"">E-Prime Primary Realtime Clock</Description><StartTime><Timestamp dt:dt=""int"">0</Timestamp><DateUtc dt:dt=""string"">2018-10-25T19:41:38Z</DateUtc></StartTime><FrequencyChanges><FrequencyChange><Frequency dt:dt=""r8"">3215273</Frequency><Timestamp dt:dt=""r8"">1606425227862</Timestamp><Current dt:dt=""r8"">0</Current><DateUtc dt:dt=""string"">2018-10-25T19:41:38Z</DateUtc></FrequencyChange></FrequencyChanges></Clock>\n",KW_Experiment5A-44-1,59.944,1.0.0.105,1,108080576,Professional,2.0.10.353,2.0.10.353,10/25/2018,10/25/2018 19:41,15:41:38,2.0.10.248,2,2,1,2,,,,,,,,TrainingProc,BlockList,29,1,Distractor2.bmp,2,0,,0,1,334966,500,,0,0,cyan,500,2,500,,vertical,cyan,Distractor2.bmp,purple,Distractor1.bmp,red,Target1.bmp,yellow,Distractor2.bmp,blue,Distractor1.bmp,lime,Distractor2.bmp,,,,TrialProc,4,TrainingTrialList,1,1,-999999,0,335466,0,1,656,336122,Target1.bmp,red,1,,,,9,2,29
KW_Experiment5A,44,1,"<?xml version=""1.0""?>\n<Clock xmlns:dt=""urn:schemas-microsoft-com:datatypes""><Description dt:dt=""string"">E-Prime Primary Realtime Clock</Description><StartTime><Timestamp dt:dt=""int"">0</Timestamp><DateUtc dt:dt=""string"">2018-10-25T19:41:38Z</DateUtc></StartTime><FrequencyChanges><FrequencyChange><Frequency dt:dt=""r8"">3215273</Frequency><Timestamp dt:dt=""r8"">1606425227862</Timestamp><Current dt:dt=""r8"">0</Current><DateUtc dt:dt=""string"">2018-10-25T19:41:38Z</DateUtc></FrequencyChange></FrequencyChanges></Clock>\n",KW_Experiment5A-44-1,59.944,1.0.0.105,1,108080576,Professional,2.0.10.353,2.0.10.353,10/25/2018,10/25/2018 19:41,15:41:38,2.0.10.248,2,2,1,2,,,,,,,,TrainingProc,BlockList,30,2,Distractor1.bmp,1,0,,0,1,337134,601,,0,0,blue,600,3,600,3,horizontal,blue,Distractor1.bmp,yellow,Distractor2.bmp,lime,Target2.bmp,red,Distractor1.bmp,purple,Distractor2.bmp,cyan,Distractor2.bmp,,,,TrialProc,,TrainingTrialList,1,2,-999999,1,337735,0,2,715,338450,Target2.bmp,lime,2,,,,3,2,30
KW_Experiment5A,44,1,"<?xml version=""1.0""?>\n<Clock xmlns:dt=""urn:schemas-microsoft-com:datatypes""><Description dt:dt=""string"">E-Prime Primary Realtime Clock</Description><StartTime><Timestamp dt:dt=""int"">0</Timestamp><DateUtc dt:dt=""string"">2018-10-25T19:41:38Z</DateUtc></StartTime><FrequencyChanges><FrequencyChange><Frequency dt:dt=""r8"">3215273</Frequency><Timestamp dt:dt=""r8"">1606425227862</Timestamp><Current dt:dt=""r8"">0</Current><DateUtc dt:dt=""string"">2018-10-25T19:41:38Z</DateUtc></FrequencyChange></FrequencyChanges></Clock>\n",KW_Experiment5A-44-1,59.944,1.0.0.105,1,108080576,Professional,2.0.10.353,2.0.10.353,10/25/2018,10/25/2018 19:41,15:41:38,2.0.10.248,2,2,1,2,,,,,,,,TrainingProc,BlockList,31,2,Distractor2.bmp,2,0,,0,1,339470,600,,0,0,cyan,600,3,600,4,horizontal,cyan,Distractor2.bmp,purple,Distractor2.bmp,lime,Target2.bmp,blue,Distractor2.bmp,red,Distractor2.bmp,yellow,Distractor1.bmp,,,,TrialProc,,TrainingTrialList,1,2,-999999,0,340070,0,2,764,340834,Target2.bmp,lime,2,,,,3,2,31
KW_Experiment5A,44,1,"<?xml version=""1.0""?>\n<Clock xmlns:dt=""urn:schemas-microsoft-com:datatypes""><Description dt:dt=""string"">E-Prime Primary Realtime Clock</Description><StartTime><Timestamp dt:dt=""int"">0</Timestamp><DateUtc dt:dt=""string"">2018-10-25T19:41:38Z</DateUtc></StartTime><FrequencyChanges><FrequencyChange><Frequency dt:dt=""r8"">3215273</Frequency><Timestamp dt:dt=""r8"">1606425227862</Timestamp><Current dt:dt=""r8"">0</Current><DateUtc dt:dt=""string"">2018-10-25T19:41:38Z</DateUtc></FrequencyChange></FrequencyChanges></Clock>\n",KW_Experiment5A-44-1,59.944,1.0.0.105,1,108080576,Professional,2.0.10.353,2.0.10.353,10/25/2018,10/25/2018 19:41,15:41:38,2.0.10.248,2,2,1,2,,,,,,,,TrainingProc,BlockList,32,2,Distractor2.bmp,2,0,,0,1,341855,601,,0,0,cyan,600,3,600,4,horizontal,cyan,Distractor1.bmp,blue,Distractor1.bmp,red,Distractor2.bmp,lime,Target2.bmp,yellow,Distractor2.bmp,purple,Distractor1.bmp,,,,TrialProc,,TrainingTrialList,1,2,-999999,1,342456,0,2,706,343162,Target2.bmp,lime,2,,,,4,2,32
KW_Experiment5A,44,1,"<?xml version=""1.0""?>\n<Clock xmlns:dt=""urn:schemas-microsoft-com:datatypes""><Description dt:dt=""string"">E-Prime Primary Realtime Clock</Description><StartTime><Timestamp dt:dt=""int"">0</Timestamp><DateUtc dt:dt=""string"">2018-10-25T19:41:38Z</DateUtc></StartTime><FrequencyChanges><FrequencyChange><Frequency dt:dt=""r8"">3215273</Frequency><Timestamp dt:dt=""r8"">1606425227862</Timestamp><Current dt:dt=""r8"">0</Current><DateUtc dt:dt=""string"">2018-10-25T19:41:38Z</DateUtc></FrequencyChange></FrequencyChanges></Clock>\n",KW_Experiment5A-44-1,59.944,1.0.0.105,1,108080576,Professional,2.0.10.353,2.0.10.353,10/25/2018,10/25/2018 19:41,15:41:38,2.0.10.248,2,2,1,2,,,,,,,,TrainingProc,BlockList,33,2,Distractor1.bmp,1,0,,0,1,344174,601,,0,0,cyan,600,3,600,4,horizontal,cyan,Distractor2.bmp,lime,Target2.bmp,blue,Distractor1.bmp,yellow,Distractor1.bmp,purple,Distractor2.bmp,red,Distractor2.bmp,,,,TrialProc,,TrainingTrialList,1,2,-999999,1,344775,0,2,651,345426,Target2.bmp,lime,2,,,,2,2,33
KW_Experiment5A,44,1,"<?xml version=""1.0""?>\n<Clock xmlns:dt=""urn:schemas-microsoft-com:datatypes""><Description dt:dt=""string"">E-Prime Primary Realtime Clock</Description><StartTime><Timestamp dt:dt=""int"">0</Timestamp><DateUtc dt:dt=""string"">2018-10-25T19:41:38Z</DateUtc></StartTime><FrequencyChanges><FrequencyChange><Frequency dt:dt=""r8"">3215273</Frequency><Timestamp dt:dt=""r8"">1606425227862</Timestamp><Current dt:dt=""r8"">0</Current><DateUtc dt:dt=""string"">2018-10-25T19:41:38Z</DateUtc></FrequencyChange></FrequencyChanges></Clock>\n",KW_Experiment5A-44-1,59.944,1.0.0.105,1,108080576,Professional,2.0.10.353,2.0.10.353,10/25/2018,10/25/2018 19:41,15:41:38,2.0.10.248,2,2,1,2,,,,,,,,TrainingProc,BlockList,34,1,Distractor1.bmp,1,0,,0,1,346443,600,,0,0,yellow,600,3,600,2,vertical,yellow,Distractor2.bmp,lime,Target1.bmp,cyan,Distractor1.bmp,purple,Distractor2.bmp,red,Distractor2.bmp,blue,Distractor2.bmp,,,,TrialProc,,TrainingTrialList,1,1,-999999,0,347043,0,1,535,347578,Target1.bmp,lime,1,,,,2,2,34
KW_Experiment5A,44,1,"<?xml version=""1.0""?>\n<Clock xmlns:dt=""urn:schemas-microsoft-com:datatypes""><Description dt:dt=""string"">E-Prime Primary Realtime Clock</Description><StartTime><Timestamp dt:dt=""int"">0</Timestamp><DateUtc dt:dt=""string"">2018-10-25T19:41:38Z</DateUtc></StartTime><FrequencyChanges><FrequencyChange><Frequency dt:dt=""r8"">3215273</Frequency><Timestamp dt:dt=""r8"">1606425227862</Timestamp><Current dt:dt=""r8"">0</Current><DateUtc dt:dt=""string"">2018-10-25T19:41:38Z</DateUtc></FrequencyChange></FrequencyChanges></Clock>\n",KW_Experiment5A-44-1,59.944,1.0.0.105,1,108080576,Professional,2.0.10.353,2.0.10.353,10/25/2018,10/25/2018 19:41,15:41:38,2.0.10.248,2,2,1,2,,,,,,,,TrainingProc,BlockList,35,1,Distractor1.bmp,1,0,,0,1,348595,500,,0,0,yellow,500,2,500,2,vertical,yellow,Distractor2.bmp,cyan,Distractor1.bmp,purple,Distractor2.bmp,lime,Target1.bmp,red,Distractor1.bmp,blue,Distractor1.bmp,,,,TrialProc,,TrainingTrialList,1,1,-999999,0,349095,0,1,883,349978,Target1.bmp,lime,1,,,,4,2,35
KW_Experiment5A,44,1,"<?xml version=""1.0""?>\n<Clock xmlns:dt=""urn:schemas-microsoft-com:datatypes""><Description dt:dt=""string"">E-Prime Primary Realtime Clock</Description><StartTime><Timestamp dt:dt=""int"">0</Timestamp><DateUtc dt:dt=""string"">2018-10-25T19:41:38Z</DateUtc></StartTime><FrequencyChanges><FrequencyChange><Frequency dt:dt=""r8"">3215273</Frequency><Timestamp dt:dt=""r8"">1606425227862</Timestamp><Current dt:dt=""r8"">0</Current><DateUtc dt:dt=""string"">2018-10-25T19:41:38Z</DateUtc></FrequencyChange></FrequencyChanges></Clock>\n",KW_Experiment5A-44-1,59.944,1.0.0.105,1,108080576,Professional,2.0.10.353,2.0.10.353,10/25/2018,10/25/2018 19:41,15:41:38,2.0.10.248,2,2,1,2,,,,,,,,TrainingProc,BlockList,36,2,Distractor2.bmp,2,0,,0,1,350997,500,,0,0,blue,500,2,500,3,horizontal,blue,Distractor2.bmp,red,Distractor1.bmp,cyan,Distractor2.bmp,purple,Distractor1.bmp,yellow,Distractor2.bmp,lime,Target2.bmp,,,,TrialProc,,TrainingTrialList,1,2,-999999,0,351497,0,2,1121,352618,Target2.bmp,lime,2,,,,6,2,36
KW_Experiment5A,44,1,"<?xml version=""1.0""?>\n<Clock xmlns:dt=""urn:schemas-microsoft-com:datatypes""><Description dt:dt=""string"">E-Prime Primary Realtime Clock</Description><StartTime><Timestamp dt:dt=""int"">0</Timestamp><DateUtc dt:dt=""string"">2018-10-25T19:41:38Z</DateUtc></StartTime><FrequencyChanges><FrequencyChange><Frequency dt:dt=""r8"">3215273</Frequency><Timestamp dt:dt=""r8"">1606425227862</Timestamp><Current dt:dt=""r8"">0</Current><DateUtc dt:dt=""string"">2018-10-25T19:41:38Z</DateUtc></FrequencyChange></FrequencyChanges></Clock>\n",KW_Experiment5A-44-1,59.944,1.0.0.105,1,108080576,Professional,2.0.10.353,2.0.10.353,10/25/2018,10/25/2018 19:41,15:41:38,2.0.10.248,2,2,1,2,,,,,,,,TrainingProc,BlockList,37,1,Distractor2.bmp,2,0,,0,1,353633,600,,0,0,purple,600,3,600,5,vertical,purple,Distractor1.bmp,blue,Distractor1.bmp,lime,Target1.bmp,cyan,Distractor2.bmp,red,Distractor1.bmp,yellow,Distractor2.bmp,,,,TrialProc,,TrainingTrialList,1,1,-999999,0,354233,0,1,873,355106,Target1.bmp,lime,1,,,,3,2,37
KW_Experiment5A,44,1,"<?xml version=""1.0""?>\n<Clock xmlns:dt=""urn:schemas-microsoft-com:datatypes""><Description dt:dt=""string"">E-Prime Primary Realtime Clock</Description><StartTime><Timestamp dt:dt=""int"">0</Timestamp><DateUtc dt:dt=""string"">2018-10-25T19:41:38Z</DateUtc></StartTime><FrequencyChanges><FrequencyChange><Frequency dt:dt=""r8"">3215273</Frequency><Timestamp dt:dt=""r8"">1606425227862</Timestamp><Current dt:dt=""r8"">0</Current><DateUtc dt:dt=""string"">2018-10-25T19:41:38Z</DateUtc></FrequencyChange></FrequencyChanges></Clock>\n",KW_Experiment5A-44-1,59.944,1.0.0.105,1,108080576,Professional,2.0.10.353,2.0.10.353,10/25/2018,10/25/2018 19:41,15:41:38,2.0.10.248,2,2,1,2,,,,,,,,TrainingProc,BlockList,38,1,Distractor1.bmp,1,0,,0,1,356118,601,,0,0,cyan,600,3,600,4,vertical,lime,Target1.bmp,cyan,Distractor1.bmp,purple,Distractor2.bmp,red,Distractor2.bmp,blue,Distractor2.bmp,yellow,Distractor2.bmp,,,,TrialProc,,TrainingTrialList,1,1,-999999,1,356719,0,1,1243,357962,Target1.bmp,lime,1,,,,1,2,38
KW_Experiment5A,44,1,"<?xml version=""1.0""?>\n<Clock xmlns:dt=""urn:schemas-microsoft-com:datatypes""><Description dt:dt=""string"">E-Prime Primary Realtime Clock</Description><StartTime><Timestamp dt:dt=""int"">0</Timestamp><DateUtc dt:dt=""string"">2018-10-25T19:41:38Z</DateUtc></StartTime><FrequencyChanges><FrequencyChange><Frequency dt:dt=""r8"">3215273</Frequency><Timestamp dt:dt=""r8"">1606425227862</Timestamp><Current dt:dt=""r8"">0</Current><DateUtc dt:dt=""string"">2018-10-25T19:41:38Z</DateUtc></FrequencyChange></FrequencyChanges></Clock>\n",KW_Experiment5A-44-1,59.944,1.0.0.105,1,108080576,Professional,2.0.10.353,2.0.10.353,10/25/2018,10/25/2018 19:41,15:41:38,2.0.10.248,2,2,1,2,,,,,,,,TrainingProc,BlockList,39,2,Distractor1.bmp,1,0,,0,1,358988,600,,0,0,blue,600,3,600,,horizontal,blue,Distractor1.bmp,cyan,Distractor1.bmp,purple,Distractor1.bmp,lime,Distractor1.bmp,yellow,Distractor2.bmp,red,Target2.bmp,,,,TrialProc,3,TrainingTrialList,0,2,-999999,0,359588,0,1,998,360586,Target2.bmp,red,2,,,,12,2,39
KW_Experiment5A,44,1,"<?xml version=""1.0""?>\n<Clock xmlns:dt=""urn:schemas-microsoft-com:datatypes""><Description dt:dt=""string"">E-Prime Primary Realtime Clock</Description><StartTime><Timestamp dt:dt=""int"">0</Timestamp><DateUtc dt:dt=""string"">2018-10-25T19:41:38Z</DateUtc></StartTime><FrequencyChanges><FrequencyChange><Frequency dt:dt=""r8"">3215273</Frequency><Timestamp dt:dt=""r8"">1606425227862</Timestamp><Current dt:dt=""r8"">0</Current><DateUtc dt:dt=""string"">2018-10-25T19:41:38Z</DateUtc></FrequencyChange></FrequencyChanges></Clock>\n",KW_Experiment5A-44-1,59.944,1.0.0.105,1,108080576,Professional,2.0.10.353,2.0.10.353,10/25/2018,10/25/2018 19:41,15:41:38,2.0.10.248,2,2,1,2,,,,,,,,TrainingProc,BlockList,40,2,Distractor2.bmp,2,0,,0,1,361607,600,,0,0,purple,600,3,600,5,horizontal,purple,Distractor2.bmp,cyan,Distractor1.bmp,red,Distractor2.bmp,blue,Distractor2.bmp,lime,Target2.bmp,yellow,Distractor2.bmp,,,,TrialProc,,TrainingTrialList,1,2,-999999,0,362207,0,2,1003,363210,Target2.bmp,lime,2,,,,5,2,40
KW_Experiment5A,44,1,"<?xml version=""1.0""?>\n<Clock xmlns:dt=""urn:schemas-microsoft-com:datatypes""><Description dt:dt=""string"">E-Prime Primary Realtime Clock</Description><StartTime><Timestamp dt:dt=""int"">0</Timestamp><DateUtc dt:dt=""string"">2018-10-25T19:41:38Z</DateUtc></StartTime><FrequencyChanges><FrequencyChange><Frequency dt:dt=""r8"">3215273</Frequency><Timestamp dt:dt=""r8"">1606425227862</Timestamp><Current dt:dt=""r8"">0</Current><DateUtc dt:dt=""string"">2018-10-25T19:41:38Z</DateUtc></FrequencyChange></FrequencyChanges></Clock>\n",KW_Experiment5A-44-1,59.944,1.0.0.105,1,108080576,Professional,2.0.10.353,2.0.10.353,10/25/2018,10/25/2018 19:41,15:41:38,2.0.10.248,2,2,1,2,,,,,,,,TrainingProc,BlockList,41,2,Distractor2.bmp,2,0,,0,1,364226,400,,0,0,red,400,1,400,1,horizontal,red,Distractor1.bmp,blue,Distractor2.bmp,purple,Distractor1.bmp,yellow,Distractor2.bmp,lime,Target2.bmp,cyan,Distractor2.bmp,,,,TrialProc,,TrainingTrialList,1,2,-999999,0,364626,0,2,648,365274,Target2.bmp,lime,2,,,,5,2,41
KW_Experiment5A,44,1,"<?xml version=""1.0""?>\n<Clock xmlns:dt=""urn:schemas-microsoft-com:datatypes""><Description dt:dt=""string"">E-Prime Primary Realtime Clock</Description><StartTime><Timestamp dt:dt=""int"">0</Timestamp><DateUtc dt:dt=""string"">2018-10-25T19:41:38Z</DateUtc></StartTime><FrequencyChanges><FrequencyChange><Frequency dt:dt=""r8"">3215273</Frequency><Timestamp dt:dt=""r8"">1606425227862</Timestamp><Current dt:dt=""r8"">0</Current><DateUtc dt:dt=""string"">2018-10-25T19:41:38Z</DateUtc></FrequencyChange></FrequencyChanges></Clock>\n",KW_Experiment5A-44-1,59.944,1.0.0.105,1,108080576,Professional,2.0.10.353,2.0.10.353,10/25/2018,10/25/2018 19:41,15:41:38,2.0.10.248,2,2,1,2,,,,,,,,TrainingProc,BlockList,42,1,Distractor2.bmp,2,0,,0,1,366294,401,,0,0,yellow,400,1,400,2,vertical,lime,Target1.bmp,yellow,Distractor2.bmp,red,Distractor1.bmp,purple,Distractor1.bmp,blue,Distractor2.bmp,cyan,Distractor1.bmp,,,,TrialProc,,TrainingTrialList,0,1,-999999,1,366695,0,2,707,367402,Target1.bmp,lime,1,,,,1,2,42
KW_Experiment5A,44,1,"<?xml version=""1.0""?>\n<Clock xmlns:dt=""urn:schemas-microsoft-com:datatypes""><Description dt:dt=""string"">E-Prime Primary Realtime Clock</Description><StartTime><Timestamp dt:dt=""int"">0</Timestamp><DateUtc dt:dt=""string"">2018-10-25T19:41:38Z</DateUtc></StartTime><FrequencyChanges><FrequencyChange><Frequency dt:dt=""r8"">3215273</Frequency><Timestamp dt:dt=""r8"">1606425227862</Timestamp><Current dt:dt=""r8"">0</Current><DateUtc dt:dt=""string"">2018-10-25T19:41:38Z</DateUtc></FrequencyChange></FrequencyChanges></Clock>\n",KW_Experiment5A-44-1,59.944,1.0.0.105,1,108080576,Professional,2.0.10.353,2.0.10.353,10/25/2018,10/25/2018 19:41,15:41:38,2.0.10.248,2,2,1,2,,,,,,,,TrainingProc,BlockList,43,1,Distractor1.bmp,1,0,,0,1,368430,600,,0,0,yellow,600,3,600,2,vertical,yellow,Distractor2.bmp,lime,Target1.bmp,blue,Distractor1.bmp,cyan,Distractor2.bmp,purple,Distractor1.bmp,red,Distractor2.bmp,,,,TrialProc,,TrainingTrialList,1,1,-999999,0,369030,0,1,660,369690,Target1.bmp,lime,1,,,,2,2,43
KW_Experiment5A,44,1,"<?xml version=""1.0""?>\n<Clock xmlns:dt=""urn:schemas-microsoft-com:datatypes""><Description dt:dt=""string"">E-Prime Primary Realtime Clock</Description><StartTime><Timestamp dt:dt=""int"">0</Timestamp><DateUtc dt:dt=""string"">2018-10-25T19:41:38Z</DateUtc></StartTime><FrequencyChanges><FrequencyChange><Frequency dt:dt=""r8"">3215273</Frequency><Timestamp dt:dt=""r8"">1606425227862</Timestamp><Current dt:dt=""r8"">0</Current><DateUtc dt:dt=""string"">2018-10-25T19:41:38Z</DateUtc></FrequencyChange></FrequencyChanges></Clock>\n",KW_Experiment5A-44-1,59.944,1.0.0.105,1,108080576,Professional,2.0.10.353,2.0.10.353,10/25/2018,10/25/2018 19:41,15:41:38,2.0.10.248,2,2,1,2,,,,,,,,TrainingProc,BlockList,44,2,Distractor1.bmp,1,0,,0,1,370715,400,,0,0,purple,400,1,400,5,horizontal,purple,Distractor1.bmp,cyan,Distractor1.bmp,red,Distractor1.bmp,blue,Distractor1.bmp,yellow,Distractor2.bmp,lime,Target2.bmp,,,,TrialProc,,TrainingTrialList,1,2,-999999,0,371115,0,2,663,371778,Target2.bmp,lime,2,,,,6,2,44
KW_Experiment5A,44,1,"<?xml version=""1.0""?>\n<Clock xmlns:dt=""urn:schemas-microsoft-com:datatypes""><Description dt:dt=""string"">E-Prime Primary Realtime Clock</Description><StartTime><Timestamp dt:dt=""int"">0</Timestamp><DateUtc dt:dt=""string"">2018-10-25T19:41:38Z</DateUtc></StartTime><FrequencyChanges><FrequencyChange><Frequency dt:dt=""r8"">3215273</Frequency><Timestamp dt:dt=""r8"">1606425227862</Timestamp><Current dt:dt=""r8"">0</Current><DateUtc dt:dt=""string"">2018-10-25T19:41:38Z</DateUtc></FrequencyChange></FrequencyChanges></Clock>\n",KW_Experiment5A-44-1,59.944,1.0.0.105,1,108080576,Professional,2.0.10.353,2.0.10.353,10/25/2018,10/25/2018 19:41,15:41:38,2.0.10.248,2,2,1,2,,,,,,,,TrainingProc,BlockList,45,1,Distractor2.bmp,2,0,,0,1,372800,501,,0,0,purple,500,2,500,5,vertical,lime,Target1.bmp,purple,Distractor2.bmp,cyan,Distractor2.bmp,yellow,Distractor1.bmp,red,Distractor2.bmp,blue,Distractor2.bmp,,,,TrialProc,,TrainingTrialList,1,1,-999999,1,373301,0,1,853,374154,Target1.bmp,lime,1,,,,1,2,45
KW_Experiment5A,44,1,"<?xml version=""1.0""?>\n<Clock xmlns:dt=""urn:schemas-microsoft-com:datatypes""><Description dt:dt=""string"">E-Prime Primary Realtime Clock</Description><StartTime><Timestamp dt:dt=""int"">0</Timestamp><DateUtc dt:dt=""string"">2018-10-25T19:41:38Z</DateUtc></StartTime><FrequencyChanges><FrequencyChange><Frequency dt:dt=""r8"">3215273</Frequency><Timestamp dt:dt=""r8"">1606425227862</Timestamp><Current dt:dt=""r8"">0</Current><DateUtc dt:dt=""string"">2018-10-25T19:41:38Z</DateUtc></FrequencyChange></FrequencyChanges></Clock>\n",KW_Experiment5A-44-1,59.944,1.0.0.105,1,108080576,Professional,2.0.10.353,2.0.10.353,10/25/2018,10/25/2018 19:41,15:41:38,2.0.10.248,2,2,1,2,,,,,,,,TrainingProc,BlockList,46,2,Distractor2.bmp,2,0,,0,1,375169,601,,0,0,red,600,3,600,1,horizontal,red,Distractor1.bmp,purple,Distractor2.bmp,yellow,Distractor2.bmp,lime,Target2.bmp,cyan,Distractor2.bmp,blue,Distractor2.bmp,,,,TrialProc,,TrainingTrialList,1,2,-999999,1,375770,0,2,728,376498,Target2.bmp,lime,2,,,,4,2,46
KW_Experiment5A,44,1,"<?xml version=""1.0""?>\n<Clock xmlns:dt=""urn:schemas-microsoft-com:datatypes""><Description dt:dt=""string"">E-Prime Primary Realtime Clock</Description><StartTime><Timestamp dt:dt=""int"">0</Timestamp><DateUtc dt:dt=""string"">2018-10-25T19:41:38Z</DateUtc></StartTime><FrequencyChanges><FrequencyChange><Frequency dt:dt=""r8"">3215273</Frequency><Timestamp dt:dt=""r8"">1606425227862</Timestamp><Current dt:dt=""r8"">0</Current><DateUtc dt:dt=""string"">2018-10-25T19:41:38Z</DateUtc></FrequencyChange></FrequencyChanges></Clock>\n",KW_Experiment5A-44-1,59.944,1.0.0.105,1,108080576,Professional,2.0.10.353,2.0.10.353,10/25/2018,10/25/2018 19:41,15:41:38,2.0.10.248,2,2,1,2,,,,,,,,TrainingProc,BlockList,47,1,Distractor2.bmp,2,0,,0,1,377521,401,,0,0,red,400,1,400,1,vertical,red,Distractor1.bmp,cyan,Distractor2.bmp,yellow,Distractor2.bmp,purple,Distractor2.bmp,lime,Target1.bmp,blue,Distractor2.bmp,,,,TrialProc,,TrainingTrialList,1,1,-999999,1,377922,0,1,632,378554,Target1.bmp,lime,1,,,,5,2,47
KW_Experiment5A,44,1,"<?xml version=""1.0""?>\n<Clock xmlns:dt=""urn:schemas-microsoft-com:datatypes""><Description dt:dt=""string"">E-Prime Primary Realtime Clock</Description><StartTime><Timestamp dt:dt=""int"">0</Timestamp><DateUtc dt:dt=""string"">2018-10-25T19:41:38Z</DateUtc></StartTime><FrequencyChanges><FrequencyChange><Frequency dt:dt=""r8"">3215273</Frequency><Timestamp dt:dt=""r8"">1606425227862</Timestamp><Current dt:dt=""r8"">0</Current><DateUtc dt:dt=""string"">2018-10-25T19:41:38Z</DateUtc></FrequencyChange></FrequencyChanges></Clock>\n",KW_Experiment5A-44-1,59.944,1.0.0.105,1,108080576,Professional,2.0.10.353,2.0.10.353,10/25/2018,10/25/2018 19:41,15:41:38,2.0.10.248,2,2,1,2,,,,,,,,TrainingProc,BlockList,48,1,Distractor2.bmp,2,0,,0,1,379573,400,,0,0,lime,400,1,400,,vertical,lime,Distractor2.bmp,blue,Distractor2.bmp,cyan,Distractor2.bmp,yellow,Distractor2.bmp,red,Target1.bmp,purple,Distractor2.bmp,,,,TrialProc,6,TrainingTrialList,1,1,-999999,0,379973,0,1,813,380786,Target1.bmp,red,1,,,,11,2,48
KW_Experiment5A,44,1,"<?xml version=""1.0""?>\n<Clock xmlns:dt=""urn:schemas-microsoft-com:datatypes""><Description dt:dt=""string"">E-Prime Primary Realtime Clock</Description><StartTime><Timestamp dt:dt=""int"">0</Timestamp><DateUtc dt:dt=""string"">2018-10-25T19:41:38Z</DateUtc></StartTime><FrequencyChanges><FrequencyChange><Frequency dt:dt=""r8"">3215273</Frequency><Timestamp dt:dt=""r8"">1606425227862</Timestamp><Current dt:dt=""r8"">0</Current><DateUtc dt:dt=""string"">2018-10-25T19:41:38Z</DateUtc></FrequencyChange></FrequencyChanges></Clock>\n",KW_Experiment5A-44-1,59.944,1.0.0.105,1,108080576,Professional,2.0.10.353,2.0.10.353,10/25/2018,10/25/2018 19:41,15:41:38,2.0.10.248,3,2,1,3,,,,,,,,TrainingProc,BlockList,1,1,Distractor1.bmp,1,0,,0,23,385345,501,,0,0,purple,500,2,500,5,vertical,purple,Distractor2.bmp,lime,Target1.bmp,yellow,Distractor1.bmp,red,Distractor1.bmp,blue,Distractor2.bmp,cyan,Distractor2.bmp,,,,TrialProc,,TrainingTrialList,1,1,-999999,1,385846,0,1,580,386426,Target1.bmp,lime,1,,,,2,3,49
KW_Experiment5A,44,1,"<?xml version=""1.0""?>\n<Clock xmlns:dt=""urn:schemas-microsoft-com:datatypes""><Description dt:dt=""string"">E-Prime Primary Realtime Clock</Description><StartTime><Timestamp dt:dt=""int"">0</Timestamp><DateUtc dt:dt=""string"">2018-10-25T19:41:38Z</DateUtc></StartTime><FrequencyChanges><FrequencyChange><Frequency dt:dt=""r8"">3215273</Frequency><Timestamp dt:dt=""r8"">1606425227862</Timestamp><Current dt:dt=""r8"">0</Current><DateUtc dt:dt=""string"">2018-10-25T19:41:38Z</DateUtc></FrequencyChange></FrequencyChanges></Clock>\n",KW_Experiment5A-44-1,59.944,1.0.0.105,1,108080576,Professional,2.0.10.353,2.0.10.353,10/25/2018,10/25/2018 19:41,15:41:38,2.0.10.248,3,2,1,3,,,,,,,,TrainingProc,BlockList,2,2,Distractor2.bmp,2,0,,0,1,387447,400,,0,0,cyan,400,1,400,,horizontal,cyan,Distractor1.bmp,purple,Distractor2.bmp,red,Target2.bmp,yellow,Distractor2.bmp,blue,Distractor1.bmp,lime,Distractor1.bmp,,,,TrialProc,4,TrainingTrialList,1,2,-999999,0,387847,0,2,611,388458,Target2.bmp,red,2,,,,9,3,50
KW_Experiment5A,44,1,"<?xml version=""1.0""?>\n<Clock xmlns:dt=""urn:schemas-microsoft-com:datatypes""><Description dt:dt=""string"">E-Prime Primary Realtime Clock</Description><StartTime><Timestamp dt:dt=""int"">0</Timestamp><DateUtc dt:dt=""string"">2018-10-25T19:41:38Z</DateUtc></StartTime><FrequencyChanges><FrequencyChange><Frequency dt:dt=""r8"">3215273</Frequency><Timestamp dt:dt=""r8"">1606425227862</Timestamp><Current dt:dt=""r8"">0</Current><DateUtc dt:dt=""string"">2018-10-25T19:41:38Z</DateUtc></FrequencyChange></FrequencyChanges></Clock>\n",KW_Experiment5A-44-1,59.944,1.0.0.105,1,108080576,Professional,2.0.10.353,2.0.10.353,10/25/2018,10/25/2018 19:41,15:41:38,2.0.10.248,3,2,1,3,,,,,,,,TrainingProc,BlockList,3,1,Distractor1.bmp,1,0,,0,1,389482,601,,0,0,cyan,600,3,600,,vertical,cyan,Distractor1.bmp,blue,Distractor2.bmp,yellow,Distractor1.bmp,lime,Distractor2.bmp,purple,Distractor1.bmp,red,Target1.bmp,,,,TrialProc,4,TrainingTrialList,1,1,-999999,1,390083,0,1,958,391041,Target1.bmp,red,1,,,,12,3,51
KW_Experiment5A,44,1,"<?xml version=""1.0""?>\n<Clock xmlns:dt=""urn:schemas-microsoft-com:datatypes""><Description dt:dt=""string"">E-Prime Primary Realtime Clock</Description><StartTime><Timestamp dt:dt=""int"">0</Timestamp><DateUtc dt:dt=""string"">2018-10-25T19:41:38Z</DateUtc></StartTime><FrequencyChanges><FrequencyChange><Frequency dt:dt=""r8"">3215273</Frequency><Timestamp dt:dt=""r8"">1606425227862</Timestamp><Current dt:dt=""r8"">0</Current><DateUtc dt:dt=""string"">2018-10-25T19:41:38Z</DateUtc></FrequencyChange></FrequencyChanges></Clock>\n",KW_Experiment5A-44-1,59.944,1.0.0.105,1,108080576,Professional,2.0.10.353,2.0.10.353,10/25/2018,10/25/2018 19:41,15:41:38,2.0.10.248,3,2,1,3,,,,,,,,TrainingProc,BlockList,4,2,Distractor1.bmp,1,0,,0,1,392051,601,,0,0,yellow,600,3,600,2,horizontal,yellow,Distractor2.bmp,blue,Distractor1.bmp,lime,Target2.bmp,cyan,Distractor1.bmp,red,Distractor2.bmp,purple,Distractor2.bmp,,,,TrialProc,,TrainingTrialList,1,2,-999999,1,392652,0,2,661,393313,Target2.bmp,lime,2,,,,3,3,52
KW_Experiment5A,44,1,"<?xml version=""1.0""?>\n<Clock xmlns:dt=""urn:schemas-microsoft-com:datatypes""><Description dt:dt=""string"">E-Prime Primary Realtime Clock</Description><StartTime><Timestamp dt:dt=""int"">0</Timestamp><DateUtc dt:dt=""string"">2018-10-25T19:41:38Z</DateUtc></StartTime><FrequencyChanges><FrequencyChange><Frequency dt:dt=""r8"">3215273</Frequency><Timestamp dt:dt=""r8"">1606425227862</Timestamp><Current dt:dt=""r8"">0</Current><DateUtc dt:dt=""string"">2018-10-25T19:41:38Z</DateUtc></FrequencyChange></FrequencyChanges></Clock>\n",KW_Experiment5A-44-1,59.944,1.0.0.105,1,108080576,Professional,2.0.10.353,2.0.10.353,10/25/2018,10/25/2018 19:41,15:41:38,2.0.10.248,3,2,1,3,,,,,,,,TrainingProc,BlockList,5,1,Distractor1.bmp,1,0,,0,1,394337,500,,0,0,yellow,500,2,500,2,vertical,yellow,Distractor2.bmp,cyan,Distractor2.bmp,lime,Target1.bmp,blue,Distractor1.bmp,red,Distractor2.bmp,purple,Distractor2.bmp,,,,TrialProc,,TrainingTrialList,1,1,-999999,0,394837,0,1,1084,395921,Target1.bmp,lime,1,,,,3,3,53
KW_Experiment5A,44,1,"<?xml version=""1.0""?>\n<Clock xmlns:dt=""urn:schemas-microsoft-com:datatypes""><Description dt:dt=""string"">E-Prime Primary Realtime Clock</Description><StartTime><Timestamp dt:dt=""int"">0</Timestamp><DateUtc dt:dt=""string"">2018-10-25T19:41:38Z</DateUtc></StartTime><FrequencyChanges><FrequencyChange><Frequency dt:dt=""r8"">3215273</Frequency><Timestamp dt:dt=""r8"">1606425227862</Timestamp><Current dt:dt=""r8"">0</Current><DateUtc dt:dt=""string"">2018-10-25T19:41:38Z</DateUtc></FrequencyChange></FrequencyChanges></Clock>\n",KW_Experiment5A-44-1,59.944,1.0.0.105,1,108080576,Professional,2.0.10.353,2.0.10.353,10/25/2018,10/25/2018 19:41,15:41:38,2.0.10.248,3,2,1,3,,,,,,,,TrainingProc,BlockList,6,2,Distractor2.bmp,2,0,,0,1,396939,601,,0,0,cyan,600,3,600,4,horizontal,cyan,Distractor1.bmp,purple,Distractor2.bmp,red,Distractor1.bmp,blue,Distractor2.bmp,lime,Target2.bmp,yellow,Distractor2.bmp,,,,TrialProc,,TrainingTrialList,1,2,-999999,1,397540,0,2,613,398153,Target2.bmp,lime,2,,,,5,3,54
KW_Experiment5A,44,1,"<?xml version=""1.0""?>\n<Clock xmlns:dt=""urn:schemas-microsoft-com:datatypes""><Description dt:dt=""string"">E-Prime Primary Realtime Clock</Description><StartTime><Timestamp dt:dt=""int"">0</Timestamp><DateUtc dt:dt=""string"">2018-10-25T19:41:38Z</DateUtc></StartTime><FrequencyChanges><FrequencyChange><Frequency dt:dt=""r8"">3215273</Frequency><Timestamp dt:dt=""r8"">1606425227862</Timestamp><Current dt:dt=""r8"">0</Current><DateUtc dt:dt=""string"">2018-10-25T19:41:38Z</DateUtc></FrequencyChange></FrequencyChanges></Clock>\n",KW_Experiment5A-44-1,59.944,1.0.0.105,1,108080576,Professional,2.0.10.353,2.0.10.353,10/25/2018,10/25/2018 19:41,15:41:38,2.0.10.248,3,2,1,3,,,,,,,,TrainingProc,BlockList,7,2,Distractor1.bmp,1,0,,0,1,399174,601,,0,0,yellow,600,3,600,2,horizontal,yellow,Distractor2.bmp,blue,Distractor2.bmp,purple,Distractor1.bmp,lime,Target2.bmp,red,Distractor1.bmp,cyan,Distractor2.bmp,,,,TrialProc,,TrainingTrialList,1,2,-999999,1,399775,0,2,858,400633,Target2.bmp,lime,2,,,,4,3,55
KW_Experiment5A,44,1,"<?xml version=""1.0""?>\n<Clock xmlns:dt=""urn:schemas-microsoft-com:datatypes""><Description dt:dt=""string"">E-Prime Primary Realtime Clock</Description><StartTime><Timestamp dt:dt=""int"">0</Timestamp><DateUtc dt:dt=""string"">2018-10-25T19:41:38Z</DateUtc></StartTime><FrequencyChanges><FrequencyChange><Frequency dt:dt=""r8"">3215273</Frequency><Timestamp dt:dt=""r8"">1606425227862</Timestamp><Current dt:dt=""r8"">0</Current><DateUtc dt:dt=""string"">2018-10-25T19:41:38Z</DateUtc></FrequencyChange></FrequencyChanges></Clock>\n",KW_Experiment5A-44-1,59.944,1.0.0.105,1,108080576,Professional,2.0.10.353,2.0.10.353,10/25/2018,10/25/2018 19:41,15:41:38,2.0.10.248,3,2,1,3,,,,,,,,TrainingProc,BlockList,8,2,Distractor2.bmp,2,0,,0,1,401643,401,,0,0,yellow,400,1,400,2,horizontal,yellow,Distractor1.bmp,red,Distractor1.bmp,blue,Distractor2.bmp,cyan,Distractor1.bmp,lime,Target2.bmp,purple,Distractor2.bmp,,,,TrialProc,,TrainingTrialList,1,2,-999999,1,402044,0,2,645,402689,Target2.bmp,lime,2,,,,5,3,56
KW_Experiment5A,44,1,"<?xml version=""1.0""?>\n<Clock xmlns:dt=""urn:schemas-microsoft-com:datatypes""><Description dt:dt=""string"">E-Prime Primary Realtime Clock</Description><StartTime><Timestamp dt:dt=""int"">0</Timestamp><DateUtc dt:dt=""string"">2018-10-25T19:41:38Z</DateUtc></StartTime><FrequencyChanges><FrequencyChange><Frequency dt:dt=""r8"">3215273</Frequency><Timestamp dt:dt=""r8"">1606425227862</Timestamp><Current dt:dt=""r8"">0</Current><DateUtc dt:dt=""string"">2018-10-25T19:41:38Z</DateUtc></FrequencyChange></FrequencyChanges></Clock>\n",KW_Experiment5A-44-1,59.944,1.0.0.105,1,108080576,Professional,2.0.10.353,2.0.10.353,10/25/2018,10/25/2018 19:41,15:41:38,2.0.10.248,3,2,1,3,,,,,,,,TrainingProc,BlockList,9,1,Distractor1.bmp,1,0,,0,1,403712,500,,0,0,red,500,2,500,1,vertical,red,Distractor1.bmp,cyan,Distractor2.bmp,purple,Distractor2.bmp,blue,Distractor2.bmp,yellow,Distractor1.bmp,lime,Target1.bmp,,,,TrialProc,,TrainingTrialList,1,1,-999999,0,404212,0,1,597,404809,Target1.bmp,lime,1,,,,6,3,57
KW_Experiment5A,44,1,"<?xml version=""1.0""?>\n<Clock xmlns:dt=""urn:schemas-microsoft-com:datatypes""><Description dt:dt=""string"">E-Prime Primary Realtime Clock</Description><StartTime><Timestamp dt:dt=""int"">0</Timestamp><DateUtc dt:dt=""string"">2018-10-25T19:41:38Z</DateUtc></StartTime><FrequencyChanges><FrequencyChange><Frequency dt:dt=""r8"">3215273</Frequency><Timestamp dt:dt=""r8"">1606425227862</Timestamp><Current dt:dt=""r8"">0</Current><DateUtc dt:dt=""string"">2018-10-25T19:41:38Z</DateUtc></FrequencyChange></FrequencyChanges></Clock>\n",KW_Experiment5A-44-1,59.944,1.0.0.105,1,108080576,Professional,2.0.10.353,2.0.10.353,10/25/2018,10/25/2018 19:41,15:41:38,2.0.10.248,3,2,1,3,,,,,,,,TrainingProc,BlockList,10,1,Distractor1.bmp,1,0,,1,0,405830,401,,0,0,cyan,400,1,400,4,vertical,cyan,Distractor1.bmp,red,Distractor1.bmp,yellow,Distractor1.bmp,blue,Distractor2.bmp,purple,Distractor1.bmp,lime,Target1.bmp,,,,TrialProc,,TrainingTrialList,1,1,-999999,1,406231,0,1,530,406761,Target1.bmp,lime,1,,,,6,3,58
KW_Experiment5A,44,1,"<?xml version=""1.0""?>\n<Clock xmlns:dt=""urn:schemas-microsoft-com:datatypes""><Description dt:dt=""string"">E-Prime Primary Realtime Clock</Description><StartTime><Timestamp dt:dt=""int"">0</Timestamp><DateUtc dt:dt=""string"">2018-10-25T19:41:38Z</DateUtc></StartTime><FrequencyChanges><FrequencyChange><Frequency dt:dt=""r8"">3215273</Frequency><Timestamp dt:dt=""r8"">1606425227862</Timestamp><Current dt:dt=""r8"">0</Current><DateUtc dt:dt=""string"">2018-10-25T19:41:38Z</DateUtc></FrequencyChange></FrequencyChanges></Clock>\n",KW_Experiment5A-44-1,59.944,1.0.0.105,1,108080576,Professional,2.0.10.353,2.0.10.353,10/25/2018,10/25/2018 19:41,15:41:38,2.0.10.248,3,2,1,3,,,,,,,,TrainingProc,BlockList,11,2,Distractor1.bmp,1,0,,0,1,407782,501,,0,0,yellow,500,2,500,2,horizontal,yellow,Distractor2.bmp,purple,Distractor1.bmp,red,Distractor1.bmp,lime,Target2.bmp,blue,Distractor1.bmp,cyan,Distractor2.bmp,,,,TrialProc,,TrainingTrialList,1,2,-999999,1,408283,0,2,726,409009,Target2.bmp,lime,2,,,,4,3,59
KW_Experiment5A,44,1,"<?xml version=""1.0""?>\n<Clock xmlns:dt=""urn:schemas-microsoft-com:datatypes""><Description dt:dt=""string"">E-Prime Primary Realtime Clock</Description><StartTime><Timestamp dt:dt=""int"">0</Timestamp><DateUtc dt:dt=""string"">2018-10-25T19:41:38Z</DateUtc></StartTime><FrequencyChanges><FrequencyChange><Frequency dt:dt=""r8"">3215273</Frequency><Timestamp dt:dt=""r8"">1606425227862</Timestamp><Current dt:dt=""r8"">0</Current><DateUtc dt:dt=""string"">2018-10-25T19:41:38Z</DateUtc></FrequencyChange></FrequencyChanges></Clock>\n",KW_Experiment5A-44-1,59.944,1.0.0.105,1,108080576,Professional,2.0.10.353,2.0.10.353,10/25/2018,10/25/2018 19:41,15:41:38,2.0.10.248,3,2,1,3,,,,,,,,TrainingProc,BlockList,12,2,Distractor2.bmp,2,0,,0,1,410034,401,,0,0,cyan,400,1,400,4,horizontal,cyan,Distractor2.bmp,purple,Distractor1.bmp,yellow,Distractor2.bmp,lime,Target2.bmp,blue,Distractor2.bmp,red,Distractor2.bmp,,,,TrialProc,,TrainingTrialList,1,2,-999999,1,410435,0,2,542,410977,Target2.bmp,lime,2,,,,4,3,60
KW_Experiment5A,44,1,"<?xml version=""1.0""?>\n<Clock xmlns:dt=""urn:schemas-microsoft-com:datatypes""><Description dt:dt=""string"">E-Prime Primary Realtime Clock</Description><StartTime><Timestamp dt:dt=""int"">0</Timestamp><DateUtc dt:dt=""string"">2018-10-25T19:41:38Z</DateUtc></StartTime><FrequencyChanges><FrequencyChange><Frequency dt:dt=""r8"">3215273</Frequency><Timestamp dt:dt=""r8"">1606425227862</Timestamp><Current dt:dt=""r8"">0</Current><DateUtc dt:dt=""string"">2018-10-25T19:41:38Z</DateUtc></FrequencyChange></FrequencyChanges></Clock>\n",KW_Experiment5A-44-1,59.944,1.0.0.105,1,108080576,Professional,2.0.10.353,2.0.10.353,10/25/2018,10/25/2018 19:41,15:41:38,2.0.10.248,3,2,1,3,,,,,,,,TrainingProc,BlockList,13,2,Distractor1.bmp,1,0,,0,1,412003,400,,0,0,blue,400,1,400,,horizontal,blue,Distractor1.bmp,red,Target2.bmp,yellow,Distractor1.bmp,purple,Distractor2.bmp,cyan,Distractor1.bmp,lime,Distractor1.bmp,,,,TrialProc,3,TrainingTrialList,1,2,-999999,0,412403,0,2,990,413393,Target2.bmp,red,2,,,,8,3,61
KW_Experiment5A,44,1,"<?xml version=""1.0""?>\n<Clock xmlns:dt=""urn:schemas-microsoft-com:datatypes""><Description dt:dt=""string"">E-Prime Primary Realtime Clock</Description><StartTime><Timestamp dt:dt=""int"">0</Timestamp><DateUtc dt:dt=""string"">2018-10-25T19:41:38Z</DateUtc></StartTime><FrequencyChanges><FrequencyChange><Frequency dt:dt=""r8"">3215273</Frequency><Timestamp dt:dt=""r8"">1606425227862</Timestamp><Current dt:dt=""r8"">0</Current><DateUtc dt:dt=""string"">2018-10-25T19:41:38Z</DateUtc></FrequencyChange></FrequencyChanges></Clock>\n",KW_Experiment5A-44-1,59.944,1.0.0.105,1,108080576,Professional,2.0.10.353,2.0.10.353,10/25/2018,10/25/2018 19:41,15:41:38,2.0.10.248,3,2,1,3,,,,,,,,TrainingProc,BlockList,14,1,Distractor2.bmp,2,0,,0,1,414405,601,,0,0,purple,600,3,600,5,vertical,purple,Distractor1.bmp,lime,Target1.bmp,yellow,Distractor2.bmp,cyan,Distractor1.bmp,red,Distractor2.bmp,blue,Distractor2.bmp,,,,TrialProc,,TrainingTrialList,1,1,-999999,1,415006,0,1,619,415625,Target1.bmp,lime,1,,,,2,3,62
KW_Experiment5A,44,1,"<?xml version=""1.0""?>\n<Clock xmlns:dt=""urn:schemas-microsoft-com:datatypes""><Description dt:dt=""string"">E-Prime Primary Realtime Clock</Description><StartTime><Timestamp dt:dt=""int"">0</Timestamp><DateUtc dt:dt=""string"">2018-10-25T19:41:38Z</DateUtc></StartTime><FrequencyChanges><FrequencyChange><Frequency dt:dt=""r8"">3215273</Frequency><Timestamp dt:dt=""r8"">1606425227862</Timestamp><Current dt:dt=""r8"">0</Current><DateUtc dt:dt=""string"">2018-10-25T19:41:38Z</DateUtc></FrequencyChange></FrequencyChanges></Clock>\n",KW_Experiment5A-44-1,59.944,1.0.0.105,1,108080576,Professional,2.0.10.353,2.0.10.353,10/25/2018,10/25/2018 19:41,15:41:38,2.0.10.248,3,2,1,3,,,,,,,,TrainingProc,BlockList,15,1,Distractor2.bmp,2,0,,0,1,416640,501,,0,0,blue,500,2,500,,vertical,blue,Distractor2.bmp,yellow,Distractor1.bmp,lime,Distractor1.bmp,purple,Distractor2.bmp,red,Target1.bmp,cyan,Distractor2.bmp,,,,TrialProc,3,TrainingTrialList,1,1,-999999,1,417141,0,1,620,417761,Target1.bmp,red,1,,,,11,3,63
KW_Experiment5A,44,1,"<?xml version=""1.0""?>\n<Clock xmlns:dt=""urn:schemas-microsoft-com:datatypes""><Description dt:dt=""string"">E-Prime Primary Realtime Clock</Description><StartTime><Timestamp dt:dt=""int"">0</Timestamp><DateUtc dt:dt=""string"">2018-10-25T19:41:38Z</DateUtc></StartTime><FrequencyChanges><FrequencyChange><Frequency dt:dt=""r8"">3215273</Frequency><Timestamp dt:dt=""r8"">1606425227862</Timestamp><Current dt:dt=""r8"">0</Current><DateUtc dt:dt=""string"">2018-10-25T19:41:38Z</DateUtc></FrequencyChange></FrequencyChanges></Clock>\n",KW_Experiment5A-44-1,59.944,1.0.0.105,1,108080576,Professional,2.0.10.353,2.0.10.353,10/25/2018,10/25/2018 19:41,15:41:38,2.0.10.248,3,2,1,3,,,,,,,,TrainingProc,BlockList,16,2,Distractor2.bmp,2,0,,0,1,418776,400,,0,0,red,400,1,400,1,horizontal,lime,Target2.bmp,red,Distractor2.bmp,blue,Distractor2.bmp,purple,Distractor2.bmp,cyan,Distractor1.bmp,yellow,Distractor1.bmp,,,,TrialProc,,TrainingTrialList,1,2,-999999,0,419176,0,2,1329,420505,Target2.bmp,lime,2,,,,1,3,64
KW_Experiment5A,44,1,"<?xml version=""1.0""?>\n<Clock xmlns:dt=""urn:schemas-microsoft-com:datatypes""><Description dt:dt=""string"">E-Prime Primary Realtime Clock</Description><StartTime><Timestamp dt:dt=""int"">0</Timestamp><DateUtc dt:dt=""string"">2018-10-25T19:41:38Z</DateUtc></StartTime><FrequencyChanges><FrequencyChange><Frequency dt:dt=""r8"">3215273</Frequency><Timestamp dt:dt=""r8"">1606425227862</Timestamp><Current dt:dt=""r8"">0</Current><DateUtc dt:dt=""string"">2018-10-25T19:41:38Z</DateUtc></FrequencyChange></FrequencyChanges></Clock>\n",KW_Experiment5A-44-1,59.944,1.0.0.105,1,108080576,Professional,2.0.10.353,2.0.10.353,10/25/2018,10/25/2018 19:41,15:41:38,2.0.10.248,3,2,1,3,,,,,,,,TrainingProc,BlockList,17,1,Distractor2.bmp,2,0,,0,1,421528,501,,0,0,yellow,500,2,500,2,vertical,yellow,Distractor2.bmp,purple,Distractor2.bmp,cyan,Distractor2.bmp,blue,Distractor1.bmp,red,Distractor1.bmp,lime,Target1.bmp,,,,TrialProc,,TrainingTrialList,1,1,-999999,1,422029,0,1,572,422601,Target1.bmp,lime,1,,,,6,3,65
KW_Experiment5A,44,1,"<?xml version=""1.0""?>\n<Clock xmlns:dt=""urn:schemas-microsoft-com:datatypes""><Description dt:dt=""string"">E-Prime Primary Realtime Clock</Description><StartTime><Timestamp dt:dt=""int"">0</Timestamp><DateUtc dt:dt=""string"">2018-10-25T19:41:38Z</DateUtc></StartTime><FrequencyChanges><FrequencyChange><Frequency dt:dt=""r8"">3215273</Frequency><Timestamp dt:dt=""r8"">1606425227862</Timestamp><Current dt:dt=""r8"">0</Current><DateUtc dt:dt=""string"">2018-10-25T19:41:38Z</DateUtc></FrequencyChange></FrequencyChanges></Clock>\n",KW_Experiment5A-44-1,59.944,1.0.0.105,1,108080576,Professional,2.0.10.353,2.0.10.353,10/25/2018,10/25/2018 19:41,15:41:38,2.0.10.248,3,2,1,3,,,,,,,,TrainingProc,BlockList,18,1,Distractor2.bmp,2,0,,1,1,423613,601,,0,0,purple,600,3,600,,vertical,red,Target1.bmp,lime,Distractor2.bmp,blue,Distractor1.bmp,cyan,Distractor1.bmp,yellow,Distractor1.bmp,purple,Distractor1.bmp,,,,TrialProc,5,TrainingTrialList,1,1,-999999,1,424214,0,1,1307,425521,Target1.bmp,red,1,,,,7,3,66
KW_Experiment5A,44,1,"<?xml version=""1.0""?>\n<Clock xmlns:dt=""urn:schemas-microsoft-com:datatypes""><Description dt:dt=""string"">E-Prime Primary Realtime Clock</Description><StartTime><Timestamp dt:dt=""int"">0</Timestamp><DateUtc dt:dt=""string"">2018-10-25T19:41:38Z</DateUtc></StartTime><FrequencyChanges><FrequencyChange><Frequency dt:dt=""r8"">3215273</Frequency><Timestamp dt:dt=""r8"">1606425227862</Timestamp><Current dt:dt=""r8"">0</Current><DateUtc dt:dt=""string"">2018-10-25T19:41:38Z</DateUtc></FrequencyChange></FrequencyChanges></Clock>\n",KW_Experiment5A-44-1,59.944,1.0.0.105,1,108080576,Professional,2.0.10.353,2.0.10.353,10/25/2018,10/25/2018 19:41,15:41:38,2.0.10.248,3,2,1,3,,,,,,,,TrainingProc,BlockList,19,2,Distractor2.bmp,2,0,,0,1,426533,500,,0,0,cyan,500,2,500,4,horizontal,cyan,Distractor2.bmp,red,Distractor2.bmp,lime,Target2.bmp,purple,Distractor2.bmp,yellow,Distractor2.bmp,blue,Distractor2.bmp,,,,TrialProc,,TrainingTrialList,1,2,-999999,0,427033,0,2,816,427849,Target2.bmp,lime,2,,,,3,3,67
KW_Experiment5A,44,1,"<?xml version=""1.0""?>\n<Clock xmlns:dt=""urn:schemas-microsoft-com:datatypes""><Description dt:dt=""string"">E-Prime Primary Realtime Clock</Description><StartTime><Timestamp dt:dt=""int"">0</Timestamp><DateUtc dt:dt=""string"">2018-10-25T19:41:38Z</DateUtc></StartTime><FrequencyChanges><FrequencyChange><Frequency dt:dt=""r8"">3215273</Frequency><Timestamp dt:dt=""r8"">1606425227862</Timestamp><Current dt:dt=""r8"">0</Current><DateUtc dt:dt=""string"">2018-10-25T19:41:38Z</DateUtc></FrequencyChange></FrequencyChanges></Clock>\n",KW_Experiment5A-44-1,59.944,1.0.0.105,1,108080576,Professional,2.0.10.353,2.0.10.353,10/25/2018,10/25/2018 19:41,15:41:38,2.0.10.248,3,2,1,3,,,,,,,,TrainingProc,BlockList,20,1,Distractor1.bmp,1,0,,0,1,428868,401,,0,0,blue,400,1,400,,vertical,blue,Distractor2.bmp,yellow,Distractor2.bmp,lime,Distractor1.bmp,red,Target1.bmp,cyan,Distractor1.bmp,purple,Distractor2.bmp,,,,TrialProc,3,TrainingTrialList,1,1,-999999,1,429269,0,1,1036,430305,Target1.bmp,red,1,,,,10,3,68
KW_Experiment5A,44,1,"<?xml version=""1.0""?>\n<Clock xmlns:dt=""urn:schemas-microsoft-com:datatypes""><Description dt:dt=""string"">E-Prime Primary Realtime Clock</Description><StartTime><Timestamp dt:dt=""int"">0</Timestamp><DateUtc dt:dt=""string"">2018-10-25T19:41:38Z</DateUtc></StartTime><FrequencyChanges><FrequencyChange><Frequency dt:dt=""r8"">3215273</Frequency><Timestamp dt:dt=""r8"">1606425227862</Timestamp><Current dt:dt=""r8"">0</Current><DateUtc dt:dt=""string"">2018-10-25T19:41:38Z</DateUtc></FrequencyChange></FrequencyChanges></Clock>\n",KW_Experiment5A-44-1,59.944,1.0.0.105,1,108080576,Professional,2.0.10.353,2.0.10.353,10/25/2018,10/25/2018 19:41,15:41:38,2.0.10.248,3,2,1,3,,,,,,,,TrainingProc,BlockList,21,1,Distractor2.bmp,2,0,,1,0,431320,401,,0,0,cyan,400,1,400,4,vertical,lime,Target1.bmp,cyan,Distractor2.bmp,purple,Distractor1.bmp,yellow,Distractor1.bmp,red,Distractor2.bmp,blue,Distractor2.bmp,,,,TrialProc,,TrainingTrialList,1,1,-999999,1,431721,0,1,952,432673,Target1.bmp,lime,1,,,,1,3,69
KW_Experiment5A,44,1,"<?xml version=""1.0""?>\n<Clock xmlns:dt=""urn:schemas-microsoft-com:datatypes""><Description dt:dt=""string"">E-Prime Primary Realtime Clock</Description><StartTime><Timestamp dt:dt=""int"">0</Timestamp><DateUtc dt:dt=""string"">2018-10-25T19:41:38Z</DateUtc></StartTime><FrequencyChanges><FrequencyChange><Frequency dt:dt=""r8"">3215273</Frequency><Timestamp dt:dt=""r8"">1606425227862</Timestamp><Current dt:dt=""r8"">0</Current><DateUtc dt:dt=""string"">2018-10-25T19:41:38Z</DateUtc></FrequencyChange></FrequencyChanges></Clock>\n",KW_Experiment5A-44-1,59.944,1.0.0.105,1,108080576,Professional,2.0.10.353,2.0.10.353,10/25/2018,10/25/2018 19:41,15:41:38,2.0.10.248,3,2,1,3,,,,,,,,TrainingProc,BlockList,22,2,Distractor2.bmp,2,0,,0,1,433689,501,,0,0,cyan,500,2,500,4,horizontal,cyan,Distractor2.bmp,lime,Target2.bmp,yellow,Distractor2.bmp,blue,Distractor2.bmp,red,Distractor1.bmp,purple,Distractor1.bmp,,,,TrialProc,,TrainingTrialList,1,2,-999999,1,434190,0,2,539,434729,Target2.bmp,lime,2,,,,2,3,70
KW_Experiment5A,44,1,"<?xml version=""1.0""?>\n<Clock xmlns:dt=""urn:schemas-microsoft-com:datatypes""><Description dt:dt=""string"">E-Prime Primary Realtime Clock</Description><StartTime><Timestamp dt:dt=""int"">0</Timestamp><DateUtc dt:dt=""string"">2018-10-25T19:41:38Z</DateUtc></StartTime><FrequencyChanges><FrequencyChange><Frequency dt:dt=""r8"">3215273</Frequency><Timestamp dt:dt=""r8"">1606425227862</Timestamp><Current dt:dt=""r8"">0</Current><DateUtc dt:dt=""string"">2018-10-25T19:41:38Z</DateUtc></FrequencyChange></FrequencyChanges></Clock>\n",KW_Experiment5A-44-1,59.944,1.0.0.105,1,108080576,Professional,2.0.10.353,2.0.10.353,10/25/2018,10/25/2018 19:41,15:41:38,2.0.10.248,3,2,1,3,,,,,,,,TrainingProc,BlockList,23,1,Distractor2.bmp,2,0,,0,1,435741,501,,0,0,blue,500,2,500,3,vertical,blue,Distractor1.bmp,purple,Distractor2.bmp,red,Distractor2.bmp,yellow,Distractor2.bmp,lime,Target1.bmp,cyan,Distractor2.bmp,,,,TrialProc,,TrainingTrialList,1,1,-999999,1,436242,0,1,463,436705,Target1.bmp,lime,1,,,,5,3,71
KW_Experiment5A,44,1,"<?xml version=""1.0""?>\n<Clock xmlns:dt=""urn:schemas-microsoft-com:datatypes""><Description dt:dt=""string"">E-Prime Primary Realtime Clock</Description><StartTime><Timestamp dt:dt=""int"">0</Timestamp><DateUtc dt:dt=""string"">2018-10-25T19:41:38Z</DateUtc></StartTime><FrequencyChanges><FrequencyChange><Frequency dt:dt=""r8"">3215273</Frequency><Timestamp dt:dt=""r8"">1606425227862</Timestamp><Current dt:dt=""r8"">0</Current><DateUtc dt:dt=""string"">2018-10-25T19:41:38Z</DateUtc></FrequencyChange></FrequencyChanges></Clock>\n",KW_Experiment5A-44-1,59.944,1.0.0.105,1,108080576,Professional,2.0.10.353,2.0.10.353,10/25/2018,10/25/2018 19:41,15:41:38,2.0.10.248,3,2,1,3,,,,,,,,TrainingProc,BlockList,24,2,Distractor1.bmp,1,0,,0,1,437726,401,,0,0,red,400,1,400,1,horizontal,lime,Target2.bmp,red,Distractor1.bmp,purple,Distractor2.bmp,cyan,Distractor1.bmp,blue,Distractor2.bmp,yellow,Distractor1.bmp,,,,TrialProc,,TrainingTrialList,1,2,-999999,1,438127,0,2,594,438721,Target2.bmp,lime,2,,,,1,3,72
KW_Experiment5A,44,1,"<?xml version=""1.0""?>\n<Clock xmlns:dt=""urn:schemas-microsoft-com:datatypes""><Description dt:dt=""string"">E-Prime Primary Realtime Clock</Description><StartTime><Timestamp dt:dt=""int"">0</Timestamp><DateUtc dt:dt=""string"">2018-10-25T19:41:38Z</DateUtc></StartTime><FrequencyChanges><FrequencyChange><Frequency dt:dt=""r8"">3215273</Frequency><Timestamp dt:dt=""r8"">1606425227862</Timestamp><Current dt:dt=""r8"">0</Current><DateUtc dt:dt=""string"">2018-10-25T19:41:38Z</DateUtc></FrequencyChange></FrequencyChanges></Clock>\n",KW_Experiment5A-44-1,59.944,1.0.0.105,1,108080576,Professional,2.0.10.353,2.0.10.353,10/25/2018,10/25/2018 19:41,15:41:38,2.0.10.248,3,2,1,3,,,,,,,,TrainingProc,BlockList,25,2,Distractor1.bmp,1,0,,0,1,439745,400,,0,0,cyan,400,1,400,4,horizontal,cyan,Distractor1.bmp,lime,Target2.bmp,purple,Distractor1.bmp,blue,Distractor1.bmp,red,Distractor1.bmp,yellow,Distractor2.bmp,,,,TrialProc,,TrainingTrialList,1,2,-999999,0,440145,0,2,568,440713,Target2.bmp,lime,2,,,,2,4,73
KW_Experiment5A,44,1,"<?xml version=""1.0""?>\n<Clock xmlns:dt=""urn:schemas-microsoft-com:datatypes""><Description dt:dt=""string"">E-Prime Primary Realtime Clock</Description><StartTime><Timestamp dt:dt=""int"">0</Timestamp><DateUtc dt:dt=""string"">2018-10-25T19:41:38Z</DateUtc></StartTime><FrequencyChanges><FrequencyChange><Frequency dt:dt=""r8"">3215273</Frequency><Timestamp dt:dt=""r8"">1606425227862</Timestamp><Current dt:dt=""r8"">0</Current><DateUtc dt:dt=""string"">2018-10-25T19:41:38Z</DateUtc></FrequencyChange></FrequencyChanges></Clock>\n",KW_Experiment5A-44-1,59.944,1.0.0.105,1,108080576,Professional,2.0.10.353,2.0.10.353,10/25/2018,10/25/2018 19:41,15:41:38,2.0.10.248,3,2,1,3,,,,,,,,TrainingProc,BlockList,26,1,Distractor1.bmp,1,0,,0,1,441730,400,,0,0,red,400,1,400,1,vertical,red,Distractor2.bmp,cyan,Distractor2.bmp,purple,Distractor2.bmp,lime,Target1.bmp,blue,Distractor1.bmp,yellow,Distractor2.bmp,,,,TrialProc,,TrainingTrialList,1,1,-999999,0,442130,0,1,535,442665,Target1.bmp,lime,1,,,,4,4,74
KW_Experiment5A,44,1,"<?xml version=""1.0""?>\n<Clock xmlns:dt=""urn:schemas-microsoft-com:datatypes""><Description dt:dt=""string"">E-Prime Primary Realtime Clock</Description><StartTime><Timestamp dt:dt=""int"">0</Timestamp><DateUtc dt:dt=""string"">2018-10-25T19:41:38Z</DateUtc></StartTime><FrequencyChanges><FrequencyChange><Frequency dt:dt=""r8"">3215273</Frequency><Timestamp dt:dt=""r8"">1606425227862</Timestamp><Current dt:dt=""r8"">0</Current><DateUtc dt:dt=""string"">2018-10-25T19:41:38Z</DateUtc></FrequencyChange></FrequencyChanges></Clock>\n",KW_Experiment5A-44-1,59.944,1.0.0.105,1,108080576,Professional,2.0.10.353,2.0.10.353,10/25/2018,10/25/2018 19:41,15:41:38,2.0.10.248,3,2,1,3,,,,,,,,TrainingProc,BlockList,27,1,Distractor1.bmp,1,0,,0,1,443682,500,,0,0,yellow,500,2,500,2,vertical,lime,Target1.bmp,yellow,Distractor1.bmp,cyan,Distractor2.bmp,blue,Distractor1.bmp,red,Distractor2.bmp,purple,Distractor1.bmp,,,,TrialProc,,TrainingTrialList,1,1,-999999,0,444182,0,1,706,444888,Target1.bmp,lime,1,,,,1,4,75
KW_Experiment5A,44,1,"<?xml version=""1.0""?>\n<Clock xmlns:dt=""urn:schemas-microsoft-com:datatypes""><Description dt:dt=""string"">E-Prime Primary Realtime Clock</Description><StartTime><Timestamp dt:dt=""int"">0</Timestamp><DateUtc dt:dt=""string"">2018-10-25T19:41:38Z</DateUtc></StartTime><FrequencyChanges><FrequencyChange><Frequency dt:dt=""r8"">3215273</Frequency><Timestamp dt:dt=""r8"">1606425227862</Timestamp><Current dt:dt=""r8"">0</Current><DateUtc dt:dt=""string"">2018-10-25T19:41:38Z</DateUtc></FrequencyChange></FrequencyChanges></Clock>\n",KW_Experiment5A-44-1,59.944,1.0.0.105,1,108080576,Professional,2.0.10.353,2.0.10.353,10/25/2018,10/25/2018 19:41,15:41:38,2.0.10.248,3,2,1,3,,,,,,,,TrainingProc,BlockList,28,1,Distractor2.bmp,2,0,,1,0,445900,401,,0,0,cyan,400,1,400,4,vertical,cyan,Distractor2.bmp,red,Distractor1.bmp,yellow,Distractor2.bmp,purple,Distractor1.bmp,lime,Target1.bmp,blue,Distractor2.bmp,,,,TrialProc,,TrainingTrialList,1,1,-999999,1,446301,0,1,635,446936,Target1.bmp,lime,1,,,,5,4,76
KW_Experiment5A,44,1,"<?xml version=""1.0""?>\n<Clock xmlns:dt=""urn:schemas-microsoft-com:datatypes""><Description dt:dt=""string"">E-Prime Primary Realtime Clock</Description><StartTime><Timestamp dt:dt=""int"">0</Timestamp><DateUtc dt:dt=""string"">2018-10-25T19:41:38Z</DateUtc></StartTime><FrequencyChanges><FrequencyChange><Frequency dt:dt=""r8"">3215273</Frequency><Timestamp dt:dt=""r8"">1606425227862</Timestamp><Current dt:dt=""r8"">0</Current><DateUtc dt:dt=""string"">2018-10-25T19:41:38Z</DateUtc></FrequencyChange></FrequencyChanges></Clock>\n",KW_Experiment5A-44-1,59.944,1.0.0.105,1,108080576,Professional,2.0.10.353,2.0.10.353,10/25/2018,10/25/2018 19:41,15:41:38,2.0.10.248,3,2,1,3,,,,,,,,TrainingProc,BlockList,29,2,Distractor2.bmp,2,0,,0,1,447952,401,,0,0,lime,400,1,400,,horizontal,lime,Distractor1.bmp,cyan,Distractor1.bmp,purple,Distractor1.bmp,yellow,Distractor2.bmp,red,Target2.bmp,blue,Distractor2.bmp,,,,TrialProc,6,TrainingTrialList,1,2,-999999,1,448353,0,2,887,449240,Target2.bmp,red,2,,,,11,4,77
KW_Experiment5A,44,1,"<?xml version=""1.0""?>\n<Clock xmlns:dt=""urn:schemas-microsoft-com:datatypes""><Description dt:dt=""string"">E-Prime Primary Realtime Clock</Description><StartTime><Timestamp dt:dt=""int"">0</Timestamp><DateUtc dt:dt=""string"">2018-10-25T19:41:38Z</DateUtc></StartTime><FrequencyChanges><FrequencyChange><Frequency dt:dt=""r8"">3215273</Frequency><Timestamp dt:dt=""r8"">1606425227862</Timestamp><Current dt:dt=""r8"">0</Current><DateUtc dt:dt=""string"">2018-10-25T19:41:38Z</DateUtc></FrequencyChange></FrequencyChanges></Clock>\n",KW_Experiment5A-44-1,59.944,1.0.0.105,1,108080576,Professional,2.0.10.353,2.0.10.353,10/25/2018,10/25/2018 19:41,15:41:38,2.0.10.248,3,2,1,3,,,,,,,,TrainingProc,BlockList,30,1,Distractor2.bmp,2,0,,1,0,450254,601,,0,0,blue,600,3,600,3,vertical,blue,Distractor2.bmp,red,Distractor2.bmp,cyan,Distractor1.bmp,yellow,Distractor2.bmp,purple,Distractor1.bmp,lime,Target1.bmp,,,,TrialProc,,TrainingTrialList,1,1,-999999,1,450855,0,1,1025,451880,Target1.bmp,lime,1,,,,6,4,78
KW_Experiment5A,44,1,"<?xml version=""1.0""?>\n<Clock xmlns:dt=""urn:schemas-microsoft-com:datatypes""><Description dt:dt=""string"">E-Prime Primary Realtime Clock</Description><StartTime><Timestamp dt:dt=""int"">0</Timestamp><DateUtc dt:dt=""string"">2018-10-25T19:41:38Z</DateUtc></StartTime><FrequencyChanges><FrequencyChange><Frequency dt:dt=""r8"">3215273</Frequency><Timestamp dt:dt=""r8"">1606425227862</Timestamp><Current dt:dt=""r8"">0</Current><DateUtc dt:dt=""string"">2018-10-25T19:41:38Z</DateUtc></FrequencyChange></FrequencyChanges></Clock>\n",KW_Experiment5A-44-1,59.944,1.0.0.105,1,108080576,Professional,2.0.10.353,2.0.10.353,10/25/2018,10/25/2018 19:41,15:41:38,2.0.10.248,3,2,1,3,,,,,,,,TrainingProc,BlockList,31,1,Distractor2.bmp,2,0,,0,1,452890,501,,0,0,purple,500,2,500,5,vertical,purple,Distractor2.bmp,yellow,Distractor1.bmp,blue,Distractor1.bmp,cyan,Distractor1.bmp,red,Distractor2.bmp,lime,Target1.bmp,,,,TrialProc,,TrainingTrialList,1,1,-999999,1,453391,0,1,441,453832,Target1.bmp,lime,1,,,,6,4,79
KW_Experiment5A,44,1,"<?xml version=""1.0""?>\n<Clock xmlns:dt=""urn:schemas-microsoft-com:datatypes""><Description dt:dt=""string"">E-Prime Primary Realtime Clock</Description><StartTime><Timestamp dt:dt=""int"">0</Timestamp><DateUtc dt:dt=""string"">2018-10-25T19:41:38Z</DateUtc></StartTime><FrequencyChanges><FrequencyChange><Frequency dt:dt=""r8"">3215273</Frequency><Timestamp dt:dt=""r8"">1606425227862</Timestamp><Current dt:dt=""r8"">0</Current><DateUtc dt:dt=""string"">2018-10-25T19:41:38Z</DateUtc></FrequencyChange></FrequencyChanges></Clock>\n",KW_Experiment5A-44-1,59.944,1.0.0.105,1,108080576,Professional,2.0.10.353,2.0.10.353,10/25/2018,10/25/2018 19:41,15:41:38,2.0.10.248,3,2,1,3,,,,,,,,TrainingProc,BlockList,32,2,Distractor2.bmp,2,0,,0,1,454842,600,,0,0,cyan,600,3,600,4,horizontal,lime,Target2.bmp,cyan,Distractor2.bmp,yellow,Distractor1.bmp,purple,Distractor2.bmp,blue,Distractor1.bmp,red,Distractor1.bmp,,,,TrialProc,,TrainingTrialList,1,2,-999999,0,455442,0,2,694,456136,Target2.bmp,lime,2,,,,1,4,80
KW_Experiment5A,44,1,"<?xml version=""1.0""?>\n<Clock xmlns:dt=""urn:schemas-microsoft-com:datatypes""><Description dt:dt=""string"">E-Prime Primary Realtime Clock</Description><StartTime><Timestamp dt:dt=""int"">0</Timestamp><DateUtc dt:dt=""string"">2018-10-25T19:41:38Z</DateUtc></StartTime><FrequencyChanges><FrequencyChange><Frequency dt:dt=""r8"">3215273</Frequency><Timestamp dt:dt=""r8"">1606425227862</Timestamp><Current dt:dt=""r8"">0</Current><DateUtc dt:dt=""string"">2018-10-25T19:41:38Z</DateUtc></FrequencyChange></FrequencyChanges></Clock>\n",KW_Experiment5A-44-1,59.944,1.0.0.105,1,108080576,Professional,2.0.10.353,2.0.10.353,10/25/2018,10/25/2018 19:41,15:41:38,2.0.10.248,3,2,1,3,,,,,,,,TrainingProc,BlockList,33,2,Distractor2.bmp,2,0,,0,1,457161,600,,0,0,cyan,600,3,600,,horizontal,cyan,Distractor1.bmp,yellow,Distractor2.bmp,red,Target2.bmp,blue,Distractor2.bmp,lime,Distractor2.bmp,purple,Distractor2.bmp,,,,TrialProc,4,TrainingTrialList,0,2,-999999,0,457761,0,1,863,458624,Target2.bmp,red,2,,,,9,4,81
KW_Experiment5A,44,1,"<?xml version=""1.0""?>\n<Clock xmlns:dt=""urn:schemas-microsoft-com:datatypes""><Description dt:dt=""string"">E-Prime Primary Realtime Clock</Description><StartTime><Timestamp dt:dt=""int"">0</Timestamp><DateUtc dt:dt=""string"">2018-10-25T19:41:38Z</DateUtc></StartTime><FrequencyChanges><FrequencyChange><Frequency dt:dt=""r8"">3215273</Frequency><Timestamp dt:dt=""r8"">1606425227862</Timestamp><Current dt:dt=""r8"">0</Current><DateUtc dt:dt=""string"">2018-10-25T19:41:38Z</DateUtc></FrequencyChange></FrequencyChanges></Clock>\n",KW_Experiment5A-44-1,59.944,1.0.0.105,1,108080576,Professional,2.0.10.353,2.0.10.353,10/25/2018,10/25/2018 19:41,15:41:38,2.0.10.248,3,2,1,3,,,,,,,,TrainingProc,BlockList,34,1,Distractor1.bmp,1,0,,0,1,459646,501,,0,0,blue,500,2,500,3,vertical,blue,Distractor1.bmp,red,Distractor2.bmp,lime,Target1.bmp,purple,Distractor1.bmp,yellow,Distractor1.bmp,cyan,Distractor1.bmp,,,,TrialProc,,TrainingTrialList,1,1,-999999,1,460147,0,1,757,460904,Target1.bmp,lime,1,,,,3,4,82
KW_Experiment5A,44,1,"<?xml version=""1.0""?>\n<Clock xmlns:dt=""urn:schemas-microsoft-com:datatypes""><Description dt:dt=""string"">E-Prime Primary Realtime Clock</Description><StartTime><Timestamp dt:dt=""int"">0</Timestamp><DateUtc dt:dt=""string"">2018-10-25T19:41:38Z</DateUtc></StartTime><FrequencyChanges><FrequencyChange><Frequency dt:dt=""r8"">3215273</Frequency><Timestamp dt:dt=""r8"">1606425227862</Timestamp><Current dt:dt=""r8"">0</Current><DateUtc dt:dt=""string"">2018-10-25T19:41:38Z</DateUtc></FrequencyChange></FrequencyChanges></Clock>\n",KW_Experiment5A-44-1,59.944,1.0.0.105,1,108080576,Professional,2.0.10.353,2.0.10.353,10/25/2018,10/25/2018 19:41,15:41:38,2.0.10.248,3,2,1,3,,,,,,,,TrainingProc,BlockList,35,1,Distractor2.bmp,2,0,,0,1,461915,401,,0,0,lime,400,1,400,,vertical,lime,Distractor1.bmp,red,Target1.bmp,cyan,Distractor2.bmp,purple,Distractor2.bmp,yellow,Distractor2.bmp,blue,Distractor2.bmp,,,,TrialProc,6,TrainingTrialList,1,1,-999999,1,462316,0,1,612,462928,Target1.bmp,red,1,,,,8,4,83
KW_Experiment5A,44,1,"<?xml version=""1.0""?>\n<Clock xmlns:dt=""urn:schemas-microsoft-com:datatypes""><Description dt:dt=""string"">E-Prime Primary Realtime Clock</Description><StartTime><Timestamp dt:dt=""int"">0</Timestamp><DateUtc dt:dt=""string"">2018-10-25T19:41:38Z</DateUtc></StartTime><FrequencyChanges><FrequencyChange><Frequency dt:dt=""r8"">3215273</Frequency><Timestamp dt:dt=""r8"">1606425227862</Timestamp><Current dt:dt=""r8"">0</Current><DateUtc dt:dt=""string"">2018-10-25T19:41:38Z</DateUtc></FrequencyChange></FrequencyChanges></Clock>\n",KW_Experiment5A-44-1,59.944,1.0.0.105,1,108080576,Professional,2.0.10.353,2.0.10.353,10/25/2018,10/25/2018 19:41,15:41:38,2.0.10.248,3,2,1,3,,,,,,,,TrainingProc,BlockList,36,1,Distractor2.bmp,2,0,,0,1,463950,601,,0,0,purple,600,3,600,5,vertical,purple,Distractor2.bmp,red,Distractor2.bmp,cyan,Distractor2.bmp,yellow,Distractor2.bmp,blue,Distractor2.bmp,lime,Target1.bmp,,,,TrialProc,,TrainingTrialList,0,1,-999999,1,464551,0,2,985,465536,Target1.bmp,lime,1,,,,6,4,84
KW_Experiment5A,44,1,"<?xml version=""1.0""?>\n<Clock xmlns:dt=""urn:schemas-microsoft-com:datatypes""><Description dt:dt=""string"">E-Prime Primary Realtime Clock</Description><StartTime><Timestamp dt:dt=""int"">0</Timestamp><DateUtc dt:dt=""string"">2018-10-25T19:41:38Z</DateUtc></StartTime><FrequencyChanges><FrequencyChange><Frequency dt:dt=""r8"">3215273</Frequency><Timestamp dt:dt=""r8"">1606425227862</Timestamp><Current dt:dt=""r8"">0</Current><DateUtc dt:dt=""string"">2018-10-25T19:41:38Z</DateUtc></FrequencyChange></FrequencyChanges></Clock>\n",KW_Experiment5A-44-1,59.944,1.0.0.105,1,108080576,Professional,2.0.10.353,2.0.10.353,10/25/2018,10/25/2018 19:41,15:41:38,2.0.10.248,3,2,1,3,,,,,,,,TrainingProc,BlockList,37,2,Distractor1.bmp,1,0,,0,1,466553,400,,0,0,red,400,1,400,1,horizontal,red,Distractor2.bmp,yellow,Distractor1.bmp,cyan,Distractor1.bmp,blue,Distractor1.bmp,lime,Target2.bmp,purple,Distractor1.bmp,,,,TrialProc,,TrainingTrialList,1,2,-999999,0,466953,0,2,751,467704,Target2.bmp,lime,2,,,,5,4,85
KW_Experiment5A,44,1,"<?xml version=""1.0""?>\n<Clock xmlns:dt=""urn:schemas-microsoft-com:datatypes""><Description dt:dt=""string"">E-Prime Primary Realtime Clock</Description><StartTime><Timestamp dt:dt=""int"">0</Timestamp><DateUtc dt:dt=""string"">2018-10-25T19:41:38Z</DateUtc></StartTime><FrequencyChanges><FrequencyChange><Frequency dt:dt=""r8"">3215273</Frequency><Timestamp dt:dt=""r8"">1606425227862</Timestamp><Current dt:dt=""r8"">0</Current><DateUtc dt:dt=""string"">2018-10-25T19:41:38Z</DateUtc></FrequencyChange></FrequencyChanges></Clock>\n",KW_Experiment5A-44-1,59.944,1.0.0.105,1,108080576,Professional,2.0.10.353,2.0.10.353,10/25/2018,10/25/2018 19:41,15:41:38,2.0.10.248,3,2,1,3,,,,,,,,TrainingProc,BlockList,38,1,Distractor2.bmp,2,0,,0,1,468721,601,,0,0,purple,600,3,600,5,vertical,lime,Target1.bmp,purple,Distractor2.bmp,red,Distractor2.bmp,yellow,Distractor2.bmp,cyan,Distractor1.bmp,blue,Distractor2.bmp,,,,TrialProc,,TrainingTrialList,1,1,-999999,1,469322,0,1,1110,470432,Target1.bmp,lime,1,,,,1,4,86
KW_Experiment5A,44,1,"<?xml version=""1.0""?>\n<Clock xmlns:dt=""urn:schemas-microsoft-com:datatypes""><Description dt:dt=""string"">E-Prime Primary Realtime Clock</Description><StartTime><Timestamp dt:dt=""int"">0</Timestamp><DateUtc dt:dt=""string"">2018-10-25T19:41:38Z</DateUtc></StartTime><FrequencyChanges><FrequencyChange><Frequency dt:dt=""r8"">3215273</Frequency><Timestamp dt:dt=""r8"">1606425227862</Timestamp><Current dt:dt=""r8"">0</Current><DateUtc dt:dt=""string"">2018-10-25T19:41:38Z</DateUtc></FrequencyChange></FrequencyChanges></Clock>\n",KW_Experiment5A-44-1,59.944,1.0.0.105,1,108080576,Professional,2.0.10.353,2.0.10.353,10/25/2018,10/25/2018 19:41,15:41:38,2.0.10.248,3,2,1,3,,,,,,,,TrainingProc,BlockList,39,2,Distractor2.bmp,2,0,,0,1,471457,501,,0,0,red,500,2,500,1,horizontal,red,Distractor1.bmp,cyan,Distractor1.bmp,blue,Distractor1.bmp,yellow,Distractor2.bmp,lime,Target2.bmp,purple,Distractor2.bmp,,,,TrialProc,,TrainingTrialList,1,2,-999999,1,471958,0,2,690,472648,Target2.bmp,lime,2,,,,5,4,87
KW_Experiment5A,44,1,"<?xml version=""1.0""?>\n<Clock xmlns:dt=""urn:schemas-microsoft-com:datatypes""><Description dt:dt=""string"">E-Prime Primary Realtime Clock</Description><StartTime><Timestamp dt:dt=""int"">0</Timestamp><DateUtc dt:dt=""string"">2018-10-25T19:41:38Z</DateUtc></StartTime><FrequencyChanges><FrequencyChange><Frequency dt:dt=""r8"">3215273</Frequency><Timestamp dt:dt=""r8"">1606425227862</Timestamp><Current dt:dt=""r8"">0</Current><DateUtc dt:dt=""string"">2018-10-25T19:41:38Z</DateUtc></FrequencyChange></FrequencyChanges></Clock>\n",KW_Experiment5A-44-1,59.944,1.0.0.105,1,108080576,Professional,2.0.10.353,2.0.10.353,10/25/2018,10/25/2018 19:41,15:41:38,2.0.10.248,3,2,1,3,,,,,,,,TrainingProc,BlockList,40,1,Distractor1.bmp,1,0,,0,1,473659,601,,0,0,yellow,600,3,600,,vertical,yellow,Distractor2.bmp,cyan,Distractor1.bmp,purple,Distractor2.bmp,red,Target1.bmp,blue,Distractor1.bmp,lime,Distractor2.bmp,,,,TrialProc,2,TrainingTrialList,1,1,-999999,1,474260,0,1,732,474992,Target1.bmp,red,1,,,,10,4,88
KW_Experiment5A,44,1,"<?xml version=""1.0""?>\n<Clock xmlns:dt=""urn:schemas-microsoft-com:datatypes""><Description dt:dt=""string"">E-Prime Primary Realtime Clock</Description><StartTime><Timestamp dt:dt=""int"">0</Timestamp><DateUtc dt:dt=""string"">2018-10-25T19:41:38Z</DateUtc></StartTime><FrequencyChanges><FrequencyChange><Frequency dt:dt=""r8"">3215273</Frequency><Timestamp dt:dt=""r8"">1606425227862</Timestamp><Current dt:dt=""r8"">0</Current><DateUtc dt:dt=""string"">2018-10-25T19:41:38Z</DateUtc></FrequencyChange></FrequencyChanges></Clock>\n",KW_Experiment5A-44-1,59.944,1.0.0.105,1,108080576,Professional,2.0.10.353,2.0.10.353,10/25/2018,10/25/2018 19:41,15:41:38,2.0.10.248,3,2,1,3,,,,,,,,TrainingProc,BlockList,41,1,Distractor1.bmp,1,0,,0,1,476011,601,,0,0,cyan,600,3,600,4,vertical,cyan,Distractor1.bmp,lime,Target1.bmp,yellow,Distractor1.bmp,blue,Distractor1.bmp,purple,Distractor1.bmp,red,Distractor2.bmp,,,,TrialProc,,TrainingTrialList,1,1,-999999,1,476612,0,1,868,477480,Target1.bmp,lime,1,,,,2,4,89
KW_Experiment5A,44,1,"<?xml version=""1.0""?>\n<Clock xmlns:dt=""urn:schemas-microsoft-com:datatypes""><Description dt:dt=""string"">E-Prime Primary Realtime Clock</Description><StartTime><Timestamp dt:dt=""int"">0</Timestamp><DateUtc dt:dt=""string"">2018-10-25T19:41:38Z</DateUtc></StartTime><FrequencyChanges><FrequencyChange><Frequency dt:dt=""r8"">3215273</Frequency><Timestamp dt:dt=""r8"">1606425227862</Timestamp><Current dt:dt=""r8"">0</Current><DateUtc dt:dt=""string"">2018-10-25T19:41:38Z</DateUtc></FrequencyChange></FrequencyChanges></Clock>\n",KW_Experiment5A-44-1,59.944,1.0.0.105,1,108080576,Professional,2.0.10.353,2.0.10.353,10/25/2018,10/25/2018 19:41,15:41:38,2.0.10.248,3,2,1,3,,,,,,,,TrainingProc,BlockList,42,1,Distractor1.bmp,1,0,,0,1,478497,400,,0,0,blue,400,1,400,,vertical,red,Target1.bmp,lime,Distractor1.bmp,yellow,Distractor2.bmp,purple,Distractor2.bmp,cyan,Distractor2.bmp,blue,Distractor2.bmp,,,,TrialProc,3,TrainingTrialList,1,1,-999999,0,478897,0,1,551,479448,Target1.bmp,red,1,,,,7,4,90
