ExperimentName,Subject,Session,Clock.Information,DataFile.Basename,Display.RefreshRate,ExperimentVersion,Group,RandomSeed,RuntimeCapabilities,RuntimeVersion,RuntimeVersionExpected,SessionDate,SessionStartDateTimeUtc,SessionTime,StudioVersion,Block,BlockList,BlockList.Cycle,BlockList.Sample,PostTestQ1.RESP,PostTestQ1CJ.RESP,PostTestQ2.RESP,PostTestQ2CJ.RESP,PostTestQ3.RESP,PostTestQ3CJ.RESP,PostTestSlide.RESP,Procedure[Block],Running[Block],Trial,CorrectResponse,Distractor,DistractorList,Fixation.ACC,Fixation.CRESP,Fixation.DurationError,Fixation.OnsetDelay,Fixation.OnsetTime,Fixation.OnsetToOnsetTime,Fixation.RESP,Fixation.RT,Fixation.RTTime,ItemColor,Jitter,JitterList,JitterTime,Lime0List,Orientation,Pos1Color,Pos1Item,Pos2Color,Pos2Item,Pos3Color,Pos3Item,Pos4Color,Pos4Item,Pos5Color,Pos5Item,Pos6Color,Pos6Item,PracticeTrialList,PracticeTrialList.Cycle,PracticeTrialList.Sample,Procedure[Trial],Red0List,Running[Trial],Stimulus.ACC,Stimulus.CRESP,Stimulus.DurationError,Stimulus.OnsetDelay,Stimulus.OnsetTime,Stimulus.OnsetToOnsetTime,Stimulus.RESP,Stimulus.RT,Stimulus.RTTime,Target,TargetColor,TargetList,TestTrialList,TestTrialList.Cycle,TestTrialList.Sample,TrainingTrialList,TrainingTrialList.Cycle,TrainingTrialList.Sample
KW_Experiment5A,38,1,"<?xml version=""1.0""?>\n<Clock xmlns:dt=""urn:schemas-microsoft-com:datatypes""><Description dt:dt=""string"">E-Prime Primary Realtime Clock</Description><StartTime><Timestamp dt:dt=""int"">0</Timestamp><DateUtc dt:dt=""string"">2018-10-24T16:12:39Z</DateUtc></StartTime><FrequencyChanges><FrequencyChange><Frequency dt:dt=""r8"">3215292</Frequency><Timestamp dt:dt=""r8"">1288072134138</Timestamp><Current dt:dt=""r8"">0</Current><DateUtc dt:dt=""string"">2018-10-24T16:12:39Z</DateUtc></FrequencyChange></FrequencyChanges></Clock>\n",KW_Experiment5A-38-1,59.946,1.0.0.105,1,-417401897,Professional,2.0.10.353,2.0.10.353,10/24/2018,10/24/2018 16:12,12:12:39,2.0.10.248,1,1,1,1,,,,,,,,PracticeProc,BlockList,1,1,Distractor2.bmp,2,0,,0,42,1226401,501,,0,0,lime,500,2,500,,vertical,yellow,Distractor1.bmp,blue,Distractor1.bmp,lime,Distractor2.bmp,red,Target1.bmp,cyan,Distractor2.bmp,purple,Distractor2.bmp,4,1,1,TrialProc,6,PracticeTrialList,1,1,-999999,1,1226902,0,1,5761,1232663,Target1.bmp,red,1,,,,,,
KW_Experiment5A,38,1,"<?xml version=""1.0""?>\n<Clock xmlns:dt=""urn:schemas-microsoft-com:datatypes""><Description dt:dt=""string"">E-Prime Primary Realtime Clock</Description><StartTime><Timestamp dt:dt=""int"">0</Timestamp><DateUtc dt:dt=""string"">2018-10-24T16:12:39Z</DateUtc></StartTime><FrequencyChanges><FrequencyChange><Frequency dt:dt=""r8"">3215292</Frequency><Timestamp dt:dt=""r8"">1288072134138</Timestamp><Current dt:dt=""r8"">0</Current><DateUtc dt:dt=""string"">2018-10-24T16:12:39Z</DateUtc></FrequencyChange></FrequencyChanges></Clock>\n",KW_Experiment5A-38-1,59.946,1.0.0.105,1,-417401897,Professional,2.0.10.353,2.0.10.353,10/24/2018,10/24/2018 16:12,12:12:39,2.0.10.248,1,1,1,1,,,,,,,,PracticeProc,BlockList,2,1,Distractor1.bmp,1,0,,0,1,1233691,401,,0,0,purple,400,1,400,,vertical,purple,Distractor2.bmp,red,Target1.bmp,lime,Distractor1.bmp,cyan,Distractor2.bmp,yellow,Distractor1.bmp,blue,Distractor2.bmp,2,1,2,TrialProc,5,PracticeTrialList,1,1,-999999,1,1234092,0,1,1139,1235231,Target1.bmp,red,1,,,,,,
KW_Experiment5A,38,1,"<?xml version=""1.0""?>\n<Clock xmlns:dt=""urn:schemas-microsoft-com:datatypes""><Description dt:dt=""string"">E-Prime Primary Realtime Clock</Description><StartTime><Timestamp dt:dt=""int"">0</Timestamp><DateUtc dt:dt=""string"">2018-10-24T16:12:39Z</DateUtc></StartTime><FrequencyChanges><FrequencyChange><Frequency dt:dt=""r8"">3215292</Frequency><Timestamp dt:dt=""r8"">1288072134138</Timestamp><Current dt:dt=""r8"">0</Current><DateUtc dt:dt=""string"">2018-10-24T16:12:39Z</DateUtc></FrequencyChange></FrequencyChanges></Clock>\n",KW_Experiment5A-38-1,59.946,1.0.0.105,1,-417401897,Professional,2.0.10.353,2.0.10.353,10/24/2018,10/24/2018 16:12,12:12:39,2.0.10.248,1,1,1,1,,,,,,,,PracticeProc,BlockList,3,2,Distractor1.bmp,1,0,,0,1,1236260,601,,0,0,red,600,3,600,1,horizontal,yellow,Distractor2.bmp,red,Distractor2.bmp,lime,Target2.bmp,purple,Distractor1.bmp,cyan,Distractor1.bmp,blue,Distractor2.bmp,3,1,3,TrialProc,,PracticeTrialList,1,2,-999999,1,1236861,0,2,906,1237767,Target2.bmp,lime,2,,,,,,
KW_Experiment5A,38,1,"<?xml version=""1.0""?>\n<Clock xmlns:dt=""urn:schemas-microsoft-com:datatypes""><Description dt:dt=""string"">E-Prime Primary Realtime Clock</Description><StartTime><Timestamp dt:dt=""int"">0</Timestamp><DateUtc dt:dt=""string"">2018-10-24T16:12:39Z</DateUtc></StartTime><FrequencyChanges><FrequencyChange><Frequency dt:dt=""r8"">3215292</Frequency><Timestamp dt:dt=""r8"">1288072134138</Timestamp><Current dt:dt=""r8"">0</Current><DateUtc dt:dt=""string"">2018-10-24T16:12:39Z</DateUtc></FrequencyChange></FrequencyChanges></Clock>\n",KW_Experiment5A-38-1,59.946,1.0.0.105,1,-417401897,Professional,2.0.10.353,2.0.10.353,10/24/2018,10/24/2018 16:12,12:12:39,2.0.10.248,1,1,1,1,,,,,,,,PracticeProc,BlockList,4,1,Distractor2.bmp,2,0,,0,1,1238779,401,,0,0,cyan,400,1,400,,vertical,yellow,Distractor2.bmp,purple,Distractor2.bmp,lime,Distractor1.bmp,blue,Distractor1.bmp,cyan,Distractor2.bmp,red,Target1.bmp,6,1,4,TrialProc,4,PracticeTrialList,1,1,-999999,1,1239180,0,1,907,1240087,Target1.bmp,red,1,,,,,,
KW_Experiment5A,38,1,"<?xml version=""1.0""?>\n<Clock xmlns:dt=""urn:schemas-microsoft-com:datatypes""><Description dt:dt=""string"">E-Prime Primary Realtime Clock</Description><StartTime><Timestamp dt:dt=""int"">0</Timestamp><DateUtc dt:dt=""string"">2018-10-24T16:12:39Z</DateUtc></StartTime><FrequencyChanges><FrequencyChange><Frequency dt:dt=""r8"">3215292</Frequency><Timestamp dt:dt=""r8"">1288072134138</Timestamp><Current dt:dt=""r8"">0</Current><DateUtc dt:dt=""string"">2018-10-24T16:12:39Z</DateUtc></FrequencyChange></FrequencyChanges></Clock>\n",KW_Experiment5A-38-1,59.946,1.0.0.105,1,-417401897,Professional,2.0.10.353,2.0.10.353,10/24/2018,10/24/2018 16:12,12:12:39,2.0.10.248,1,1,1,1,,,,,,,,PracticeProc,BlockList,5,2,Distractor2.bmp,2,0,,0,1,1241098,500,,0,0,purple,500,2,500,5,horizontal,lime,Target2.bmp,cyan,Distractor2.bmp,yellow,Distractor1.bmp,blue,Distractor2.bmp,red,Distractor1.bmp,purple,Distractor1.bmp,1,1,5,TrialProc,,PracticeTrialList,1,2,-999999,0,1241598,0,2,841,1242439,Target2.bmp,lime,2,,,,,,
KW_Experiment5A,38,1,"<?xml version=""1.0""?>\n<Clock xmlns:dt=""urn:schemas-microsoft-com:datatypes""><Description dt:dt=""string"">E-Prime Primary Realtime Clock</Description><StartTime><Timestamp dt:dt=""int"">0</Timestamp><DateUtc dt:dt=""string"">2018-10-24T16:12:39Z</DateUtc></StartTime><FrequencyChanges><FrequencyChange><Frequency dt:dt=""r8"">3215292</Frequency><Timestamp dt:dt=""r8"">1288072134138</Timestamp><Current dt:dt=""r8"">0</Current><DateUtc dt:dt=""string"">2018-10-24T16:12:39Z</DateUtc></FrequencyChange></FrequencyChanges></Clock>\n",KW_Experiment5A-38-1,59.946,1.0.0.105,1,-417401897,Professional,2.0.10.353,2.0.10.353,10/24/2018,10/24/2018 16:12,12:12:39,2.0.10.248,1,1,1,1,,,,,,,,PracticeProc,BlockList,6,1,Distractor1.bmp,1,0,,0,1,1243450,400,,0,0,cyan,400,1,400,4,vertical,yellow,Distractor2.bmp,purple,Distractor2.bmp,red,Distractor1.bmp,cyan,Distractor2.bmp,lime,Target1.bmp,blue,Distractor1.bmp,5,1,6,TrialProc,,PracticeTrialList,1,1,-999999,0,1243850,0,1,1229,1245079,Target1.bmp,lime,1,,,,,,
KW_Experiment5A,38,1,"<?xml version=""1.0""?>\n<Clock xmlns:dt=""urn:schemas-microsoft-com:datatypes""><Description dt:dt=""string"">E-Prime Primary Realtime Clock</Description><StartTime><Timestamp dt:dt=""int"">0</Timestamp><DateUtc dt:dt=""string"">2018-10-24T16:12:39Z</DateUtc></StartTime><FrequencyChanges><FrequencyChange><Frequency dt:dt=""r8"">3215292</Frequency><Timestamp dt:dt=""r8"">1288072134138</Timestamp><Current dt:dt=""r8"">0</Current><DateUtc dt:dt=""string"">2018-10-24T16:12:39Z</DateUtc></FrequencyChange></FrequencyChanges></Clock>\n",KW_Experiment5A-38-1,59.946,1.0.0.105,1,-417401897,Professional,2.0.10.353,2.0.10.353,10/24/2018,10/24/2018 16:12,12:12:39,2.0.10.248,2,2,1,2,,,,,,,,TrainingProc,BlockList,1,1,Distractor2.bmp,2,0,,0,39,1256278,601,,0,0,purple,600,3,600,,vertical,purple,Distractor1.bmp,yellow,Distractor1.bmp,red,Target1.bmp,lime,Distractor2.bmp,cyan,Distractor2.bmp,blue,Distractor1.bmp,,,,TrialProc,5,TrainingTrialList,0,1,-999999,1,1256879,0,2,711,1257590,Target1.bmp,red,1,,,,9,1,1
KW_Experiment5A,38,1,"<?xml version=""1.0""?>\n<Clock xmlns:dt=""urn:schemas-microsoft-com:datatypes""><Description dt:dt=""string"">E-Prime Primary Realtime Clock</Description><StartTime><Timestamp dt:dt=""int"">0</Timestamp><DateUtc dt:dt=""string"">2018-10-24T16:12:39Z</DateUtc></StartTime><FrequencyChanges><FrequencyChange><Frequency dt:dt=""r8"">3215292</Frequency><Timestamp dt:dt=""r8"">1288072134138</Timestamp><Current dt:dt=""r8"">0</Current><DateUtc dt:dt=""string"">2018-10-24T16:12:39Z</DateUtc></FrequencyChange></FrequencyChanges></Clock>\n",KW_Experiment5A-38-1,59.946,1.0.0.105,1,-417401897,Professional,2.0.10.353,2.0.10.353,10/24/2018,10/24/2018 16:12,12:12:39,2.0.10.248,2,2,1,2,,,,,,,,TrainingProc,BlockList,2,1,Distractor2.bmp,2,0,,0,1,1258614,600,,0,0,red,600,3,600,1,vertical,red,Distractor1.bmp,cyan,Distractor1.bmp,yellow,Distractor2.bmp,lime,Target1.bmp,blue,Distractor2.bmp,purple,Distractor1.bmp,,,,TrialProc,,TrainingTrialList,1,1,-999999,0,1259214,0,1,1176,1260390,Target1.bmp,lime,1,,,,4,1,2
KW_Experiment5A,38,1,"<?xml version=""1.0""?>\n<Clock xmlns:dt=""urn:schemas-microsoft-com:datatypes""><Description dt:dt=""string"">E-Prime Primary Realtime Clock</Description><StartTime><Timestamp dt:dt=""int"">0</Timestamp><DateUtc dt:dt=""string"">2018-10-24T16:12:39Z</DateUtc></StartTime><FrequencyChanges><FrequencyChange><Frequency dt:dt=""r8"">3215292</Frequency><Timestamp dt:dt=""r8"">1288072134138</Timestamp><Current dt:dt=""r8"">0</Current><DateUtc dt:dt=""string"">2018-10-24T16:12:39Z</DateUtc></FrequencyChange></FrequencyChanges></Clock>\n",KW_Experiment5A-38-1,59.946,1.0.0.105,1,-417401897,Professional,2.0.10.353,2.0.10.353,10/24/2018,10/24/2018 16:12,12:12:39,2.0.10.248,2,2,1,2,,,,,,,,TrainingProc,BlockList,3,2,Distractor2.bmp,2,0,,0,1,1261416,601,,0,0,yellow,600,3,600,2,horizontal,yellow,Distractor2.bmp,lime,Target2.bmp,blue,Distractor2.bmp,purple,Distractor1.bmp,cyan,Distractor1.bmp,red,Distractor1.bmp,,,,TrialProc,,TrainingTrialList,1,2,-999999,1,1262017,0,2,853,1262870,Target2.bmp,lime,2,,,,2,1,3
KW_Experiment5A,38,1,"<?xml version=""1.0""?>\n<Clock xmlns:dt=""urn:schemas-microsoft-com:datatypes""><Description dt:dt=""string"">E-Prime Primary Realtime Clock</Description><StartTime><Timestamp dt:dt=""int"">0</Timestamp><DateUtc dt:dt=""string"">2018-10-24T16:12:39Z</DateUtc></StartTime><FrequencyChanges><FrequencyChange><Frequency dt:dt=""r8"">3215292</Frequency><Timestamp dt:dt=""r8"">1288072134138</Timestamp><Current dt:dt=""r8"">0</Current><DateUtc dt:dt=""string"">2018-10-24T16:12:39Z</DateUtc></FrequencyChange></FrequencyChanges></Clock>\n",KW_Experiment5A-38-1,59.946,1.0.0.105,1,-417401897,Professional,2.0.10.353,2.0.10.353,10/24/2018,10/24/2018 16:12,12:12:39,2.0.10.248,2,2,1,2,,,,,,,,TrainingProc,BlockList,4,1,Distractor2.bmp,2,0,,0,1,1263885,401,,0,0,cyan,400,1,400,,vertical,cyan,Distractor2.bmp,purple,Distractor2.bmp,lime,Distractor2.bmp,yellow,Distractor1.bmp,red,Target1.bmp,blue,Distractor2.bmp,,,,TrialProc,4,TrainingTrialList,1,1,-999999,1,1264286,0,1,728,1265014,Target1.bmp,red,1,,,,11,1,4
KW_Experiment5A,38,1,"<?xml version=""1.0""?>\n<Clock xmlns:dt=""urn:schemas-microsoft-com:datatypes""><Description dt:dt=""string"">E-Prime Primary Realtime Clock</Description><StartTime><Timestamp dt:dt=""int"">0</Timestamp><DateUtc dt:dt=""string"">2018-10-24T16:12:39Z</DateUtc></StartTime><FrequencyChanges><FrequencyChange><Frequency dt:dt=""r8"">3215292</Frequency><Timestamp dt:dt=""r8"">1288072134138</Timestamp><Current dt:dt=""r8"">0</Current><DateUtc dt:dt=""string"">2018-10-24T16:12:39Z</DateUtc></FrequencyChange></FrequencyChanges></Clock>\n",KW_Experiment5A-38-1,59.946,1.0.0.105,1,-417401897,Professional,2.0.10.353,2.0.10.353,10/24/2018,10/24/2018 16:12,12:12:39,2.0.10.248,2,2,1,2,,,,,,,,TrainingProc,BlockList,5,1,Distractor2.bmp,2,0,,0,1,1266037,601,,0,0,lime,600,3,600,,vertical,red,Target1.bmp,blue,Distractor2.bmp,cyan,Distractor2.bmp,yellow,Distractor1.bmp,purple,Distractor1.bmp,lime,Distractor1.bmp,,,,TrialProc,6,TrainingTrialList,1,1,-999999,1,1266638,0,1,872,1267510,Target1.bmp,red,1,,,,7,1,5
KW_Experiment5A,38,1,"<?xml version=""1.0""?>\n<Clock xmlns:dt=""urn:schemas-microsoft-com:datatypes""><Description dt:dt=""string"">E-Prime Primary Realtime Clock</Description><StartTime><Timestamp dt:dt=""int"">0</Timestamp><DateUtc dt:dt=""string"">2018-10-24T16:12:39Z</DateUtc></StartTime><FrequencyChanges><FrequencyChange><Frequency dt:dt=""r8"">3215292</Frequency><Timestamp dt:dt=""r8"">1288072134138</Timestamp><Current dt:dt=""r8"">0</Current><DateUtc dt:dt=""string"">2018-10-24T16:12:39Z</DateUtc></FrequencyChange></FrequencyChanges></Clock>\n",KW_Experiment5A-38-1,59.946,1.0.0.105,1,-417401897,Professional,2.0.10.353,2.0.10.353,10/24/2018,10/24/2018 16:12,12:12:39,2.0.10.248,2,2,1,2,,,,,,,,TrainingProc,BlockList,6,1,Distractor2.bmp,2,0,,0,1,1268523,500,,0,0,purple,500,2,500,5,vertical,purple,Distractor1.bmp,yellow,Distractor1.bmp,red,Distractor2.bmp,lime,Target1.bmp,blue,Distractor2.bmp,cyan,Distractor1.bmp,,,,TrialProc,,TrainingTrialList,1,1,-999999,0,1269023,0,1,855,1269878,Target1.bmp,lime,1,,,,4,1,6
KW_Experiment5A,38,1,"<?xml version=""1.0""?>\n<Clock xmlns:dt=""urn:schemas-microsoft-com:datatypes""><Description dt:dt=""string"">E-Prime Primary Realtime Clock</Description><StartTime><Timestamp dt:dt=""int"">0</Timestamp><DateUtc dt:dt=""string"">2018-10-24T16:12:39Z</DateUtc></StartTime><FrequencyChanges><FrequencyChange><Frequency dt:dt=""r8"">3215292</Frequency><Timestamp dt:dt=""r8"">1288072134138</Timestamp><Current dt:dt=""r8"">0</Current><DateUtc dt:dt=""string"">2018-10-24T16:12:39Z</DateUtc></FrequencyChange></FrequencyChanges></Clock>\n",KW_Experiment5A-38-1,59.946,1.0.0.105,1,-417401897,Professional,2.0.10.353,2.0.10.353,10/24/2018,10/24/2018 16:12,12:12:39,2.0.10.248,2,2,1,2,,,,,,,,TrainingProc,BlockList,7,1,Distractor2.bmp,2,0,,0,1,1270892,600,,0,0,yellow,600,3,600,2,vertical,yellow,Distractor2.bmp,cyan,Distractor2.bmp,purple,Distractor2.bmp,blue,Distractor1.bmp,red,Distractor1.bmp,lime,Target1.bmp,,,,TrialProc,,TrainingTrialList,1,1,-999999,0,1271492,0,1,970,1272462,Target1.bmp,lime,1,,,,6,1,7
KW_Experiment5A,38,1,"<?xml version=""1.0""?>\n<Clock xmlns:dt=""urn:schemas-microsoft-com:datatypes""><Description dt:dt=""string"">E-Prime Primary Realtime Clock</Description><StartTime><Timestamp dt:dt=""int"">0</Timestamp><DateUtc dt:dt=""string"">2018-10-24T16:12:39Z</DateUtc></StartTime><FrequencyChanges><FrequencyChange><Frequency dt:dt=""r8"">3215292</Frequency><Timestamp dt:dt=""r8"">1288072134138</Timestamp><Current dt:dt=""r8"">0</Current><DateUtc dt:dt=""string"">2018-10-24T16:12:39Z</DateUtc></FrequencyChange></FrequencyChanges></Clock>\n",KW_Experiment5A-38-1,59.946,1.0.0.105,1,-417401897,Professional,2.0.10.353,2.0.10.353,10/24/2018,10/24/2018 16:12,12:12:39,2.0.10.248,2,2,1,2,,,,,,,,TrainingProc,BlockList,8,1,Distractor2.bmp,2,0,,0,1,1273477,401,,0,0,purple,400,1,400,5,vertical,purple,Distractor2.bmp,blue,Distractor2.bmp,cyan,Distractor2.bmp,red,Distractor2.bmp,lime,Target1.bmp,yellow,Distractor2.bmp,,,,TrialProc,,TrainingTrialList,1,1,-999999,1,1273878,0,1,856,1274734,Target1.bmp,lime,1,,,,5,1,8
KW_Experiment5A,38,1,"<?xml version=""1.0""?>\n<Clock xmlns:dt=""urn:schemas-microsoft-com:datatypes""><Description dt:dt=""string"">E-Prime Primary Realtime Clock</Description><StartTime><Timestamp dt:dt=""int"">0</Timestamp><DateUtc dt:dt=""string"">2018-10-24T16:12:39Z</DateUtc></StartTime><FrequencyChanges><FrequencyChange><Frequency dt:dt=""r8"">3215292</Frequency><Timestamp dt:dt=""r8"">1288072134138</Timestamp><Current dt:dt=""r8"">0</Current><DateUtc dt:dt=""string"">2018-10-24T16:12:39Z</DateUtc></FrequencyChange></FrequencyChanges></Clock>\n",KW_Experiment5A-38-1,59.946,1.0.0.105,1,-417401897,Professional,2.0.10.353,2.0.10.353,10/24/2018,10/24/2018 16:12,12:12:39,2.0.10.248,2,2,1,2,,,,,,,,TrainingProc,BlockList,9,1,Distractor2.bmp,2,0,,0,1,1275746,400,,0,0,yellow,400,1,400,2,vertical,yellow,Distractor2.bmp,purple,Distractor1.bmp,blue,Distractor1.bmp,lime,Target1.bmp,cyan,Distractor2.bmp,red,Distractor2.bmp,,,,TrialProc,,TrainingTrialList,1,1,-999999,0,1276146,0,1,476,1276622,Target1.bmp,lime,1,,,,4,1,9
KW_Experiment5A,38,1,"<?xml version=""1.0""?>\n<Clock xmlns:dt=""urn:schemas-microsoft-com:datatypes""><Description dt:dt=""string"">E-Prime Primary Realtime Clock</Description><StartTime><Timestamp dt:dt=""int"">0</Timestamp><DateUtc dt:dt=""string"">2018-10-24T16:12:39Z</DateUtc></StartTime><FrequencyChanges><FrequencyChange><Frequency dt:dt=""r8"">3215292</Frequency><Timestamp dt:dt=""r8"">1288072134138</Timestamp><Current dt:dt=""r8"">0</Current><DateUtc dt:dt=""string"">2018-10-24T16:12:39Z</DateUtc></FrequencyChange></FrequencyChanges></Clock>\n",KW_Experiment5A-38-1,59.946,1.0.0.105,1,-417401897,Professional,2.0.10.353,2.0.10.353,10/24/2018,10/24/2018 16:12,12:12:39,2.0.10.248,2,2,1,2,,,,,,,,TrainingProc,BlockList,10,2,Distractor1.bmp,1,0,,0,1,1277648,600,,0,0,yellow,600,3,600,2,horizontal,yellow,Distractor1.bmp,red,Distractor2.bmp,blue,Distractor2.bmp,purple,Distractor2.bmp,cyan,Distractor1.bmp,lime,Target2.bmp,,,,TrialProc,,TrainingTrialList,0,2,-999999,0,1278248,0,1,598,1278846,Target2.bmp,lime,2,,,,6,1,10
KW_Experiment5A,38,1,"<?xml version=""1.0""?>\n<Clock xmlns:dt=""urn:schemas-microsoft-com:datatypes""><Description dt:dt=""string"">E-Prime Primary Realtime Clock</Description><StartTime><Timestamp dt:dt=""int"">0</Timestamp><DateUtc dt:dt=""string"">2018-10-24T16:12:39Z</DateUtc></StartTime><FrequencyChanges><FrequencyChange><Frequency dt:dt=""r8"">3215292</Frequency><Timestamp dt:dt=""r8"">1288072134138</Timestamp><Current dt:dt=""r8"">0</Current><DateUtc dt:dt=""string"">2018-10-24T16:12:39Z</DateUtc></FrequencyChange></FrequencyChanges></Clock>\n",KW_Experiment5A-38-1,59.946,1.0.0.105,1,-417401897,Professional,2.0.10.353,2.0.10.353,10/24/2018,10/24/2018 16:12,12:12:39,2.0.10.248,2,2,1,2,,,,,,,,TrainingProc,BlockList,11,2,Distractor2.bmp,2,0,,0,1,1279866,401,,0,0,blue,400,1,400,3,horizontal,blue,Distractor1.bmp,lime,Target2.bmp,red,Distractor2.bmp,purple,Distractor2.bmp,cyan,Distractor1.bmp,yellow,Distractor2.bmp,,,,TrialProc,,TrainingTrialList,1,2,-999999,1,1280267,0,2,795,1281062,Target2.bmp,lime,2,,,,2,1,11
KW_Experiment5A,38,1,"<?xml version=""1.0""?>\n<Clock xmlns:dt=""urn:schemas-microsoft-com:datatypes""><Description dt:dt=""string"">E-Prime Primary Realtime Clock</Description><StartTime><Timestamp dt:dt=""int"">0</Timestamp><DateUtc dt:dt=""string"">2018-10-24T16:12:39Z</DateUtc></StartTime><FrequencyChanges><FrequencyChange><Frequency dt:dt=""r8"">3215292</Frequency><Timestamp dt:dt=""r8"">1288072134138</Timestamp><Current dt:dt=""r8"">0</Current><DateUtc dt:dt=""string"">2018-10-24T16:12:39Z</DateUtc></FrequencyChange></FrequencyChanges></Clock>\n",KW_Experiment5A-38-1,59.946,1.0.0.105,1,-417401897,Professional,2.0.10.353,2.0.10.353,10/24/2018,10/24/2018 16:12,12:12:39,2.0.10.248,2,2,1,2,,,,,,,,TrainingProc,BlockList,12,1,Distractor2.bmp,2,0,,0,1,1282085,601,,0,0,blue,600,3,600,3,vertical,blue,Distractor1.bmp,yellow,Distractor1.bmp,lime,Target1.bmp,cyan,Distractor2.bmp,purple,Distractor2.bmp,red,Distractor1.bmp,,,,TrialProc,,TrainingTrialList,1,1,-999999,1,1282686,0,1,624,1283310,Target1.bmp,lime,1,,,,3,1,12
KW_Experiment5A,38,1,"<?xml version=""1.0""?>\n<Clock xmlns:dt=""urn:schemas-microsoft-com:datatypes""><Description dt:dt=""string"">E-Prime Primary Realtime Clock</Description><StartTime><Timestamp dt:dt=""int"">0</Timestamp><DateUtc dt:dt=""string"">2018-10-24T16:12:39Z</DateUtc></StartTime><FrequencyChanges><FrequencyChange><Frequency dt:dt=""r8"">3215292</Frequency><Timestamp dt:dt=""r8"">1288072134138</Timestamp><Current dt:dt=""r8"">0</Current><DateUtc dt:dt=""string"">2018-10-24T16:12:39Z</DateUtc></FrequencyChange></FrequencyChanges></Clock>\n",KW_Experiment5A-38-1,59.946,1.0.0.105,1,-417401897,Professional,2.0.10.353,2.0.10.353,10/24/2018,10/24/2018 16:12,12:12:39,2.0.10.248,2,2,1,2,,,,,,,,TrainingProc,BlockList,13,1,Distractor2.bmp,2,0,,1,0,1284320,601,,0,0,yellow,600,3,600,2,vertical,yellow,Distractor1.bmp,purple,Distractor1.bmp,lime,Target1.bmp,cyan,Distractor2.bmp,blue,Distractor2.bmp,red,Distractor1.bmp,,,,TrialProc,,TrainingTrialList,1,1,-999999,1,1284921,0,1,597,1285518,Target1.bmp,lime,1,,,,3,1,13
KW_Experiment5A,38,1,"<?xml version=""1.0""?>\n<Clock xmlns:dt=""urn:schemas-microsoft-com:datatypes""><Description dt:dt=""string"">E-Prime Primary Realtime Clock</Description><StartTime><Timestamp dt:dt=""int"">0</Timestamp><DateUtc dt:dt=""string"">2018-10-24T16:12:39Z</DateUtc></StartTime><FrequencyChanges><FrequencyChange><Frequency dt:dt=""r8"">3215292</Frequency><Timestamp dt:dt=""r8"">1288072134138</Timestamp><Current dt:dt=""r8"">0</Current><DateUtc dt:dt=""string"">2018-10-24T16:12:39Z</DateUtc></FrequencyChange></FrequencyChanges></Clock>\n",KW_Experiment5A-38-1,59.946,1.0.0.105,1,-417401897,Professional,2.0.10.353,2.0.10.353,10/24/2018,10/24/2018 16:12,12:12:39,2.0.10.248,2,2,1,2,,,,,,,,TrainingProc,BlockList,14,1,Distractor1.bmp,1,0,,0,1,1286539,501,,0,0,yellow,500,2,500,2,vertical,yellow,Distractor2.bmp,cyan,Distractor2.bmp,purple,Distractor2.bmp,blue,Distractor1.bmp,lime,Target1.bmp,red,Distractor1.bmp,,,,TrialProc,,TrainingTrialList,1,1,-999999,1,1287040,0,1,494,1287534,Target1.bmp,lime,1,,,,5,1,14
KW_Experiment5A,38,1,"<?xml version=""1.0""?>\n<Clock xmlns:dt=""urn:schemas-microsoft-com:datatypes""><Description dt:dt=""string"">E-Prime Primary Realtime Clock</Description><StartTime><Timestamp dt:dt=""int"">0</Timestamp><DateUtc dt:dt=""string"">2018-10-24T16:12:39Z</DateUtc></StartTime><FrequencyChanges><FrequencyChange><Frequency dt:dt=""r8"">3215292</Frequency><Timestamp dt:dt=""r8"">1288072134138</Timestamp><Current dt:dt=""r8"">0</Current><DateUtc dt:dt=""string"">2018-10-24T16:12:39Z</DateUtc></FrequencyChange></FrequencyChanges></Clock>\n",KW_Experiment5A-38-1,59.946,1.0.0.105,1,-417401897,Professional,2.0.10.353,2.0.10.353,10/24/2018,10/24/2018 16:12,12:12:39,2.0.10.248,2,2,1,2,,,,,,,,TrainingProc,BlockList,15,1,Distractor1.bmp,1,0,,0,1,1288558,600,,0,0,purple,600,3,600,,vertical,purple,Distractor2.bmp,blue,Distractor2.bmp,lime,Distractor2.bmp,red,Target1.bmp,cyan,Distractor1.bmp,yellow,Distractor1.bmp,,,,TrialProc,5,TrainingTrialList,1,1,-999999,0,1289158,0,1,448,1289606,Target1.bmp,red,1,,,,10,1,15
KW_Experiment5A,38,1,"<?xml version=""1.0""?>\n<Clock xmlns:dt=""urn:schemas-microsoft-com:datatypes""><Description dt:dt=""string"">E-Prime Primary Realtime Clock</Description><StartTime><Timestamp dt:dt=""int"">0</Timestamp><DateUtc dt:dt=""string"">2018-10-24T16:12:39Z</DateUtc></StartTime><FrequencyChanges><FrequencyChange><Frequency dt:dt=""r8"">3215292</Frequency><Timestamp dt:dt=""r8"">1288072134138</Timestamp><Current dt:dt=""r8"">0</Current><DateUtc dt:dt=""string"">2018-10-24T16:12:39Z</DateUtc></FrequencyChange></FrequencyChanges></Clock>\n",KW_Experiment5A-38-1,59.946,1.0.0.105,1,-417401897,Professional,2.0.10.353,2.0.10.353,10/24/2018,10/24/2018 16:12,12:12:39,2.0.10.248,2,2,1,2,,,,,,,,TrainingProc,BlockList,16,2,Distractor2.bmp,2,0,,0,1,1290626,601,,0,0,red,600,3,600,1,horizontal,red,Distractor1.bmp,cyan,Distractor2.bmp,lime,Target2.bmp,purple,Distractor2.bmp,yellow,Distractor1.bmp,blue,Distractor2.bmp,,,,TrialProc,,TrainingTrialList,1,2,-999999,1,1291227,0,2,467,1291694,Target2.bmp,lime,2,,,,3,1,16
KW_Experiment5A,38,1,"<?xml version=""1.0""?>\n<Clock xmlns:dt=""urn:schemas-microsoft-com:datatypes""><Description dt:dt=""string"">E-Prime Primary Realtime Clock</Description><StartTime><Timestamp dt:dt=""int"">0</Timestamp><DateUtc dt:dt=""string"">2018-10-24T16:12:39Z</DateUtc></StartTime><FrequencyChanges><FrequencyChange><Frequency dt:dt=""r8"">3215292</Frequency><Timestamp dt:dt=""r8"">1288072134138</Timestamp><Current dt:dt=""r8"">0</Current><DateUtc dt:dt=""string"">2018-10-24T16:12:39Z</DateUtc></FrequencyChange></FrequencyChanges></Clock>\n",KW_Experiment5A-38-1,59.946,1.0.0.105,1,-417401897,Professional,2.0.10.353,2.0.10.353,10/24/2018,10/24/2018 16:12,12:12:39,2.0.10.248,2,2,1,2,,,,,,,,TrainingProc,BlockList,17,2,Distractor1.bmp,1,0,,0,1,1292711,601,,0,0,cyan,600,3,600,4,horizontal,cyan,Distractor2.bmp,lime,Target2.bmp,red,Distractor1.bmp,yellow,Distractor2.bmp,purple,Distractor2.bmp,blue,Distractor2.bmp,,,,TrialProc,,TrainingTrialList,1,2,-999999,1,1293312,0,2,638,1293950,Target2.bmp,lime,2,,,,2,1,17
KW_Experiment5A,38,1,"<?xml version=""1.0""?>\n<Clock xmlns:dt=""urn:schemas-microsoft-com:datatypes""><Description dt:dt=""string"">E-Prime Primary Realtime Clock</Description><StartTime><Timestamp dt:dt=""int"">0</Timestamp><DateUtc dt:dt=""string"">2018-10-24T16:12:39Z</DateUtc></StartTime><FrequencyChanges><FrequencyChange><Frequency dt:dt=""r8"">3215292</Frequency><Timestamp dt:dt=""r8"">1288072134138</Timestamp><Current dt:dt=""r8"">0</Current><DateUtc dt:dt=""string"">2018-10-24T16:12:39Z</DateUtc></FrequencyChange></FrequencyChanges></Clock>\n",KW_Experiment5A-38-1,59.946,1.0.0.105,1,-417401897,Professional,2.0.10.353,2.0.10.353,10/24/2018,10/24/2018 16:12,12:12:39,2.0.10.248,2,2,1,2,,,,,,,,TrainingProc,BlockList,18,2,Distractor2.bmp,2,0,,1,0,1294963,501,,0,0,yellow,500,2,500,2,horizontal,lime,Target2.bmp,yellow,Distractor2.bmp,red,Distractor2.bmp,purple,Distractor1.bmp,blue,Distractor2.bmp,cyan,Distractor1.bmp,,,,TrialProc,,TrainingTrialList,1,2,-999999,1,1295464,0,2,502,1295966,Target2.bmp,lime,2,,,,1,1,18
KW_Experiment5A,38,1,"<?xml version=""1.0""?>\n<Clock xmlns:dt=""urn:schemas-microsoft-com:datatypes""><Description dt:dt=""string"">E-Prime Primary Realtime Clock</Description><StartTime><Timestamp dt:dt=""int"">0</Timestamp><DateUtc dt:dt=""string"">2018-10-24T16:12:39Z</DateUtc></StartTime><FrequencyChanges><FrequencyChange><Frequency dt:dt=""r8"">3215292</Frequency><Timestamp dt:dt=""r8"">1288072134138</Timestamp><Current dt:dt=""r8"">0</Current><DateUtc dt:dt=""string"">2018-10-24T16:12:39Z</DateUtc></FrequencyChange></FrequencyChanges></Clock>\n",KW_Experiment5A-38-1,59.946,1.0.0.105,1,-417401897,Professional,2.0.10.353,2.0.10.353,10/24/2018,10/24/2018 16:12,12:12:39,2.0.10.248,2,2,1,2,,,,,,,,TrainingProc,BlockList,19,1,Distractor1.bmp,1,0,,0,1,1296982,400,,0,0,purple,400,1,400,,vertical,purple,Distractor2.bmp,red,Target1.bmp,yellow,Distractor1.bmp,cyan,Distractor1.bmp,blue,Distractor2.bmp,lime,Distractor1.bmp,,,,TrialProc,5,TrainingTrialList,1,1,-999999,0,1297382,0,1,672,1298054,Target1.bmp,red,1,,,,8,1,19
KW_Experiment5A,38,1,"<?xml version=""1.0""?>\n<Clock xmlns:dt=""urn:schemas-microsoft-com:datatypes""><Description dt:dt=""string"">E-Prime Primary Realtime Clock</Description><StartTime><Timestamp dt:dt=""int"">0</Timestamp><DateUtc dt:dt=""string"">2018-10-24T16:12:39Z</DateUtc></StartTime><FrequencyChanges><FrequencyChange><Frequency dt:dt=""r8"">3215292</Frequency><Timestamp dt:dt=""r8"">1288072134138</Timestamp><Current dt:dt=""r8"">0</Current><DateUtc dt:dt=""string"">2018-10-24T16:12:39Z</DateUtc></FrequencyChange></FrequencyChanges></Clock>\n",KW_Experiment5A-38-1,59.946,1.0.0.105,1,-417401897,Professional,2.0.10.353,2.0.10.353,10/24/2018,10/24/2018 16:12,12:12:39,2.0.10.248,2,2,1,2,,,,,,,,TrainingProc,BlockList,20,2,Distractor1.bmp,1,0,,0,1,1299067,601,,0,0,cyan,600,3,600,,horizontal,cyan,Distractor1.bmp,purple,Distractor2.bmp,blue,Distractor2.bmp,yellow,Distractor2.bmp,lime,Distractor2.bmp,red,Target2.bmp,,,,TrialProc,4,TrainingTrialList,0,2,-999999,1,1299668,0,1,521,1300189,Target2.bmp,red,2,,,,12,1,20
KW_Experiment5A,38,1,"<?xml version=""1.0""?>\n<Clock xmlns:dt=""urn:schemas-microsoft-com:datatypes""><Description dt:dt=""string"">E-Prime Primary Realtime Clock</Description><StartTime><Timestamp dt:dt=""int"">0</Timestamp><DateUtc dt:dt=""string"">2018-10-24T16:12:39Z</DateUtc></StartTime><FrequencyChanges><FrequencyChange><Frequency dt:dt=""r8"">3215292</Frequency><Timestamp dt:dt=""r8"">1288072134138</Timestamp><Current dt:dt=""r8"">0</Current><DateUtc dt:dt=""string"">2018-10-24T16:12:39Z</DateUtc></FrequencyChange></FrequencyChanges></Clock>\n",KW_Experiment5A-38-1,59.946,1.0.0.105,1,-417401897,Professional,2.0.10.353,2.0.10.353,10/24/2018,10/24/2018 16:12,12:12:39,2.0.10.248,2,2,1,2,,,,,,,,TrainingProc,BlockList,21,1,Distractor2.bmp,2,0,,0,0,1301202,401,,0,0,cyan,400,1,400,4,vertical,lime,Target1.bmp,cyan,Distractor2.bmp,blue,Distractor2.bmp,purple,Distractor2.bmp,yellow,Distractor2.bmp,red,Distractor2.bmp,,,,TrialProc,,TrainingTrialList,1,1,-999999,1,1301603,0,1,818,1302421,Target1.bmp,lime,1,,,,1,1,21
KW_Experiment5A,38,1,"<?xml version=""1.0""?>\n<Clock xmlns:dt=""urn:schemas-microsoft-com:datatypes""><Description dt:dt=""string"">E-Prime Primary Realtime Clock</Description><StartTime><Timestamp dt:dt=""int"">0</Timestamp><DateUtc dt:dt=""string"">2018-10-24T16:12:39Z</DateUtc></StartTime><FrequencyChanges><FrequencyChange><Frequency dt:dt=""r8"">3215292</Frequency><Timestamp dt:dt=""r8"">1288072134138</Timestamp><Current dt:dt=""r8"">0</Current><DateUtc dt:dt=""string"">2018-10-24T16:12:39Z</DateUtc></FrequencyChange></FrequencyChanges></Clock>\n",KW_Experiment5A-38-1,59.946,1.0.0.105,1,-417401897,Professional,2.0.10.353,2.0.10.353,10/24/2018,10/24/2018 16:12,12:12:39,2.0.10.248,2,2,1,2,,,,,,,,TrainingProc,BlockList,22,2,Distractor2.bmp,2,0,,0,1,1303438,400,,0,0,red,400,1,400,1,horizontal,red,Distractor2.bmp,purple,Distractor1.bmp,cyan,Distractor1.bmp,blue,Distractor2.bmp,lime,Target2.bmp,yellow,Distractor2.bmp,,,,TrialProc,,TrainingTrialList,1,2,-999999,0,1303838,0,2,639,1304477,Target2.bmp,lime,2,,,,5,1,22
KW_Experiment5A,38,1,"<?xml version=""1.0""?>\n<Clock xmlns:dt=""urn:schemas-microsoft-com:datatypes""><Description dt:dt=""string"">E-Prime Primary Realtime Clock</Description><StartTime><Timestamp dt:dt=""int"">0</Timestamp><DateUtc dt:dt=""string"">2018-10-24T16:12:39Z</DateUtc></StartTime><FrequencyChanges><FrequencyChange><Frequency dt:dt=""r8"">3215292</Frequency><Timestamp dt:dt=""r8"">1288072134138</Timestamp><Current dt:dt=""r8"">0</Current><DateUtc dt:dt=""string"">2018-10-24T16:12:39Z</DateUtc></FrequencyChange></FrequencyChanges></Clock>\n",KW_Experiment5A-38-1,59.946,1.0.0.105,1,-417401897,Professional,2.0.10.353,2.0.10.353,10/24/2018,10/24/2018 16:12,12:12:39,2.0.10.248,2,2,1,2,,,,,,,,TrainingProc,BlockList,23,1,Distractor2.bmp,2,0,,0,1,1305490,400,,0,0,purple,400,1,400,5,vertical,purple,Distractor2.bmp,cyan,Distractor2.bmp,blue,Distractor2.bmp,yellow,Distractor1.bmp,red,Distractor1.bmp,lime,Target1.bmp,,,,TrialProc,,TrainingTrialList,0,1,-999999,0,1305890,0,2,907,1306797,Target1.bmp,lime,1,,,,6,1,23
KW_Experiment5A,38,1,"<?xml version=""1.0""?>\n<Clock xmlns:dt=""urn:schemas-microsoft-com:datatypes""><Description dt:dt=""string"">E-Prime Primary Realtime Clock</Description><StartTime><Timestamp dt:dt=""int"">0</Timestamp><DateUtc dt:dt=""string"">2018-10-24T16:12:39Z</DateUtc></StartTime><FrequencyChanges><FrequencyChange><Frequency dt:dt=""r8"">3215292</Frequency><Timestamp dt:dt=""r8"">1288072134138</Timestamp><Current dt:dt=""r8"">0</Current><DateUtc dt:dt=""string"">2018-10-24T16:12:39Z</DateUtc></FrequencyChange></FrequencyChanges></Clock>\n",KW_Experiment5A-38-1,59.946,1.0.0.105,1,-417401897,Professional,2.0.10.353,2.0.10.353,10/24/2018,10/24/2018 16:12,12:12:39,2.0.10.248,2,2,1,2,,,,,,,,TrainingProc,BlockList,24,2,Distractor2.bmp,2,0,,0,0,1307808,601,,0,0,yellow,600,3,600,2,horizontal,lime,Target2.bmp,yellow,Distractor2.bmp,red,Distractor1.bmp,blue,Distractor2.bmp,purple,Distractor2.bmp,cyan,Distractor1.bmp,,,,TrialProc,,TrainingTrialList,0,2,-999999,1,1308409,0,1,924,1309333,Target2.bmp,lime,2,,,,1,1,24
KW_Experiment5A,38,1,"<?xml version=""1.0""?>\n<Clock xmlns:dt=""urn:schemas-microsoft-com:datatypes""><Description dt:dt=""string"">E-Prime Primary Realtime Clock</Description><StartTime><Timestamp dt:dt=""int"">0</Timestamp><DateUtc dt:dt=""string"">2018-10-24T16:12:39Z</DateUtc></StartTime><FrequencyChanges><FrequencyChange><Frequency dt:dt=""r8"">3215292</Frequency><Timestamp dt:dt=""r8"">1288072134138</Timestamp><Current dt:dt=""r8"">0</Current><DateUtc dt:dt=""string"">2018-10-24T16:12:39Z</DateUtc></FrequencyChange></FrequencyChanges></Clock>\n",KW_Experiment5A-38-1,59.946,1.0.0.105,1,-417401897,Professional,2.0.10.353,2.0.10.353,10/24/2018,10/24/2018 16:12,12:12:39,2.0.10.248,2,2,1,2,,,,,,,,TrainingProc,BlockList,25,2,Distractor2.bmp,2,0,,0,1,1310344,400,,0,0,purple,400,1,400,,horizontal,purple,Distractor2.bmp,lime,Distractor2.bmp,red,Target2.bmp,yellow,Distractor2.bmp,blue,Distractor1.bmp,cyan,Distractor2.bmp,,,,TrialProc,5,TrainingTrialList,1,2,-999999,0,1310744,0,2,773,1311517,Target2.bmp,red,2,,,,9,2,25
KW_Experiment5A,38,1,"<?xml version=""1.0""?>\n<Clock xmlns:dt=""urn:schemas-microsoft-com:datatypes""><Description dt:dt=""string"">E-Prime Primary Realtime Clock</Description><StartTime><Timestamp dt:dt=""int"">0</Timestamp><DateUtc dt:dt=""string"">2018-10-24T16:12:39Z</DateUtc></StartTime><FrequencyChanges><FrequencyChange><Frequency dt:dt=""r8"">3215292</Frequency><Timestamp dt:dt=""r8"">1288072134138</Timestamp><Current dt:dt=""r8"">0</Current><DateUtc dt:dt=""string"">2018-10-24T16:12:39Z</DateUtc></FrequencyChange></FrequencyChanges></Clock>\n",KW_Experiment5A-38-1,59.946,1.0.0.105,1,-417401897,Professional,2.0.10.353,2.0.10.353,10/24/2018,10/24/2018 16:12,12:12:39,2.0.10.248,2,2,1,2,,,,,,,,TrainingProc,BlockList,26,2,Distractor2.bmp,2,0,,0,1,1312529,501,,0,0,yellow,500,2,500,,horizontal,yellow,Distractor1.bmp,cyan,Distractor2.bmp,purple,Distractor2.bmp,lime,Distractor2.bmp,red,Target2.bmp,blue,Distractor2.bmp,,,,TrialProc,2,TrainingTrialList,1,2,-999999,1,1313030,0,2,599,1313629,Target2.bmp,red,2,,,,11,2,26
KW_Experiment5A,38,1,"<?xml version=""1.0""?>\n<Clock xmlns:dt=""urn:schemas-microsoft-com:datatypes""><Description dt:dt=""string"">E-Prime Primary Realtime Clock</Description><StartTime><Timestamp dt:dt=""int"">0</Timestamp><DateUtc dt:dt=""string"">2018-10-24T16:12:39Z</DateUtc></StartTime><FrequencyChanges><FrequencyChange><Frequency dt:dt=""r8"">3215292</Frequency><Timestamp dt:dt=""r8"">1288072134138</Timestamp><Current dt:dt=""r8"">0</Current><DateUtc dt:dt=""string"">2018-10-24T16:12:39Z</DateUtc></FrequencyChange></FrequencyChanges></Clock>\n",KW_Experiment5A-38-1,59.946,1.0.0.105,1,-417401897,Professional,2.0.10.353,2.0.10.353,10/24/2018,10/24/2018 16:12,12:12:39,2.0.10.248,2,2,1,2,,,,,,,,TrainingProc,BlockList,27,1,Distractor2.bmp,2,0,,0,1,1314648,400,,0,0,red,400,1,400,1,vertical,red,Distractor2.bmp,purple,Distractor1.bmp,cyan,Distractor1.bmp,lime,Target1.bmp,yellow,Distractor2.bmp,blue,Distractor1.bmp,,,,TrialProc,,TrainingTrialList,1,1,-999999,0,1315048,0,1,669,1315717,Target1.bmp,lime,1,,,,4,2,27
KW_Experiment5A,38,1,"<?xml version=""1.0""?>\n<Clock xmlns:dt=""urn:schemas-microsoft-com:datatypes""><Description dt:dt=""string"">E-Prime Primary Realtime Clock</Description><StartTime><Timestamp dt:dt=""int"">0</Timestamp><DateUtc dt:dt=""string"">2018-10-24T16:12:39Z</DateUtc></StartTime><FrequencyChanges><FrequencyChange><Frequency dt:dt=""r8"">3215292</Frequency><Timestamp dt:dt=""r8"">1288072134138</Timestamp><Current dt:dt=""r8"">0</Current><DateUtc dt:dt=""string"">2018-10-24T16:12:39Z</DateUtc></FrequencyChange></FrequencyChanges></Clock>\n",KW_Experiment5A-38-1,59.946,1.0.0.105,1,-417401897,Professional,2.0.10.353,2.0.10.353,10/24/2018,10/24/2018 16:12,12:12:39,2.0.10.248,2,2,1,2,,,,,,,,TrainingProc,BlockList,28,2,Distractor2.bmp,2,0,,0,1,1316733,401,,0,0,blue,400,1,400,3,horizontal,blue,Distractor2.bmp,red,Distractor2.bmp,lime,Target2.bmp,yellow,Distractor2.bmp,cyan,Distractor2.bmp,purple,Distractor2.bmp,,,,TrialProc,,TrainingTrialList,1,2,-999999,1,1317134,0,2,575,1317709,Target2.bmp,lime,2,,,,3,2,28
KW_Experiment5A,38,1,"<?xml version=""1.0""?>\n<Clock xmlns:dt=""urn:schemas-microsoft-com:datatypes""><Description dt:dt=""string"">E-Prime Primary Realtime Clock</Description><StartTime><Timestamp dt:dt=""int"">0</Timestamp><DateUtc dt:dt=""string"">2018-10-24T16:12:39Z</DateUtc></StartTime><FrequencyChanges><FrequencyChange><Frequency dt:dt=""r8"">3215292</Frequency><Timestamp dt:dt=""r8"">1288072134138</Timestamp><Current dt:dt=""r8"">0</Current><DateUtc dt:dt=""string"">2018-10-24T16:12:39Z</DateUtc></FrequencyChange></FrequencyChanges></Clock>\n",KW_Experiment5A-38-1,59.946,1.0.0.105,1,-417401897,Professional,2.0.10.353,2.0.10.353,10/24/2018,10/24/2018 16:12,12:12:39,2.0.10.248,2,2,1,2,,,,,,,,TrainingProc,BlockList,29,2,Distractor2.bmp,2,0,,0,1,1318718,601,,0,0,lime,600,3,600,,horizontal,lime,Distractor1.bmp,yellow,Distractor2.bmp,cyan,Distractor1.bmp,red,Target2.bmp,purple,Distractor2.bmp,blue,Distractor1.bmp,,,,TrialProc,6,TrainingTrialList,1,2,-999999,1,1319319,0,2,486,1319805,Target2.bmp,red,2,,,,10,2,29
KW_Experiment5A,38,1,"<?xml version=""1.0""?>\n<Clock xmlns:dt=""urn:schemas-microsoft-com:datatypes""><Description dt:dt=""string"">E-Prime Primary Realtime Clock</Description><StartTime><Timestamp dt:dt=""int"">0</Timestamp><DateUtc dt:dt=""string"">2018-10-24T16:12:39Z</DateUtc></StartTime><FrequencyChanges><FrequencyChange><Frequency dt:dt=""r8"">3215292</Frequency><Timestamp dt:dt=""r8"">1288072134138</Timestamp><Current dt:dt=""r8"">0</Current><DateUtc dt:dt=""string"">2018-10-24T16:12:39Z</DateUtc></FrequencyChange></FrequencyChanges></Clock>\n",KW_Experiment5A-38-1,59.946,1.0.0.105,1,-417401897,Professional,2.0.10.353,2.0.10.353,10/24/2018,10/24/2018 16:12,12:12:39,2.0.10.248,2,2,1,2,,,,,,,,TrainingProc,BlockList,30,2,Distractor1.bmp,1,0,,0,1,1320820,501,,0,0,purple,500,2,500,5,horizontal,lime,Target2.bmp,purple,Distractor1.bmp,yellow,Distractor2.bmp,cyan,Distractor1.bmp,red,Distractor2.bmp,blue,Distractor2.bmp,,,,TrialProc,,TrainingTrialList,1,2,-999999,1,1321321,0,2,468,1321789,Target2.bmp,lime,2,,,,1,2,30
KW_Experiment5A,38,1,"<?xml version=""1.0""?>\n<Clock xmlns:dt=""urn:schemas-microsoft-com:datatypes""><Description dt:dt=""string"">E-Prime Primary Realtime Clock</Description><StartTime><Timestamp dt:dt=""int"">0</Timestamp><DateUtc dt:dt=""string"">2018-10-24T16:12:39Z</DateUtc></StartTime><FrequencyChanges><FrequencyChange><Frequency dt:dt=""r8"">3215292</Frequency><Timestamp dt:dt=""r8"">1288072134138</Timestamp><Current dt:dt=""r8"">0</Current><DateUtc dt:dt=""string"">2018-10-24T16:12:39Z</DateUtc></FrequencyChange></FrequencyChanges></Clock>\n",KW_Experiment5A-38-1,59.946,1.0.0.105,1,-417401897,Professional,2.0.10.353,2.0.10.353,10/24/2018,10/24/2018 16:12,12:12:39,2.0.10.248,2,2,1,2,,,,,,,,TrainingProc,BlockList,31,1,Distractor1.bmp,1,0,,0,1,1322805,401,,0,0,red,400,1,400,1,vertical,red,Distractor1.bmp,blue,Distractor2.bmp,cyan,Distractor2.bmp,purple,Distractor1.bmp,yellow,Distractor2.bmp,lime,Target1.bmp,,,,TrialProc,,TrainingTrialList,1,1,-999999,1,1323206,0,1,639,1323845,Target1.bmp,lime,1,,,,6,2,31
KW_Experiment5A,38,1,"<?xml version=""1.0""?>\n<Clock xmlns:dt=""urn:schemas-microsoft-com:datatypes""><Description dt:dt=""string"">E-Prime Primary Realtime Clock</Description><StartTime><Timestamp dt:dt=""int"">0</Timestamp><DateUtc dt:dt=""string"">2018-10-24T16:12:39Z</DateUtc></StartTime><FrequencyChanges><FrequencyChange><Frequency dt:dt=""r8"">3215292</Frequency><Timestamp dt:dt=""r8"">1288072134138</Timestamp><Current dt:dt=""r8"">0</Current><DateUtc dt:dt=""string"">2018-10-24T16:12:39Z</DateUtc></FrequencyChange></FrequencyChanges></Clock>\n",KW_Experiment5A-38-1,59.946,1.0.0.105,1,-417401897,Professional,2.0.10.353,2.0.10.353,10/24/2018,10/24/2018 16:12,12:12:39,2.0.10.248,2,2,1,2,,,,,,,,TrainingProc,BlockList,32,2,Distractor2.bmp,2,0,,0,1,1324857,501,,0,0,red,500,2,500,1,horizontal,red,Distractor2.bmp,lime,Target2.bmp,cyan,Distractor2.bmp,blue,Distractor2.bmp,purple,Distractor1.bmp,yellow,Distractor1.bmp,,,,TrialProc,,TrainingTrialList,1,2,-999999,1,1325358,0,2,399,1325757,Target2.bmp,lime,2,,,,2,2,32
KW_Experiment5A,38,1,"<?xml version=""1.0""?>\n<Clock xmlns:dt=""urn:schemas-microsoft-com:datatypes""><Description dt:dt=""string"">E-Prime Primary Realtime Clock</Description><StartTime><Timestamp dt:dt=""int"">0</Timestamp><DateUtc dt:dt=""string"">2018-10-24T16:12:39Z</DateUtc></StartTime><FrequencyChanges><FrequencyChange><Frequency dt:dt=""r8"">3215292</Frequency><Timestamp dt:dt=""r8"">1288072134138</Timestamp><Current dt:dt=""r8"">0</Current><DateUtc dt:dt=""string"">2018-10-24T16:12:39Z</DateUtc></FrequencyChange></FrequencyChanges></Clock>\n",KW_Experiment5A-38-1,59.946,1.0.0.105,1,-417401897,Professional,2.0.10.353,2.0.10.353,10/24/2018,10/24/2018 16:12,12:12:39,2.0.10.248,2,2,1,2,,,,,,,,TrainingProc,BlockList,33,1,Distractor2.bmp,2,0,,0,1,1326776,500,,0,0,purple,500,2,500,,vertical,purple,Distractor1.bmp,red,Target1.bmp,blue,Distractor2.bmp,cyan,Distractor2.bmp,yellow,Distractor1.bmp,lime,Distractor2.bmp,,,,TrialProc,5,TrainingTrialList,1,1,-999999,0,1327276,0,1,745,1328021,Target1.bmp,red,1,,,,8,2,33
KW_Experiment5A,38,1,"<?xml version=""1.0""?>\n<Clock xmlns:dt=""urn:schemas-microsoft-com:datatypes""><Description dt:dt=""string"">E-Prime Primary Realtime Clock</Description><StartTime><Timestamp dt:dt=""int"">0</Timestamp><DateUtc dt:dt=""string"">2018-10-24T16:12:39Z</DateUtc></StartTime><FrequencyChanges><FrequencyChange><Frequency dt:dt=""r8"">3215292</Frequency><Timestamp dt:dt=""r8"">1288072134138</Timestamp><Current dt:dt=""r8"">0</Current><DateUtc dt:dt=""string"">2018-10-24T16:12:39Z</DateUtc></FrequencyChange></FrequencyChanges></Clock>\n",KW_Experiment5A-38-1,59.946,1.0.0.105,1,-417401897,Professional,2.0.10.353,2.0.10.353,10/24/2018,10/24/2018 16:12,12:12:39,2.0.10.248,2,2,1,2,,,,,,,,TrainingProc,BlockList,34,1,Distractor2.bmp,2,0,,0,1,1329044,601,,0,0,red,600,3,600,1,vertical,red,Distractor2.bmp,blue,Distractor2.bmp,cyan,Distractor2.bmp,yellow,Distractor2.bmp,purple,Distractor2.bmp,lime,Target1.bmp,,,,TrialProc,,TrainingTrialList,0,1,-999999,1,1329645,0,2,496,1330141,Target1.bmp,lime,1,,,,6,2,34
KW_Experiment5A,38,1,"<?xml version=""1.0""?>\n<Clock xmlns:dt=""urn:schemas-microsoft-com:datatypes""><Description dt:dt=""string"">E-Prime Primary Realtime Clock</Description><StartTime><Timestamp dt:dt=""int"">0</Timestamp><DateUtc dt:dt=""string"">2018-10-24T16:12:39Z</DateUtc></StartTime><FrequencyChanges><FrequencyChange><Frequency dt:dt=""r8"">3215292</Frequency><Timestamp dt:dt=""r8"">1288072134138</Timestamp><Current dt:dt=""r8"">0</Current><DateUtc dt:dt=""string"">2018-10-24T16:12:39Z</DateUtc></FrequencyChange></FrequencyChanges></Clock>\n",KW_Experiment5A-38-1,59.946,1.0.0.105,1,-417401897,Professional,2.0.10.353,2.0.10.353,10/24/2018,10/24/2018 16:12,12:12:39,2.0.10.248,2,2,1,2,,,,,,,,TrainingProc,BlockList,35,1,Distractor2.bmp,2,0,,0,1,1331163,600,,0,0,purple,600,3,600,5,vertical,purple,Distractor2.bmp,yellow,Distractor2.bmp,lime,Target1.bmp,red,Distractor2.bmp,blue,Distractor2.bmp,cyan,Distractor1.bmp,,,,TrialProc,,TrainingTrialList,0,1,-999999,0,1331763,0,2,570,1332333,Target1.bmp,lime,1,,,,3,2,35
KW_Experiment5A,38,1,"<?xml version=""1.0""?>\n<Clock xmlns:dt=""urn:schemas-microsoft-com:datatypes""><Description dt:dt=""string"">E-Prime Primary Realtime Clock</Description><StartTime><Timestamp dt:dt=""int"">0</Timestamp><DateUtc dt:dt=""string"">2018-10-24T16:12:39Z</DateUtc></StartTime><FrequencyChanges><FrequencyChange><Frequency dt:dt=""r8"">3215292</Frequency><Timestamp dt:dt=""r8"">1288072134138</Timestamp><Current dt:dt=""r8"">0</Current><DateUtc dt:dt=""string"">2018-10-24T16:12:39Z</DateUtc></FrequencyChange></FrequencyChanges></Clock>\n",KW_Experiment5A-38-1,59.946,1.0.0.105,1,-417401897,Professional,2.0.10.353,2.0.10.353,10/24/2018,10/24/2018 16:12,12:12:39,2.0.10.248,2,2,1,2,,,,,,,,TrainingProc,BlockList,36,1,Distractor1.bmp,1,0,,0,1,1333348,401,,0,0,purple,400,1,400,5,vertical,lime,Target1.bmp,purple,Distractor1.bmp,yellow,Distractor2.bmp,red,Distractor2.bmp,blue,Distractor2.bmp,cyan,Distractor1.bmp,,,,TrialProc,,TrainingTrialList,0,1,-999999,1,1333749,0,2,784,1334533,Target1.bmp,lime,1,,,,1,2,36
KW_Experiment5A,38,1,"<?xml version=""1.0""?>\n<Clock xmlns:dt=""urn:schemas-microsoft-com:datatypes""><Description dt:dt=""string"">E-Prime Primary Realtime Clock</Description><StartTime><Timestamp dt:dt=""int"">0</Timestamp><DateUtc dt:dt=""string"">2018-10-24T16:12:39Z</DateUtc></StartTime><FrequencyChanges><FrequencyChange><Frequency dt:dt=""r8"">3215292</Frequency><Timestamp dt:dt=""r8"">1288072134138</Timestamp><Current dt:dt=""r8"">0</Current><DateUtc dt:dt=""string"">2018-10-24T16:12:39Z</DateUtc></FrequencyChange></FrequencyChanges></Clock>\n",KW_Experiment5A-38-1,59.946,1.0.0.105,1,-417401897,Professional,2.0.10.353,2.0.10.353,10/24/2018,10/24/2018 16:12,12:12:39,2.0.10.248,2,2,1,2,,,,,,,,TrainingProc,BlockList,37,1,Distractor2.bmp,2,0,,0,1,1335550,501,,0,0,cyan,500,2,500,4,vertical,cyan,Distractor2.bmp,lime,Target1.bmp,red,Distractor2.bmp,purple,Distractor1.bmp,yellow,Distractor2.bmp,blue,Distractor1.bmp,,,,TrialProc,,TrainingTrialList,1,1,-999999,1,1336051,0,1,858,1336909,Target1.bmp,lime,1,,,,2,2,37
KW_Experiment5A,38,1,"<?xml version=""1.0""?>\n<Clock xmlns:dt=""urn:schemas-microsoft-com:datatypes""><Description dt:dt=""string"">E-Prime Primary Realtime Clock</Description><StartTime><Timestamp dt:dt=""int"">0</Timestamp><DateUtc dt:dt=""string"">2018-10-24T16:12:39Z</DateUtc></StartTime><FrequencyChanges><FrequencyChange><Frequency dt:dt=""r8"">3215292</Frequency><Timestamp dt:dt=""r8"">1288072134138</Timestamp><Current dt:dt=""r8"">0</Current><DateUtc dt:dt=""string"">2018-10-24T16:12:39Z</DateUtc></FrequencyChange></FrequencyChanges></Clock>\n",KW_Experiment5A-38-1,59.946,1.0.0.105,1,-417401897,Professional,2.0.10.353,2.0.10.353,10/24/2018,10/24/2018 16:12,12:12:39,2.0.10.248,2,2,1,2,,,,,,,,TrainingProc,BlockList,38,2,Distractor2.bmp,2,0,,0,1,1337919,501,,0,0,cyan,500,2,500,4,horizontal,cyan,Distractor1.bmp,yellow,Distractor1.bmp,purple,Distractor1.bmp,red,Distractor1.bmp,lime,Target2.bmp,blue,Distractor2.bmp,,,,TrialProc,,TrainingTrialList,1,2,-999999,1,1338420,0,2,537,1338957,Target2.bmp,lime,2,,,,5,2,38
KW_Experiment5A,38,1,"<?xml version=""1.0""?>\n<Clock xmlns:dt=""urn:schemas-microsoft-com:datatypes""><Description dt:dt=""string"">E-Prime Primary Realtime Clock</Description><StartTime><Timestamp dt:dt=""int"">0</Timestamp><DateUtc dt:dt=""string"">2018-10-24T16:12:39Z</DateUtc></StartTime><FrequencyChanges><FrequencyChange><Frequency dt:dt=""r8"">3215292</Frequency><Timestamp dt:dt=""r8"">1288072134138</Timestamp><Current dt:dt=""r8"">0</Current><DateUtc dt:dt=""string"">2018-10-24T16:12:39Z</DateUtc></FrequencyChange></FrequencyChanges></Clock>\n",KW_Experiment5A-38-1,59.946,1.0.0.105,1,-417401897,Professional,2.0.10.353,2.0.10.353,10/24/2018,10/24/2018 16:12,12:12:39,2.0.10.248,2,2,1,2,,,,,,,,TrainingProc,BlockList,39,2,Distractor1.bmp,1,0,,0,1,1339971,600,,0,0,cyan,600,3,600,4,horizontal,lime,Target2.bmp,cyan,Distractor1.bmp,red,Distractor1.bmp,purple,Distractor1.bmp,blue,Distractor2.bmp,yellow,Distractor2.bmp,,,,TrialProc,,TrainingTrialList,1,2,-999999,0,1340571,0,2,721,1341292,Target2.bmp,lime,2,,,,1,2,39
KW_Experiment5A,38,1,"<?xml version=""1.0""?>\n<Clock xmlns:dt=""urn:schemas-microsoft-com:datatypes""><Description dt:dt=""string"">E-Prime Primary Realtime Clock</Description><StartTime><Timestamp dt:dt=""int"">0</Timestamp><DateUtc dt:dt=""string"">2018-10-24T16:12:39Z</DateUtc></StartTime><FrequencyChanges><FrequencyChange><Frequency dt:dt=""r8"">3215292</Frequency><Timestamp dt:dt=""r8"">1288072134138</Timestamp><Current dt:dt=""r8"">0</Current><DateUtc dt:dt=""string"">2018-10-24T16:12:39Z</DateUtc></FrequencyChange></FrequencyChanges></Clock>\n",KW_Experiment5A-38-1,59.946,1.0.0.105,1,-417401897,Professional,2.0.10.353,2.0.10.353,10/24/2018,10/24/2018 16:12,12:12:39,2.0.10.248,2,2,1,2,,,,,,,,TrainingProc,BlockList,40,1,Distractor1.bmp,1,0,,0,1,1342306,401,,0,0,purple,400,1,400,5,vertical,purple,Distractor1.bmp,yellow,Distractor2.bmp,red,Distractor2.bmp,lime,Target1.bmp,blue,Distractor1.bmp,cyan,Distractor1.bmp,,,,TrialProc,,TrainingTrialList,1,1,-999999,1,1342707,0,1,801,1343508,Target1.bmp,lime,1,,,,4,2,40
KW_Experiment5A,38,1,"<?xml version=""1.0""?>\n<Clock xmlns:dt=""urn:schemas-microsoft-com:datatypes""><Description dt:dt=""string"">E-Prime Primary Realtime Clock</Description><StartTime><Timestamp dt:dt=""int"">0</Timestamp><DateUtc dt:dt=""string"">2018-10-24T16:12:39Z</DateUtc></StartTime><FrequencyChanges><FrequencyChange><Frequency dt:dt=""r8"">3215292</Frequency><Timestamp dt:dt=""r8"">1288072134138</Timestamp><Current dt:dt=""r8"">0</Current><DateUtc dt:dt=""string"">2018-10-24T16:12:39Z</DateUtc></FrequencyChange></FrequencyChanges></Clock>\n",KW_Experiment5A-38-1,59.946,1.0.0.105,1,-417401897,Professional,2.0.10.353,2.0.10.353,10/24/2018,10/24/2018 16:12,12:12:39,2.0.10.248,2,2,1,2,,,,,,,,TrainingProc,BlockList,41,2,Distractor1.bmp,1,0,,0,1,1344525,601,,0,0,blue,600,3,600,3,horizontal,blue,Distractor2.bmp,lime,Target2.bmp,purple,Distractor1.bmp,yellow,Distractor1.bmp,red,Distractor2.bmp,cyan,Distractor1.bmp,,,,TrialProc,,TrainingTrialList,1,2,-999999,1,1345126,0,2,438,1345564,Target2.bmp,lime,2,,,,2,2,41
KW_Experiment5A,38,1,"<?xml version=""1.0""?>\n<Clock xmlns:dt=""urn:schemas-microsoft-com:datatypes""><Description dt:dt=""string"">E-Prime Primary Realtime Clock</Description><StartTime><Timestamp dt:dt=""int"">0</Timestamp><DateUtc dt:dt=""string"">2018-10-24T16:12:39Z</DateUtc></StartTime><FrequencyChanges><FrequencyChange><Frequency dt:dt=""r8"">3215292</Frequency><Timestamp dt:dt=""r8"">1288072134138</Timestamp><Current dt:dt=""r8"">0</Current><DateUtc dt:dt=""string"">2018-10-24T16:12:39Z</DateUtc></FrequencyChange></FrequencyChanges></Clock>\n",KW_Experiment5A-38-1,59.946,1.0.0.105,1,-417401897,Professional,2.0.10.353,2.0.10.353,10/24/2018,10/24/2018 16:12,12:12:39,2.0.10.248,2,2,1,2,,,,,,,,TrainingProc,BlockList,42,2,Distractor1.bmp,1,0,,0,1,1346577,500,,0,0,red,500,2,500,1,horizontal,red,Distractor2.bmp,yellow,Distractor2.bmp,purple,Distractor2.bmp,cyan,Distractor2.bmp,lime,Target2.bmp,blue,Distractor1.bmp,,,,TrialProc,,TrainingTrialList,0,2,-999999,0,1347077,0,1,511,1347588,Target2.bmp,lime,2,,,,5,2,42
KW_Experiment5A,38,1,"<?xml version=""1.0""?>\n<Clock xmlns:dt=""urn:schemas-microsoft-com:datatypes""><Description dt:dt=""string"">E-Prime Primary Realtime Clock</Description><StartTime><Timestamp dt:dt=""int"">0</Timestamp><DateUtc dt:dt=""string"">2018-10-24T16:12:39Z</DateUtc></StartTime><FrequencyChanges><FrequencyChange><Frequency dt:dt=""r8"">3215292</Frequency><Timestamp dt:dt=""r8"">1288072134138</Timestamp><Current dt:dt=""r8"">0</Current><DateUtc dt:dt=""string"">2018-10-24T16:12:39Z</DateUtc></FrequencyChange></FrequencyChanges></Clock>\n",KW_Experiment5A-38-1,59.946,1.0.0.105,1,-417401897,Professional,2.0.10.353,2.0.10.353,10/24/2018,10/24/2018 16:12,12:12:39,2.0.10.248,2,2,1,2,,,,,,,,TrainingProc,BlockList,43,1,Distractor1.bmp,1,0,,0,1,1348612,601,,0,0,cyan,600,3,600,4,vertical,cyan,Distractor1.bmp,yellow,Distractor2.bmp,blue,Distractor1.bmp,purple,Distractor1.bmp,lime,Target1.bmp,red,Distractor1.bmp,,,,TrialProc,,TrainingTrialList,1,1,-999999,1,1349213,0,1,639,1349852,Target1.bmp,lime,1,,,,5,2,43
KW_Experiment5A,38,1,"<?xml version=""1.0""?>\n<Clock xmlns:dt=""urn:schemas-microsoft-com:datatypes""><Description dt:dt=""string"">E-Prime Primary Realtime Clock</Description><StartTime><Timestamp dt:dt=""int"">0</Timestamp><DateUtc dt:dt=""string"">2018-10-24T16:12:39Z</DateUtc></StartTime><FrequencyChanges><FrequencyChange><Frequency dt:dt=""r8"">3215292</Frequency><Timestamp dt:dt=""r8"">1288072134138</Timestamp><Current dt:dt=""r8"">0</Current><DateUtc dt:dt=""string"">2018-10-24T16:12:39Z</DateUtc></FrequencyChange></FrequencyChanges></Clock>\n",KW_Experiment5A-38-1,59.946,1.0.0.105,1,-417401897,Professional,2.0.10.353,2.0.10.353,10/24/2018,10/24/2018 16:12,12:12:39,2.0.10.248,2,2,1,2,,,,,,,,TrainingProc,BlockList,44,2,Distractor1.bmp,1,0,,0,1,1350864,601,,0,0,red,600,3,600,1,horizontal,red,Distractor2.bmp,blue,Distractor1.bmp,yellow,Distractor1.bmp,lime,Target2.bmp,cyan,Distractor1.bmp,purple,Distractor2.bmp,,,,TrialProc,,TrainingTrialList,1,2,-999999,1,1351465,0,2,659,1352124,Target2.bmp,lime,2,,,,4,2,44
KW_Experiment5A,38,1,"<?xml version=""1.0""?>\n<Clock xmlns:dt=""urn:schemas-microsoft-com:datatypes""><Description dt:dt=""string"">E-Prime Primary Realtime Clock</Description><StartTime><Timestamp dt:dt=""int"">0</Timestamp><DateUtc dt:dt=""string"">2018-10-24T16:12:39Z</DateUtc></StartTime><FrequencyChanges><FrequencyChange><Frequency dt:dt=""r8"">3215292</Frequency><Timestamp dt:dt=""r8"">1288072134138</Timestamp><Current dt:dt=""r8"">0</Current><DateUtc dt:dt=""string"">2018-10-24T16:12:39Z</DateUtc></FrequencyChange></FrequencyChanges></Clock>\n",KW_Experiment5A-38-1,59.946,1.0.0.105,1,-417401897,Professional,2.0.10.353,2.0.10.353,10/24/2018,10/24/2018 16:12,12:12:39,2.0.10.248,2,2,1,2,,,,,,,,TrainingProc,BlockList,45,2,Distractor2.bmp,2,0,,0,1,1353150,400,,0,0,red,400,1,400,1,horizontal,red,Distractor2.bmp,purple,Distractor2.bmp,cyan,Distractor2.bmp,yellow,Distractor2.bmp,blue,Distractor1.bmp,lime,Target2.bmp,,,,TrialProc,,TrainingTrialList,1,2,-999999,0,1353550,0,2,462,1354012,Target2.bmp,lime,2,,,,6,2,45
KW_Experiment5A,38,1,"<?xml version=""1.0""?>\n<Clock xmlns:dt=""urn:schemas-microsoft-com:datatypes""><Description dt:dt=""string"">E-Prime Primary Realtime Clock</Description><StartTime><Timestamp dt:dt=""int"">0</Timestamp><DateUtc dt:dt=""string"">2018-10-24T16:12:39Z</DateUtc></StartTime><FrequencyChanges><FrequencyChange><Frequency dt:dt=""r8"">3215292</Frequency><Timestamp dt:dt=""r8"">1288072134138</Timestamp><Current dt:dt=""r8"">0</Current><DateUtc dt:dt=""string"">2018-10-24T16:12:39Z</DateUtc></FrequencyChange></FrequencyChanges></Clock>\n",KW_Experiment5A-38-1,59.946,1.0.0.105,1,-417401897,Professional,2.0.10.353,2.0.10.353,10/24/2018,10/24/2018 16:12,12:12:39,2.0.10.248,2,2,1,2,,,,,,,,TrainingProc,BlockList,46,1,Distractor1.bmp,1,0,,0,1,1355035,600,,0,0,blue,600,3,600,,vertical,blue,Distractor1.bmp,lime,Distractor2.bmp,purple,Distractor2.bmp,cyan,Distractor2.bmp,yellow,Distractor2.bmp,red,Target1.bmp,,,,TrialProc,3,TrainingTrialList,1,1,-999999,0,1355635,0,1,385,1356020,Target1.bmp,red,1,,,,12,2,46
KW_Experiment5A,38,1,"<?xml version=""1.0""?>\n<Clock xmlns:dt=""urn:schemas-microsoft-com:datatypes""><Description dt:dt=""string"">E-Prime Primary Realtime Clock</Description><StartTime><Timestamp dt:dt=""int"">0</Timestamp><DateUtc dt:dt=""string"">2018-10-24T16:12:39Z</DateUtc></StartTime><FrequencyChanges><FrequencyChange><Frequency dt:dt=""r8"">3215292</Frequency><Timestamp dt:dt=""r8"">1288072134138</Timestamp><Current dt:dt=""r8"">0</Current><DateUtc dt:dt=""string"">2018-10-24T16:12:39Z</DateUtc></FrequencyChange></FrequencyChanges></Clock>\n",KW_Experiment5A-38-1,59.946,1.0.0.105,1,-417401897,Professional,2.0.10.353,2.0.10.353,10/24/2018,10/24/2018 16:12,12:12:39,2.0.10.248,2,2,1,2,,,,,,,,TrainingProc,BlockList,47,2,Distractor2.bmp,2,0,,1,1,1357036,601,,0,0,blue,600,3,600,,horizontal,red,Target2.bmp,cyan,Distractor2.bmp,purple,Distractor1.bmp,yellow,Distractor2.bmp,lime,Distractor1.bmp,blue,Distractor2.bmp,,,,TrialProc,3,TrainingTrialList,1,2,-999999,1,1357637,0,2,455,1358092,Target2.bmp,red,2,,,,7,2,47
KW_Experiment5A,38,1,"<?xml version=""1.0""?>\n<Clock xmlns:dt=""urn:schemas-microsoft-com:datatypes""><Description dt:dt=""string"">E-Prime Primary Realtime Clock</Description><StartTime><Timestamp dt:dt=""int"">0</Timestamp><DateUtc dt:dt=""string"">2018-10-24T16:12:39Z</DateUtc></StartTime><FrequencyChanges><FrequencyChange><Frequency dt:dt=""r8"">3215292</Frequency><Timestamp dt:dt=""r8"">1288072134138</Timestamp><Current dt:dt=""r8"">0</Current><DateUtc dt:dt=""string"">2018-10-24T16:12:39Z</DateUtc></FrequencyChange></FrequencyChanges></Clock>\n",KW_Experiment5A-38-1,59.946,1.0.0.105,1,-417401897,Professional,2.0.10.353,2.0.10.353,10/24/2018,10/24/2018 16:12,12:12:39,2.0.10.248,2,2,1,2,,,,,,,,TrainingProc,BlockList,48,2,Distractor2.bmp,2,0,,0,1,1359105,400,,0,0,cyan,400,1,400,4,horizontal,cyan,Distractor1.bmp,blue,Distractor1.bmp,lime,Target2.bmp,red,Distractor2.bmp,purple,Distractor1.bmp,yellow,Distractor2.bmp,,,,TrialProc,,TrainingTrialList,0,2,-999999,0,1359505,0,1,1299,1360804,Target2.bmp,lime,2,,,,3,2,48
KW_Experiment5A,38,1,"<?xml version=""1.0""?>\n<Clock xmlns:dt=""urn:schemas-microsoft-com:datatypes""><Description dt:dt=""string"">E-Prime Primary Realtime Clock</Description><StartTime><Timestamp dt:dt=""int"">0</Timestamp><DateUtc dt:dt=""string"">2018-10-24T16:12:39Z</DateUtc></StartTime><FrequencyChanges><FrequencyChange><Frequency dt:dt=""r8"">3215292</Frequency><Timestamp dt:dt=""r8"">1288072134138</Timestamp><Current dt:dt=""r8"">0</Current><DateUtc dt:dt=""string"">2018-10-24T16:12:39Z</DateUtc></FrequencyChange></FrequencyChanges></Clock>\n",KW_Experiment5A-38-1,59.946,1.0.0.105,1,-417401897,Professional,2.0.10.353,2.0.10.353,10/24/2018,10/24/2018 16:12,12:12:39,2.0.10.248,3,2,1,3,,,,,,,,TrainingProc,BlockList,1,2,Distractor2.bmp,2,0,,0,28,1363576,500,,0,0,yellow,500,2,500,,horizontal,yellow,Distractor2.bmp,purple,Distractor2.bmp,blue,Distractor2.bmp,cyan,Distractor2.bmp,lime,Distractor2.bmp,red,Target2.bmp,,,,TrialProc,2,TrainingTrialList,0,2,-999999,0,1364076,0,1,784,1364860,Target2.bmp,red,2,,,,12,3,49
KW_Experiment5A,38,1,"<?xml version=""1.0""?>\n<Clock xmlns:dt=""urn:schemas-microsoft-com:datatypes""><Description dt:dt=""string"">E-Prime Primary Realtime Clock</Description><StartTime><Timestamp dt:dt=""int"">0</Timestamp><DateUtc dt:dt=""string"">2018-10-24T16:12:39Z</DateUtc></StartTime><FrequencyChanges><FrequencyChange><Frequency dt:dt=""r8"">3215292</Frequency><Timestamp dt:dt=""r8"">1288072134138</Timestamp><Current dt:dt=""r8"">0</Current><DateUtc dt:dt=""string"">2018-10-24T16:12:39Z</DateUtc></FrequencyChange></FrequencyChanges></Clock>\n",KW_Experiment5A-38-1,59.946,1.0.0.105,1,-417401897,Professional,2.0.10.353,2.0.10.353,10/24/2018,10/24/2018 16:12,12:12:39,2.0.10.248,3,2,1,3,,,,,,,,TrainingProc,BlockList,2,2,Distractor2.bmp,2,0,,0,1,1365878,600,,0,0,blue,600,3,600,3,horizontal,blue,Distractor1.bmp,lime,Target2.bmp,purple,Distractor2.bmp,yellow,Distractor2.bmp,red,Distractor2.bmp,cyan,Distractor2.bmp,,,,TrialProc,,TrainingTrialList,1,2,-999999,0,1366478,0,2,1094,1367572,Target2.bmp,lime,2,,,,2,3,50
KW_Experiment5A,38,1,"<?xml version=""1.0""?>\n<Clock xmlns:dt=""urn:schemas-microsoft-com:datatypes""><Description dt:dt=""string"">E-Prime Primary Realtime Clock</Description><StartTime><Timestamp dt:dt=""int"">0</Timestamp><DateUtc dt:dt=""string"">2018-10-24T16:12:39Z</DateUtc></StartTime><FrequencyChanges><FrequencyChange><Frequency dt:dt=""r8"">3215292</Frequency><Timestamp dt:dt=""r8"">1288072134138</Timestamp><Current dt:dt=""r8"">0</Current><DateUtc dt:dt=""string"">2018-10-24T16:12:39Z</DateUtc></FrequencyChange></FrequencyChanges></Clock>\n",KW_Experiment5A-38-1,59.946,1.0.0.105,1,-417401897,Professional,2.0.10.353,2.0.10.353,10/24/2018,10/24/2018 16:12,12:12:39,2.0.10.248,3,2,1,3,,,,,,,,TrainingProc,BlockList,3,2,Distractor1.bmp,1,0,,0,1,1368597,600,,0,0,purple,600,3,600,5,horizontal,purple,Distractor1.bmp,blue,Distractor1.bmp,red,Distractor2.bmp,cyan,Distractor1.bmp,lime,Target2.bmp,yellow,Distractor1.bmp,,,,TrialProc,,TrainingTrialList,1,2,-999999,0,1369197,0,2,591,1369788,Target2.bmp,lime,2,,,,5,3,51
KW_Experiment5A,38,1,"<?xml version=""1.0""?>\n<Clock xmlns:dt=""urn:schemas-microsoft-com:datatypes""><Description dt:dt=""string"">E-Prime Primary Realtime Clock</Description><StartTime><Timestamp dt:dt=""int"">0</Timestamp><DateUtc dt:dt=""string"">2018-10-24T16:12:39Z</DateUtc></StartTime><FrequencyChanges><FrequencyChange><Frequency dt:dt=""r8"">3215292</Frequency><Timestamp dt:dt=""r8"">1288072134138</Timestamp><Current dt:dt=""r8"">0</Current><DateUtc dt:dt=""string"">2018-10-24T16:12:39Z</DateUtc></FrequencyChange></FrequencyChanges></Clock>\n",KW_Experiment5A-38-1,59.946,1.0.0.105,1,-417401897,Professional,2.0.10.353,2.0.10.353,10/24/2018,10/24/2018 16:12,12:12:39,2.0.10.248,3,2,1,3,,,,,,,,TrainingProc,BlockList,4,2,Distractor2.bmp,2,0,,0,1,1370799,500,,0,0,yellow,500,2,500,2,horizontal,yellow,Distractor1.bmp,cyan,Distractor2.bmp,red,Distractor2.bmp,lime,Target2.bmp,blue,Distractor2.bmp,purple,Distractor2.bmp,,,,TrialProc,,TrainingTrialList,1,2,-999999,0,1371299,0,2,553,1371852,Target2.bmp,lime,2,,,,4,3,52
KW_Experiment5A,38,1,"<?xml version=""1.0""?>\n<Clock xmlns:dt=""urn:schemas-microsoft-com:datatypes""><Description dt:dt=""string"">E-Prime Primary Realtime Clock</Description><StartTime><Timestamp dt:dt=""int"">0</Timestamp><DateUtc dt:dt=""string"">2018-10-24T16:12:39Z</DateUtc></StartTime><FrequencyChanges><FrequencyChange><Frequency dt:dt=""r8"">3215292</Frequency><Timestamp dt:dt=""r8"">1288072134138</Timestamp><Current dt:dt=""r8"">0</Current><DateUtc dt:dt=""string"">2018-10-24T16:12:39Z</DateUtc></FrequencyChange></FrequencyChanges></Clock>\n",KW_Experiment5A-38-1,59.946,1.0.0.105,1,-417401897,Professional,2.0.10.353,2.0.10.353,10/24/2018,10/24/2018 16:12,12:12:39,2.0.10.248,3,2,1,3,,,,,,,,TrainingProc,BlockList,5,1,Distractor1.bmp,1,0,,1,0,1372867,601,,0,0,purple,600,3,600,5,vertical,purple,Distractor1.bmp,blue,Distractor2.bmp,cyan,Distractor2.bmp,red,Distractor2.bmp,yellow,Distractor1.bmp,lime,Target1.bmp,,,,TrialProc,,TrainingTrialList,1,1,-999999,1,1373468,0,1,704,1374172,Target1.bmp,lime,1,,,,6,3,53
KW_Experiment5A,38,1,"<?xml version=""1.0""?>\n<Clock xmlns:dt=""urn:schemas-microsoft-com:datatypes""><Description dt:dt=""string"">E-Prime Primary Realtime Clock</Description><StartTime><Timestamp dt:dt=""int"">0</Timestamp><DateUtc dt:dt=""string"">2018-10-24T16:12:39Z</DateUtc></StartTime><FrequencyChanges><FrequencyChange><Frequency dt:dt=""r8"">3215292</Frequency><Timestamp dt:dt=""r8"">1288072134138</Timestamp><Current dt:dt=""r8"">0</Current><DateUtc dt:dt=""string"">2018-10-24T16:12:39Z</DateUtc></FrequencyChange></FrequencyChanges></Clock>\n",KW_Experiment5A-38-1,59.946,1.0.0.105,1,-417401897,Professional,2.0.10.353,2.0.10.353,10/24/2018,10/24/2018 16:12,12:12:39,2.0.10.248,3,2,1,3,,,,,,,,TrainingProc,BlockList,6,2,Distractor1.bmp,1,0,,0,1,1375186,601,,0,0,yellow,600,3,600,2,horizontal,yellow,Distractor1.bmp,blue,Distractor2.bmp,red,Distractor1.bmp,purple,Distractor1.bmp,lime,Target2.bmp,cyan,Distractor1.bmp,,,,TrialProc,,TrainingTrialList,1,2,-999999,1,1375787,0,2,849,1376636,Target2.bmp,lime,2,,,,5,3,54
KW_Experiment5A,38,1,"<?xml version=""1.0""?>\n<Clock xmlns:dt=""urn:schemas-microsoft-com:datatypes""><Description dt:dt=""string"">E-Prime Primary Realtime Clock</Description><StartTime><Timestamp dt:dt=""int"">0</Timestamp><DateUtc dt:dt=""string"">2018-10-24T16:12:39Z</DateUtc></StartTime><FrequencyChanges><FrequencyChange><Frequency dt:dt=""r8"">3215292</Frequency><Timestamp dt:dt=""r8"">1288072134138</Timestamp><Current dt:dt=""r8"">0</Current><DateUtc dt:dt=""string"">2018-10-24T16:12:39Z</DateUtc></FrequencyChange></FrequencyChanges></Clock>\n",KW_Experiment5A-38-1,59.946,1.0.0.105,1,-417401897,Professional,2.0.10.353,2.0.10.353,10/24/2018,10/24/2018 16:12,12:12:39,2.0.10.248,3,2,1,3,,,,,,,,TrainingProc,BlockList,7,1,Distractor2.bmp,2,0,,0,1,1377655,400,,0,0,cyan,400,1,400,,vertical,cyan,Distractor2.bmp,purple,Distractor1.bmp,red,Target1.bmp,lime,Distractor2.bmp,blue,Distractor2.bmp,yellow,Distractor1.bmp,,,,TrialProc,4,TrainingTrialList,1,1,-999999,0,1378055,0,1,581,1378636,Target1.bmp,red,1,,,,9,3,55
KW_Experiment5A,38,1,"<?xml version=""1.0""?>\n<Clock xmlns:dt=""urn:schemas-microsoft-com:datatypes""><Description dt:dt=""string"">E-Prime Primary Realtime Clock</Description><StartTime><Timestamp dt:dt=""int"">0</Timestamp><DateUtc dt:dt=""string"">2018-10-24T16:12:39Z</DateUtc></StartTime><FrequencyChanges><FrequencyChange><Frequency dt:dt=""r8"">3215292</Frequency><Timestamp dt:dt=""r8"">1288072134138</Timestamp><Current dt:dt=""r8"">0</Current><DateUtc dt:dt=""string"">2018-10-24T16:12:39Z</DateUtc></FrequencyChange></FrequencyChanges></Clock>\n",KW_Experiment5A-38-1,59.946,1.0.0.105,1,-417401897,Professional,2.0.10.353,2.0.10.353,10/24/2018,10/24/2018 16:12,12:12:39,2.0.10.248,3,2,1,3,,,,,,,,TrainingProc,BlockList,8,2,Distractor1.bmp,1,0,,0,1,1379657,500,,0,0,red,500,2,500,1,horizontal,red,Distractor1.bmp,yellow,Distractor1.bmp,lime,Target2.bmp,purple,Distractor1.bmp,cyan,Distractor2.bmp,blue,Distractor1.bmp,,,,TrialProc,,TrainingTrialList,1,2,-999999,0,1380157,0,2,406,1380563,Target2.bmp,lime,2,,,,3,3,56
KW_Experiment5A,38,1,"<?xml version=""1.0""?>\n<Clock xmlns:dt=""urn:schemas-microsoft-com:datatypes""><Description dt:dt=""string"">E-Prime Primary Realtime Clock</Description><StartTime><Timestamp dt:dt=""int"">0</Timestamp><DateUtc dt:dt=""string"">2018-10-24T16:12:39Z</DateUtc></StartTime><FrequencyChanges><FrequencyChange><Frequency dt:dt=""r8"">3215292</Frequency><Timestamp dt:dt=""r8"">1288072134138</Timestamp><Current dt:dt=""r8"">0</Current><DateUtc dt:dt=""string"">2018-10-24T16:12:39Z</DateUtc></FrequencyChange></FrequencyChanges></Clock>\n",KW_Experiment5A-38-1,59.946,1.0.0.105,1,-417401897,Professional,2.0.10.353,2.0.10.353,10/24/2018,10/24/2018 16:12,12:12:39,2.0.10.248,3,2,1,3,,,,,,,,TrainingProc,BlockList,9,2,Distractor1.bmp,1,0,,0,1,1381575,401,,0,0,cyan,400,1,400,4,horizontal,cyan,Distractor1.bmp,purple,Distractor1.bmp,lime,Target2.bmp,red,Distractor1.bmp,blue,Distractor2.bmp,yellow,Distractor1.bmp,,,,TrialProc,,TrainingTrialList,1,2,-999999,1,1381976,0,2,555,1382531,Target2.bmp,lime,2,,,,3,3,57
KW_Experiment5A,38,1,"<?xml version=""1.0""?>\n<Clock xmlns:dt=""urn:schemas-microsoft-com:datatypes""><Description dt:dt=""string"">E-Prime Primary Realtime Clock</Description><StartTime><Timestamp dt:dt=""int"">0</Timestamp><DateUtc dt:dt=""string"">2018-10-24T16:12:39Z</DateUtc></StartTime><FrequencyChanges><FrequencyChange><Frequency dt:dt=""r8"">3215292</Frequency><Timestamp dt:dt=""r8"">1288072134138</Timestamp><Current dt:dt=""r8"">0</Current><DateUtc dt:dt=""string"">2018-10-24T16:12:39Z</DateUtc></FrequencyChange></FrequencyChanges></Clock>\n",KW_Experiment5A-38-1,59.946,1.0.0.105,1,-417401897,Professional,2.0.10.353,2.0.10.353,10/24/2018,10/24/2018 16:12,12:12:39,2.0.10.248,3,2,1,3,,,,,,,,TrainingProc,BlockList,10,1,Distractor2.bmp,2,0,,0,1,1383544,400,,0,0,blue,400,1,400,,vertical,blue,Distractor2.bmp,red,Target1.bmp,yellow,Distractor2.bmp,purple,Distractor1.bmp,lime,Distractor1.bmp,cyan,Distractor1.bmp,,,,TrialProc,3,TrainingTrialList,1,1,-999999,0,1383944,0,1,627,1384571,Target1.bmp,red,1,,,,8,3,58
KW_Experiment5A,38,1,"<?xml version=""1.0""?>\n<Clock xmlns:dt=""urn:schemas-microsoft-com:datatypes""><Description dt:dt=""string"">E-Prime Primary Realtime Clock</Description><StartTime><Timestamp dt:dt=""int"">0</Timestamp><DateUtc dt:dt=""string"">2018-10-24T16:12:39Z</DateUtc></StartTime><FrequencyChanges><FrequencyChange><Frequency dt:dt=""r8"">3215292</Frequency><Timestamp dt:dt=""r8"">1288072134138</Timestamp><Current dt:dt=""r8"">0</Current><DateUtc dt:dt=""string"">2018-10-24T16:12:39Z</DateUtc></FrequencyChange></FrequencyChanges></Clock>\n",KW_Experiment5A-38-1,59.946,1.0.0.105,1,-417401897,Professional,2.0.10.353,2.0.10.353,10/24/2018,10/24/2018 16:12,12:12:39,2.0.10.248,3,2,1,3,,,,,,,,TrainingProc,BlockList,11,1,Distractor2.bmp,2,0,,0,1,1385596,400,,0,0,yellow,400,1,400,,vertical,yellow,Distractor2.bmp,cyan,Distractor1.bmp,lime,Distractor1.bmp,red,Target1.bmp,purple,Distractor2.bmp,blue,Distractor1.bmp,,,,TrialProc,2,TrainingTrialList,1,1,-999999,0,1385996,0,1,887,1386883,Target1.bmp,red,1,,,,10,3,59
KW_Experiment5A,38,1,"<?xml version=""1.0""?>\n<Clock xmlns:dt=""urn:schemas-microsoft-com:datatypes""><Description dt:dt=""string"">E-Prime Primary Realtime Clock</Description><StartTime><Timestamp dt:dt=""int"">0</Timestamp><DateUtc dt:dt=""string"">2018-10-24T16:12:39Z</DateUtc></StartTime><FrequencyChanges><FrequencyChange><Frequency dt:dt=""r8"">3215292</Frequency><Timestamp dt:dt=""r8"">1288072134138</Timestamp><Current dt:dt=""r8"">0</Current><DateUtc dt:dt=""string"">2018-10-24T16:12:39Z</DateUtc></FrequencyChange></FrequencyChanges></Clock>\n",KW_Experiment5A-38-1,59.946,1.0.0.105,1,-417401897,Professional,2.0.10.353,2.0.10.353,10/24/2018,10/24/2018 16:12,12:12:39,2.0.10.248,3,2,1,3,,,,,,,,TrainingProc,BlockList,12,1,Distractor1.bmp,1,0,,0,1,1387898,400,,0,0,blue,400,1,400,3,vertical,blue,Distractor1.bmp,cyan,Distractor1.bmp,red,Distractor2.bmp,lime,Target1.bmp,purple,Distractor1.bmp,yellow,Distractor1.bmp,,,,TrialProc,,TrainingTrialList,1,1,-999999,0,1388298,0,1,481,1388779,Target1.bmp,lime,1,,,,4,3,60
KW_Experiment5A,38,1,"<?xml version=""1.0""?>\n<Clock xmlns:dt=""urn:schemas-microsoft-com:datatypes""><Description dt:dt=""string"">E-Prime Primary Realtime Clock</Description><StartTime><Timestamp dt:dt=""int"">0</Timestamp><DateUtc dt:dt=""string"">2018-10-24T16:12:39Z</DateUtc></StartTime><FrequencyChanges><FrequencyChange><Frequency dt:dt=""r8"">3215292</Frequency><Timestamp dt:dt=""r8"">1288072134138</Timestamp><Current dt:dt=""r8"">0</Current><DateUtc dt:dt=""string"">2018-10-24T16:12:39Z</DateUtc></FrequencyChange></FrequencyChanges></Clock>\n",KW_Experiment5A-38-1,59.946,1.0.0.105,1,-417401897,Professional,2.0.10.353,2.0.10.353,10/24/2018,10/24/2018 16:12,12:12:39,2.0.10.248,3,2,1,3,,,,,,,,TrainingProc,BlockList,13,1,Distractor2.bmp,2,0,,0,0,1389799,601,,0,0,purple,600,3,600,5,vertical,purple,Distractor2.bmp,lime,Target1.bmp,blue,Distractor2.bmp,yellow,Distractor2.bmp,red,Distractor1.bmp,cyan,Distractor1.bmp,,,,TrialProc,,TrainingTrialList,1,1,-999999,1,1390400,0,1,715,1391115,Target1.bmp,lime,1,,,,2,3,61
KW_Experiment5A,38,1,"<?xml version=""1.0""?>\n<Clock xmlns:dt=""urn:schemas-microsoft-com:datatypes""><Description dt:dt=""string"">E-Prime Primary Realtime Clock</Description><StartTime><Timestamp dt:dt=""int"">0</Timestamp><DateUtc dt:dt=""string"">2018-10-24T16:12:39Z</DateUtc></StartTime><FrequencyChanges><FrequencyChange><Frequency dt:dt=""r8"">3215292</Frequency><Timestamp dt:dt=""r8"">1288072134138</Timestamp><Current dt:dt=""r8"">0</Current><DateUtc dt:dt=""string"">2018-10-24T16:12:39Z</DateUtc></FrequencyChange></FrequencyChanges></Clock>\n",KW_Experiment5A-38-1,59.946,1.0.0.105,1,-417401897,Professional,2.0.10.353,2.0.10.353,10/24/2018,10/24/2018 16:12,12:12:39,2.0.10.248,3,2,1,3,,,,,,,,TrainingProc,BlockList,14,2,Distractor1.bmp,1,0,,0,1,1392135,500,,0,0,cyan,500,2,500,4,horizontal,cyan,Distractor1.bmp,lime,Target2.bmp,yellow,Distractor1.bmp,blue,Distractor1.bmp,purple,Distractor2.bmp,red,Distractor2.bmp,,,,TrialProc,,TrainingTrialList,0,2,-999999,0,1392635,0,1,416,1393051,Target2.bmp,lime,2,,,,2,3,62
KW_Experiment5A,38,1,"<?xml version=""1.0""?>\n<Clock xmlns:dt=""urn:schemas-microsoft-com:datatypes""><Description dt:dt=""string"">E-Prime Primary Realtime Clock</Description><StartTime><Timestamp dt:dt=""int"">0</Timestamp><DateUtc dt:dt=""string"">2018-10-24T16:12:39Z</DateUtc></StartTime><FrequencyChanges><FrequencyChange><Frequency dt:dt=""r8"">3215292</Frequency><Timestamp dt:dt=""r8"">1288072134138</Timestamp><Current dt:dt=""r8"">0</Current><DateUtc dt:dt=""string"">2018-10-24T16:12:39Z</DateUtc></FrequencyChange></FrequencyChanges></Clock>\n",KW_Experiment5A-38-1,59.946,1.0.0.105,1,-417401897,Professional,2.0.10.353,2.0.10.353,10/24/2018,10/24/2018 16:12,12:12:39,2.0.10.248,3,2,1,3,,,,,,,,TrainingProc,BlockList,15,1,Distractor2.bmp,2,0,,0,1,1394070,601,,0,0,blue,600,3,600,3,vertical,lime,Target1.bmp,blue,Distractor2.bmp,red,Distractor2.bmp,cyan,Distractor2.bmp,yellow,Distractor2.bmp,purple,Distractor2.bmp,,,,TrialProc,,TrainingTrialList,1,1,-999999,1,1394671,0,1,652,1395323,Target1.bmp,lime,1,,,,1,3,63
KW_Experiment5A,38,1,"<?xml version=""1.0""?>\n<Clock xmlns:dt=""urn:schemas-microsoft-com:datatypes""><Description dt:dt=""string"">E-Prime Primary Realtime Clock</Description><StartTime><Timestamp dt:dt=""int"">0</Timestamp><DateUtc dt:dt=""string"">2018-10-24T16:12:39Z</DateUtc></StartTime><FrequencyChanges><FrequencyChange><Frequency dt:dt=""r8"">3215292</Frequency><Timestamp dt:dt=""r8"">1288072134138</Timestamp><Current dt:dt=""r8"">0</Current><DateUtc dt:dt=""string"">2018-10-24T16:12:39Z</DateUtc></FrequencyChange></FrequencyChanges></Clock>\n",KW_Experiment5A-38-1,59.946,1.0.0.105,1,-417401897,Professional,2.0.10.353,2.0.10.353,10/24/2018,10/24/2018 16:12,12:12:39,2.0.10.248,3,2,1,3,,,,,,,,TrainingProc,BlockList,16,2,Distractor2.bmp,2,0,,0,1,1396339,500,,0,0,yellow,500,2,500,2,horizontal,yellow,Distractor2.bmp,cyan,Distractor2.bmp,red,Distractor1.bmp,purple,Distractor2.bmp,blue,Distractor2.bmp,lime,Target2.bmp,,,,TrialProc,,TrainingTrialList,1,2,-999999,0,1396839,0,2,524,1397363,Target2.bmp,lime,2,,,,6,3,64
KW_Experiment5A,38,1,"<?xml version=""1.0""?>\n<Clock xmlns:dt=""urn:schemas-microsoft-com:datatypes""><Description dt:dt=""string"">E-Prime Primary Realtime Clock</Description><StartTime><Timestamp dt:dt=""int"">0</Timestamp><DateUtc dt:dt=""string"">2018-10-24T16:12:39Z</DateUtc></StartTime><FrequencyChanges><FrequencyChange><Frequency dt:dt=""r8"">3215292</Frequency><Timestamp dt:dt=""r8"">1288072134138</Timestamp><Current dt:dt=""r8"">0</Current><DateUtc dt:dt=""string"">2018-10-24T16:12:39Z</DateUtc></FrequencyChange></FrequencyChanges></Clock>\n",KW_Experiment5A-38-1,59.946,1.0.0.105,1,-417401897,Professional,2.0.10.353,2.0.10.353,10/24/2018,10/24/2018 16:12,12:12:39,2.0.10.248,3,2,1,3,,,,,,,,TrainingProc,BlockList,17,2,Distractor1.bmp,1,0,,0,1,1398374,600,,0,0,yellow,600,3,600,2,horizontal,lime,Target2.bmp,yellow,Distractor1.bmp,cyan,Distractor2.bmp,blue,Distractor2.bmp,red,Distractor1.bmp,purple,Distractor1.bmp,,,,TrialProc,,TrainingTrialList,1,2,-999999,0,1398974,0,2,573,1399547,Target2.bmp,lime,2,,,,1,3,65
KW_Experiment5A,38,1,"<?xml version=""1.0""?>\n<Clock xmlns:dt=""urn:schemas-microsoft-com:datatypes""><Description dt:dt=""string"">E-Prime Primary Realtime Clock</Description><StartTime><Timestamp dt:dt=""int"">0</Timestamp><DateUtc dt:dt=""string"">2018-10-24T16:12:39Z</DateUtc></StartTime><FrequencyChanges><FrequencyChange><Frequency dt:dt=""r8"">3215292</Frequency><Timestamp dt:dt=""r8"">1288072134138</Timestamp><Current dt:dt=""r8"">0</Current><DateUtc dt:dt=""string"">2018-10-24T16:12:39Z</DateUtc></FrequencyChange></FrequencyChanges></Clock>\n",KW_Experiment5A-38-1,59.946,1.0.0.105,1,-417401897,Professional,2.0.10.353,2.0.10.353,10/24/2018,10/24/2018 16:12,12:12:39,2.0.10.248,3,2,1,3,,,,,,,,TrainingProc,BlockList,18,1,Distractor2.bmp,2,0,,0,1,1400559,401,,0,0,yellow,400,1,400,,vertical,red,Target1.bmp,cyan,Distractor2.bmp,purple,Distractor2.bmp,lime,Distractor1.bmp,blue,Distractor1.bmp,yellow,Distractor1.bmp,,,,TrialProc,2,TrainingTrialList,1,1,-999999,1,1400960,0,1,483,1401443,Target1.bmp,red,1,,,,7,3,66
KW_Experiment5A,38,1,"<?xml version=""1.0""?>\n<Clock xmlns:dt=""urn:schemas-microsoft-com:datatypes""><Description dt:dt=""string"">E-Prime Primary Realtime Clock</Description><StartTime><Timestamp dt:dt=""int"">0</Timestamp><DateUtc dt:dt=""string"">2018-10-24T16:12:39Z</DateUtc></StartTime><FrequencyChanges><FrequencyChange><Frequency dt:dt=""r8"">3215292</Frequency><Timestamp dt:dt=""r8"">1288072134138</Timestamp><Current dt:dt=""r8"">0</Current><DateUtc dt:dt=""string"">2018-10-24T16:12:39Z</DateUtc></FrequencyChange></FrequencyChanges></Clock>\n",KW_Experiment5A-38-1,59.946,1.0.0.105,1,-417401897,Professional,2.0.10.353,2.0.10.353,10/24/2018,10/24/2018 16:12,12:12:39,2.0.10.248,3,2,1,3,,,,,,,,TrainingProc,BlockList,19,2,Distractor2.bmp,2,0,,0,1,1402461,400,,0,0,red,400,1,400,1,horizontal,lime,Target2.bmp,red,Distractor2.bmp,yellow,Distractor1.bmp,purple,Distractor2.bmp,cyan,Distractor2.bmp,blue,Distractor2.bmp,,,,TrialProc,,TrainingTrialList,0,2,-999999,0,1402861,0,1,478,1403339,Target2.bmp,lime,2,,,,1,3,67
KW_Experiment5A,38,1,"<?xml version=""1.0""?>\n<Clock xmlns:dt=""urn:schemas-microsoft-com:datatypes""><Description dt:dt=""string"">E-Prime Primary Realtime Clock</Description><StartTime><Timestamp dt:dt=""int"">0</Timestamp><DateUtc dt:dt=""string"">2018-10-24T16:12:39Z</DateUtc></StartTime><FrequencyChanges><FrequencyChange><Frequency dt:dt=""r8"">3215292</Frequency><Timestamp dt:dt=""r8"">1288072134138</Timestamp><Current dt:dt=""r8"">0</Current><DateUtc dt:dt=""string"">2018-10-24T16:12:39Z</DateUtc></FrequencyChange></FrequencyChanges></Clock>\n",KW_Experiment5A-38-1,59.946,1.0.0.105,1,-417401897,Professional,2.0.10.353,2.0.10.353,10/24/2018,10/24/2018 16:12,12:12:39,2.0.10.248,3,2,1,3,,,,,,,,TrainingProc,BlockList,20,1,Distractor2.bmp,2,0,,0,1,1404363,600,,0,0,blue,600,3,600,,vertical,blue,Distractor1.bmp,lime,Distractor1.bmp,yellow,Distractor1.bmp,cyan,Distractor2.bmp,red,Target1.bmp,purple,Distractor2.bmp,,,,TrialProc,3,TrainingTrialList,0,1,-999999,0,1404963,0,2,968,1405931,Target1.bmp,red,1,,,,11,3,68
KW_Experiment5A,38,1,"<?xml version=""1.0""?>\n<Clock xmlns:dt=""urn:schemas-microsoft-com:datatypes""><Description dt:dt=""string"">E-Prime Primary Realtime Clock</Description><StartTime><Timestamp dt:dt=""int"">0</Timestamp><DateUtc dt:dt=""string"">2018-10-24T16:12:39Z</DateUtc></StartTime><FrequencyChanges><FrequencyChange><Frequency dt:dt=""r8"">3215292</Frequency><Timestamp dt:dt=""r8"">1288072134138</Timestamp><Current dt:dt=""r8"">0</Current><DateUtc dt:dt=""string"">2018-10-24T16:12:39Z</DateUtc></FrequencyChange></FrequencyChanges></Clock>\n",KW_Experiment5A-38-1,59.946,1.0.0.105,1,-417401897,Professional,2.0.10.353,2.0.10.353,10/24/2018,10/24/2018 16:12,12:12:39,2.0.10.248,3,2,1,3,,,,,,,,TrainingProc,BlockList,21,1,Distractor1.bmp,1,0,,0,1,1406948,401,,0,0,blue,400,1,400,3,vertical,blue,Distractor1.bmp,purple,Distractor2.bmp,yellow,Distractor2.bmp,cyan,Distractor1.bmp,red,Distractor1.bmp,lime,Target1.bmp,,,,TrialProc,,TrainingTrialList,1,1,-999999,1,1407349,0,1,2102,1409451,Target1.bmp,lime,1,,,,6,3,69
KW_Experiment5A,38,1,"<?xml version=""1.0""?>\n<Clock xmlns:dt=""urn:schemas-microsoft-com:datatypes""><Description dt:dt=""string"">E-Prime Primary Realtime Clock</Description><StartTime><Timestamp dt:dt=""int"">0</Timestamp><DateUtc dt:dt=""string"">2018-10-24T16:12:39Z</DateUtc></StartTime><FrequencyChanges><FrequencyChange><Frequency dt:dt=""r8"">3215292</Frequency><Timestamp dt:dt=""r8"">1288072134138</Timestamp><Current dt:dt=""r8"">0</Current><DateUtc dt:dt=""string"">2018-10-24T16:12:39Z</DateUtc></FrequencyChange></FrequencyChanges></Clock>\n",KW_Experiment5A-38-1,59.946,1.0.0.105,1,-417401897,Professional,2.0.10.353,2.0.10.353,10/24/2018,10/24/2018 16:12,12:12:39,2.0.10.248,3,2,1,3,,,,,,,,TrainingProc,BlockList,22,2,Distractor2.bmp,2,0,,0,1,1410468,601,,0,0,red,600,3,600,1,horizontal,red,Distractor2.bmp,purple,Distractor1.bmp,lime,Target2.bmp,yellow,Distractor2.bmp,cyan,Distractor2.bmp,blue,Distractor1.bmp,,,,TrialProc,,TrainingTrialList,1,2,-999999,1,1411069,0,2,670,1411739,Target2.bmp,lime,2,,,,3,3,70
KW_Experiment5A,38,1,"<?xml version=""1.0""?>\n<Clock xmlns:dt=""urn:schemas-microsoft-com:datatypes""><Description dt:dt=""string"">E-Prime Primary Realtime Clock</Description><StartTime><Timestamp dt:dt=""int"">0</Timestamp><DateUtc dt:dt=""string"">2018-10-24T16:12:39Z</DateUtc></StartTime><FrequencyChanges><FrequencyChange><Frequency dt:dt=""r8"">3215292</Frequency><Timestamp dt:dt=""r8"">1288072134138</Timestamp><Current dt:dt=""r8"">0</Current><DateUtc dt:dt=""string"">2018-10-24T16:12:39Z</DateUtc></FrequencyChange></FrequencyChanges></Clock>\n",KW_Experiment5A-38-1,59.946,1.0.0.105,1,-417401897,Professional,2.0.10.353,2.0.10.353,10/24/2018,10/24/2018 16:12,12:12:39,2.0.10.248,3,2,1,3,,,,,,,,TrainingProc,BlockList,23,2,Distractor2.bmp,2,0,,0,1,1412754,600,,0,0,blue,600,3,600,3,horizontal,blue,Distractor2.bmp,purple,Distractor1.bmp,red,Distractor1.bmp,lime,Target2.bmp,cyan,Distractor2.bmp,yellow,Distractor1.bmp,,,,TrialProc,,TrainingTrialList,0,2,-999999,0,1413354,0,1,505,1413859,Target2.bmp,lime,2,,,,4,3,71
KW_Experiment5A,38,1,"<?xml version=""1.0""?>\n<Clock xmlns:dt=""urn:schemas-microsoft-com:datatypes""><Description dt:dt=""string"">E-Prime Primary Realtime Clock</Description><StartTime><Timestamp dt:dt=""int"">0</Timestamp><DateUtc dt:dt=""string"">2018-10-24T16:12:39Z</DateUtc></StartTime><FrequencyChanges><FrequencyChange><Frequency dt:dt=""r8"">3215292</Frequency><Timestamp dt:dt=""r8"">1288072134138</Timestamp><Current dt:dt=""r8"">0</Current><DateUtc dt:dt=""string"">2018-10-24T16:12:39Z</DateUtc></FrequencyChange></FrequencyChanges></Clock>\n",KW_Experiment5A-38-1,59.946,1.0.0.105,1,-417401897,Professional,2.0.10.353,2.0.10.353,10/24/2018,10/24/2018 16:12,12:12:39,2.0.10.248,3,2,1,3,,,,,,,,TrainingProc,BlockList,24,1,Distractor1.bmp,1,0,,0,1,1414872,401,,0,0,blue,400,1,400,3,vertical,blue,Distractor1.bmp,cyan,Distractor2.bmp,red,Distractor1.bmp,purple,Distractor2.bmp,lime,Target1.bmp,yellow,Distractor1.bmp,,,,TrialProc,,TrainingTrialList,1,1,-999999,1,1415273,0,1,714,1415987,Target1.bmp,lime,1,,,,5,3,72
KW_Experiment5A,38,1,"<?xml version=""1.0""?>\n<Clock xmlns:dt=""urn:schemas-microsoft-com:datatypes""><Description dt:dt=""string"">E-Prime Primary Realtime Clock</Description><StartTime><Timestamp dt:dt=""int"">0</Timestamp><DateUtc dt:dt=""string"">2018-10-24T16:12:39Z</DateUtc></StartTime><FrequencyChanges><FrequencyChange><Frequency dt:dt=""r8"">3215292</Frequency><Timestamp dt:dt=""r8"">1288072134138</Timestamp><Current dt:dt=""r8"">0</Current><DateUtc dt:dt=""string"">2018-10-24T16:12:39Z</DateUtc></FrequencyChange></FrequencyChanges></Clock>\n",KW_Experiment5A-38-1,59.946,1.0.0.105,1,-417401897,Professional,2.0.10.353,2.0.10.353,10/24/2018,10/24/2018 16:12,12:12:39,2.0.10.248,3,2,1,3,,,,,,,,TrainingProc,BlockList,25,1,Distractor2.bmp,2,0,,1,0,1417007,501,,0,0,yellow,500,2,500,,vertical,yellow,Distractor2.bmp,blue,Distractor2.bmp,red,Target1.bmp,lime,Distractor2.bmp,purple,Distractor1.bmp,cyan,Distractor2.bmp,,,,TrialProc,2,TrainingTrialList,0,1,-999999,1,1417508,0,2,751,1418259,Target1.bmp,red,1,,,,9,4,73
KW_Experiment5A,38,1,"<?xml version=""1.0""?>\n<Clock xmlns:dt=""urn:schemas-microsoft-com:datatypes""><Description dt:dt=""string"">E-Prime Primary Realtime Clock</Description><StartTime><Timestamp dt:dt=""int"">0</Timestamp><DateUtc dt:dt=""string"">2018-10-24T16:12:39Z</DateUtc></StartTime><FrequencyChanges><FrequencyChange><Frequency dt:dt=""r8"">3215292</Frequency><Timestamp dt:dt=""r8"">1288072134138</Timestamp><Current dt:dt=""r8"">0</Current><DateUtc dt:dt=""string"">2018-10-24T16:12:39Z</DateUtc></FrequencyChange></FrequencyChanges></Clock>\n",KW_Experiment5A-38-1,59.946,1.0.0.105,1,-417401897,Professional,2.0.10.353,2.0.10.353,10/24/2018,10/24/2018 16:12,12:12:39,2.0.10.248,3,2,1,3,,,,,,,,TrainingProc,BlockList,26,2,Distractor1.bmp,1,0,,0,1,1419276,601,,0,0,lime,600,3,600,,horizontal,lime,Distractor1.bmp,yellow,Distractor1.bmp,blue,Distractor1.bmp,purple,Distractor1.bmp,cyan,Distractor2.bmp,red,Target2.bmp,,,,TrialProc,6,TrainingTrialList,1,2,-999999,1,1419877,0,2,774,1420651,Target2.bmp,red,2,,,,12,4,74
KW_Experiment5A,38,1,"<?xml version=""1.0""?>\n<Clock xmlns:dt=""urn:schemas-microsoft-com:datatypes""><Description dt:dt=""string"">E-Prime Primary Realtime Clock</Description><StartTime><Timestamp dt:dt=""int"">0</Timestamp><DateUtc dt:dt=""string"">2018-10-24T16:12:39Z</DateUtc></StartTime><FrequencyChanges><FrequencyChange><Frequency dt:dt=""r8"">3215292</Frequency><Timestamp dt:dt=""r8"">1288072134138</Timestamp><Current dt:dt=""r8"">0</Current><DateUtc dt:dt=""string"">2018-10-24T16:12:39Z</DateUtc></FrequencyChange></FrequencyChanges></Clock>\n",KW_Experiment5A-38-1,59.946,1.0.0.105,1,-417401897,Professional,2.0.10.353,2.0.10.353,10/24/2018,10/24/2018 16:12,12:12:39,2.0.10.248,3,2,1,3,,,,,,,,TrainingProc,BlockList,27,1,Distractor2.bmp,2,0,,0,1,1421662,500,,0,0,blue,500,2,500,3,vertical,blue,Distractor2.bmp,red,Distractor1.bmp,purple,Distractor1.bmp,cyan,Distractor2.bmp,lime,Target1.bmp,yellow,Distractor2.bmp,,,,TrialProc,,TrainingTrialList,1,1,-999999,0,1422162,0,1,536,1422698,Target1.bmp,lime,1,,,,5,4,75
KW_Experiment5A,38,1,"<?xml version=""1.0""?>\n<Clock xmlns:dt=""urn:schemas-microsoft-com:datatypes""><Description dt:dt=""string"">E-Prime Primary Realtime Clock</Description><StartTime><Timestamp dt:dt=""int"">0</Timestamp><DateUtc dt:dt=""string"">2018-10-24T16:12:39Z</DateUtc></StartTime><FrequencyChanges><FrequencyChange><Frequency dt:dt=""r8"">3215292</Frequency><Timestamp dt:dt=""r8"">1288072134138</Timestamp><Current dt:dt=""r8"">0</Current><DateUtc dt:dt=""string"">2018-10-24T16:12:39Z</DateUtc></FrequencyChange></FrequencyChanges></Clock>\n",KW_Experiment5A-38-1,59.946,1.0.0.105,1,-417401897,Professional,2.0.10.353,2.0.10.353,10/24/2018,10/24/2018 16:12,12:12:39,2.0.10.248,3,2,1,3,,,,,,,,TrainingProc,BlockList,28,1,Distractor1.bmp,1,0,,0,1,1423714,600,,0,0,purple,600,3,600,5,vertical,purple,Distractor2.bmp,blue,Distractor2.bmp,lime,Target1.bmp,red,Distractor1.bmp,yellow,Distractor1.bmp,cyan,Distractor1.bmp,,,,TrialProc,,TrainingTrialList,0,1,-999999,0,1424314,0,2,536,1424850,Target1.bmp,lime,1,,,,3,4,76
KW_Experiment5A,38,1,"<?xml version=""1.0""?>\n<Clock xmlns:dt=""urn:schemas-microsoft-com:datatypes""><Description dt:dt=""string"">E-Prime Primary Realtime Clock</Description><StartTime><Timestamp dt:dt=""int"">0</Timestamp><DateUtc dt:dt=""string"">2018-10-24T16:12:39Z</DateUtc></StartTime><FrequencyChanges><FrequencyChange><Frequency dt:dt=""r8"">3215292</Frequency><Timestamp dt:dt=""r8"">1288072134138</Timestamp><Current dt:dt=""r8"">0</Current><DateUtc dt:dt=""string"">2018-10-24T16:12:39Z</DateUtc></FrequencyChange></FrequencyChanges></Clock>\n",KW_Experiment5A-38-1,59.946,1.0.0.105,1,-417401897,Professional,2.0.10.353,2.0.10.353,10/24/2018,10/24/2018 16:12,12:12:39,2.0.10.248,3,2,1,3,,,,,,,,TrainingProc,BlockList,29,2,Distractor2.bmp,2,0,,0,1,1425866,600,,0,0,blue,600,3,600,3,horizontal,lime,Target2.bmp,blue,Distractor2.bmp,purple,Distractor1.bmp,yellow,Distractor2.bmp,cyan,Distractor1.bmp,red,Distractor1.bmp,,,,TrialProc,,TrainingTrialList,0,2,-999999,0,1426466,0,1,640,1427106,Target2.bmp,lime,2,,,,1,4,77
KW_Experiment5A,38,1,"<?xml version=""1.0""?>\n<Clock xmlns:dt=""urn:schemas-microsoft-com:datatypes""><Description dt:dt=""string"">E-Prime Primary Realtime Clock</Description><StartTime><Timestamp dt:dt=""int"">0</Timestamp><DateUtc dt:dt=""string"">2018-10-24T16:12:39Z</DateUtc></StartTime><FrequencyChanges><FrequencyChange><Frequency dt:dt=""r8"">3215292</Frequency><Timestamp dt:dt=""r8"">1288072134138</Timestamp><Current dt:dt=""r8"">0</Current><DateUtc dt:dt=""string"">2018-10-24T16:12:39Z</DateUtc></FrequencyChange></FrequencyChanges></Clock>\n",KW_Experiment5A-38-1,59.946,1.0.0.105,1,-417401897,Professional,2.0.10.353,2.0.10.353,10/24/2018,10/24/2018 16:12,12:12:39,2.0.10.248,3,2,1,3,,,,,,,,TrainingProc,BlockList,30,1,Distractor2.bmp,2,0,,0,1,1428118,400,,0,0,purple,400,1,400,,vertical,purple,Distractor1.bmp,cyan,Distractor1.bmp,yellow,Distractor1.bmp,blue,Distractor2.bmp,red,Target1.bmp,lime,Distractor2.bmp,,,,TrialProc,5,TrainingTrialList,1,1,-999999,0,1428518,0,1,836,1429354,Target1.bmp,red,1,,,,11,4,78
KW_Experiment5A,38,1,"<?xml version=""1.0""?>\n<Clock xmlns:dt=""urn:schemas-microsoft-com:datatypes""><Description dt:dt=""string"">E-Prime Primary Realtime Clock</Description><StartTime><Timestamp dt:dt=""int"">0</Timestamp><DateUtc dt:dt=""string"">2018-10-24T16:12:39Z</DateUtc></StartTime><FrequencyChanges><FrequencyChange><Frequency dt:dt=""r8"">3215292</Frequency><Timestamp dt:dt=""r8"">1288072134138</Timestamp><Current dt:dt=""r8"">0</Current><DateUtc dt:dt=""string"">2018-10-24T16:12:39Z</DateUtc></FrequencyChange></FrequencyChanges></Clock>\n",KW_Experiment5A-38-1,59.946,1.0.0.105,1,-417401897,Professional,2.0.10.353,2.0.10.353,10/24/2018,10/24/2018 16:12,12:12:39,2.0.10.248,3,2,1,3,,,,,,,,TrainingProc,BlockList,31,1,Distractor2.bmp,2,0,,0,1,1430370,400,,0,0,purple,400,1,400,5,vertical,purple,Distractor2.bmp,yellow,Distractor1.bmp,lime,Target1.bmp,blue,Distractor2.bmp,cyan,Distractor1.bmp,red,Distractor1.bmp,,,,TrialProc,,TrainingTrialList,1,1,-999999,0,1430770,0,1,688,1431458,Target1.bmp,lime,1,,,,3,4,79
KW_Experiment5A,38,1,"<?xml version=""1.0""?>\n<Clock xmlns:dt=""urn:schemas-microsoft-com:datatypes""><Description dt:dt=""string"">E-Prime Primary Realtime Clock</Description><StartTime><Timestamp dt:dt=""int"">0</Timestamp><DateUtc dt:dt=""string"">2018-10-24T16:12:39Z</DateUtc></StartTime><FrequencyChanges><FrequencyChange><Frequency dt:dt=""r8"">3215292</Frequency><Timestamp dt:dt=""r8"">1288072134138</Timestamp><Current dt:dt=""r8"">0</Current><DateUtc dt:dt=""string"">2018-10-24T16:12:39Z</DateUtc></FrequencyChange></FrequencyChanges></Clock>\n",KW_Experiment5A-38-1,59.946,1.0.0.105,1,-417401897,Professional,2.0.10.353,2.0.10.353,10/24/2018,10/24/2018 16:12,12:12:39,2.0.10.248,3,2,1,3,,,,,,,,TrainingProc,BlockList,32,2,Distractor2.bmp,2,0,,0,1,1432472,400,,0,0,cyan,400,1,400,4,horizontal,cyan,Distractor2.bmp,purple,Distractor1.bmp,red,Distractor2.bmp,yellow,Distractor1.bmp,blue,Distractor1.bmp,lime,Target2.bmp,,,,TrialProc,,TrainingTrialList,1,2,-999999,0,1432872,0,2,698,1433570,Target2.bmp,lime,2,,,,6,4,80
KW_Experiment5A,38,1,"<?xml version=""1.0""?>\n<Clock xmlns:dt=""urn:schemas-microsoft-com:datatypes""><Description dt:dt=""string"">E-Prime Primary Realtime Clock</Description><StartTime><Timestamp dt:dt=""int"">0</Timestamp><DateUtc dt:dt=""string"">2018-10-24T16:12:39Z</DateUtc></StartTime><FrequencyChanges><FrequencyChange><Frequency dt:dt=""r8"">3215292</Frequency><Timestamp dt:dt=""r8"">1288072134138</Timestamp><Current dt:dt=""r8"">0</Current><DateUtc dt:dt=""string"">2018-10-24T16:12:39Z</DateUtc></FrequencyChange></FrequencyChanges></Clock>\n",KW_Experiment5A-38-1,59.946,1.0.0.105,1,-417401897,Professional,2.0.10.353,2.0.10.353,10/24/2018,10/24/2018 16:12,12:12:39,2.0.10.248,3,2,1,3,,,,,,,,TrainingProc,BlockList,33,1,Distractor2.bmp,2,0,,0,1,1434590,601,,0,0,red,600,3,600,1,vertical,red,Distractor1.bmp,lime,Target1.bmp,cyan,Distractor2.bmp,blue,Distractor1.bmp,purple,Distractor1.bmp,yellow,Distractor2.bmp,,,,TrialProc,,TrainingTrialList,1,1,-999999,1,1435191,0,1,763,1435954,Target1.bmp,lime,1,,,,2,4,81
KW_Experiment5A,38,1,"<?xml version=""1.0""?>\n<Clock xmlns:dt=""urn:schemas-microsoft-com:datatypes""><Description dt:dt=""string"">E-Prime Primary Realtime Clock</Description><StartTime><Timestamp dt:dt=""int"">0</Timestamp><DateUtc dt:dt=""string"">2018-10-24T16:12:39Z</DateUtc></StartTime><FrequencyChanges><FrequencyChange><Frequency dt:dt=""r8"">3215292</Frequency><Timestamp dt:dt=""r8"">1288072134138</Timestamp><Current dt:dt=""r8"">0</Current><DateUtc dt:dt=""string"">2018-10-24T16:12:39Z</DateUtc></FrequencyChange></FrequencyChanges></Clock>\n",KW_Experiment5A-38-1,59.946,1.0.0.105,1,-417401897,Professional,2.0.10.353,2.0.10.353,10/24/2018,10/24/2018 16:12,12:12:39,2.0.10.248,3,2,1,3,,,,,,,,TrainingProc,BlockList,34,2,Distractor2.bmp,2,0,,0,1,1436976,600,,0,0,purple,600,3,600,5,horizontal,purple,Distractor2.bmp,blue,Distractor2.bmp,yellow,Distractor1.bmp,lime,Target2.bmp,red,Distractor2.bmp,cyan,Distractor1.bmp,,,,TrialProc,,TrainingTrialList,1,2,-999999,0,1437576,0,2,786,1438362,Target2.bmp,lime,2,,,,4,4,82
KW_Experiment5A,38,1,"<?xml version=""1.0""?>\n<Clock xmlns:dt=""urn:schemas-microsoft-com:datatypes""><Description dt:dt=""string"">E-Prime Primary Realtime Clock</Description><StartTime><Timestamp dt:dt=""int"">0</Timestamp><DateUtc dt:dt=""string"">2018-10-24T16:12:39Z</DateUtc></StartTime><FrequencyChanges><FrequencyChange><Frequency dt:dt=""r8"">3215292</Frequency><Timestamp dt:dt=""r8"">1288072134138</Timestamp><Current dt:dt=""r8"">0</Current><DateUtc dt:dt=""string"">2018-10-24T16:12:39Z</DateUtc></FrequencyChange></FrequencyChanges></Clock>\n",KW_Experiment5A-38-1,59.946,1.0.0.105,1,-417401897,Professional,2.0.10.353,2.0.10.353,10/24/2018,10/24/2018 16:12,12:12:39,2.0.10.248,3,2,1,3,,,,,,,,TrainingProc,BlockList,35,2,Distractor1.bmp,1,0,,0,1,1439378,600,,0,0,purple,600,3,600,5,horizontal,lime,Target2.bmp,purple,Distractor1.bmp,red,Distractor1.bmp,blue,Distractor1.bmp,cyan,Distractor2.bmp,yellow,Distractor1.bmp,,,,TrialProc,,TrainingTrialList,1,2,-999999,0,1439978,0,2,680,1440658,Target2.bmp,lime,2,,,,1,4,83
KW_Experiment5A,38,1,"<?xml version=""1.0""?>\n<Clock xmlns:dt=""urn:schemas-microsoft-com:datatypes""><Description dt:dt=""string"">E-Prime Primary Realtime Clock</Description><StartTime><Timestamp dt:dt=""int"">0</Timestamp><DateUtc dt:dt=""string"">2018-10-24T16:12:39Z</DateUtc></StartTime><FrequencyChanges><FrequencyChange><Frequency dt:dt=""r8"">3215292</Frequency><Timestamp dt:dt=""r8"">1288072134138</Timestamp><Current dt:dt=""r8"">0</Current><DateUtc dt:dt=""string"">2018-10-24T16:12:39Z</DateUtc></FrequencyChange></FrequencyChanges></Clock>\n",KW_Experiment5A-38-1,59.946,1.0.0.105,1,-417401897,Professional,2.0.10.353,2.0.10.353,10/24/2018,10/24/2018 16:12,12:12:39,2.0.10.248,3,2,1,3,,,,,,,,TrainingProc,BlockList,36,1,Distractor2.bmp,2,0,,0,1,1441680,500,,0,0,red,500,2,500,1,vertical,red,Distractor2.bmp,lime,Target1.bmp,yellow,Distractor2.bmp,purple,Distractor1.bmp,blue,Distractor2.bmp,cyan,Distractor1.bmp,,,,TrialProc,,TrainingTrialList,0,1,-999999,0,1442180,0,2,710,1442890,Target1.bmp,lime,1,,,,2,4,84
KW_Experiment5A,38,1,"<?xml version=""1.0""?>\n<Clock xmlns:dt=""urn:schemas-microsoft-com:datatypes""><Description dt:dt=""string"">E-Prime Primary Realtime Clock</Description><StartTime><Timestamp dt:dt=""int"">0</Timestamp><DateUtc dt:dt=""string"">2018-10-24T16:12:39Z</DateUtc></StartTime><FrequencyChanges><FrequencyChange><Frequency dt:dt=""r8"">3215292</Frequency><Timestamp dt:dt=""r8"">1288072134138</Timestamp><Current dt:dt=""r8"">0</Current><DateUtc dt:dt=""string"">2018-10-24T16:12:39Z</DateUtc></FrequencyChange></FrequencyChanges></Clock>\n",KW_Experiment5A-38-1,59.946,1.0.0.105,1,-417401897,Professional,2.0.10.353,2.0.10.353,10/24/2018,10/24/2018 16:12,12:12:39,2.0.10.248,3,2,1,3,,,,,,,,TrainingProc,BlockList,37,1,Distractor2.bmp,2,0,,0,1,1443915,401,,0,0,cyan,400,1,400,4,vertical,cyan,Distractor2.bmp,yellow,Distractor1.bmp,purple,Distractor1.bmp,red,Distractor1.bmp,blue,Distractor2.bmp,lime,Target1.bmp,,,,TrialProc,,TrainingTrialList,1,1,-999999,1,1444316,0,1,910,1445226,Target1.bmp,lime,1,,,,6,4,85
KW_Experiment5A,38,1,"<?xml version=""1.0""?>\n<Clock xmlns:dt=""urn:schemas-microsoft-com:datatypes""><Description dt:dt=""string"">E-Prime Primary Realtime Clock</Description><StartTime><Timestamp dt:dt=""int"">0</Timestamp><DateUtc dt:dt=""string"">2018-10-24T16:12:39Z</DateUtc></StartTime><FrequencyChanges><FrequencyChange><Frequency dt:dt=""r8"">3215292</Frequency><Timestamp dt:dt=""r8"">1288072134138</Timestamp><Current dt:dt=""r8"">0</Current><DateUtc dt:dt=""string"">2018-10-24T16:12:39Z</DateUtc></FrequencyChange></FrequencyChanges></Clock>\n",KW_Experiment5A-38-1,59.946,1.0.0.105,1,-417401897,Professional,2.0.10.353,2.0.10.353,10/24/2018,10/24/2018 16:12,12:12:39,2.0.10.248,3,2,1,3,,,,,,,,TrainingProc,BlockList,38,1,Distractor2.bmp,2,0,,0,1,1446251,400,,0,0,blue,400,1,400,3,vertical,blue,Distractor2.bmp,red,Distractor2.bmp,cyan,Distractor2.bmp,yellow,Distractor2.bmp,purple,Distractor1.bmp,lime,Target1.bmp,,,,TrialProc,,TrainingTrialList,1,1,-999999,0,1446651,0,1,575,1447226,Target1.bmp,lime,1,,,,6,4,86
KW_Experiment5A,38,1,"<?xml version=""1.0""?>\n<Clock xmlns:dt=""urn:schemas-microsoft-com:datatypes""><Description dt:dt=""string"">E-Prime Primary Realtime Clock</Description><StartTime><Timestamp dt:dt=""int"">0</Timestamp><DateUtc dt:dt=""string"">2018-10-24T16:12:39Z</DateUtc></StartTime><FrequencyChanges><FrequencyChange><Frequency dt:dt=""r8"">3215292</Frequency><Timestamp dt:dt=""r8"">1288072134138</Timestamp><Current dt:dt=""r8"">0</Current><DateUtc dt:dt=""string"">2018-10-24T16:12:39Z</DateUtc></FrequencyChange></FrequencyChanges></Clock>\n",KW_Experiment5A-38-1,59.946,1.0.0.105,1,-417401897,Professional,2.0.10.353,2.0.10.353,10/24/2018,10/24/2018 16:12,12:12:39,2.0.10.248,3,2,1,3,,,,,,,,TrainingProc,BlockList,39,1,Distractor2.bmp,2,0,,0,1,1448236,400,,0,0,purple,400,1,400,5,vertical,purple,Distractor2.bmp,yellow,Distractor1.bmp,red,Distractor1.bmp,lime,Target1.bmp,cyan,Distractor2.bmp,blue,Distractor1.bmp,,,,TrialProc,,TrainingTrialList,1,1,-999999,0,1448636,0,1,870,1449506,Target1.bmp,lime,1,,,,4,4,87
KW_Experiment5A,38,1,"<?xml version=""1.0""?>\n<Clock xmlns:dt=""urn:schemas-microsoft-com:datatypes""><Description dt:dt=""string"">E-Prime Primary Realtime Clock</Description><StartTime><Timestamp dt:dt=""int"">0</Timestamp><DateUtc dt:dt=""string"">2018-10-24T16:12:39Z</DateUtc></StartTime><FrequencyChanges><FrequencyChange><Frequency dt:dt=""r8"">3215292</Frequency><Timestamp dt:dt=""r8"">1288072134138</Timestamp><Current dt:dt=""r8"">0</Current><DateUtc dt:dt=""string"">2018-10-24T16:12:39Z</DateUtc></FrequencyChange></FrequencyChanges></Clock>\n",KW_Experiment5A-38-1,59.946,1.0.0.105,1,-417401897,Professional,2.0.10.353,2.0.10.353,10/24/2018,10/24/2018 16:12,12:12:39,2.0.10.248,3,2,1,3,,,,,,,,TrainingProc,BlockList,40,1,Distractor2.bmp,2,0,,0,1,1450521,401,,0,0,yellow,400,1,400,2,vertical,yellow,Distractor1.bmp,cyan,Distractor2.bmp,red,Distractor2.bmp,lime,Target1.bmp,blue,Distractor2.bmp,purple,Distractor1.bmp,,,,TrialProc,,TrainingTrialList,1,1,-999999,1,1450922,0,1,576,1451498,Target1.bmp,lime,1,,,,4,4,88
KW_Experiment5A,38,1,"<?xml version=""1.0""?>\n<Clock xmlns:dt=""urn:schemas-microsoft-com:datatypes""><Description dt:dt=""string"">E-Prime Primary Realtime Clock</Description><StartTime><Timestamp dt:dt=""int"">0</Timestamp><DateUtc dt:dt=""string"">2018-10-24T16:12:39Z</DateUtc></StartTime><FrequencyChanges><FrequencyChange><Frequency dt:dt=""r8"">3215292</Frequency><Timestamp dt:dt=""r8"">1288072134138</Timestamp><Current dt:dt=""r8"">0</Current><DateUtc dt:dt=""string"">2018-10-24T16:12:39Z</DateUtc></FrequencyChange></FrequencyChanges></Clock>\n",KW_Experiment5A-38-1,59.946,1.0.0.105,1,-417401897,Professional,2.0.10.353,2.0.10.353,10/24/2018,10/24/2018 16:12,12:12:39,2.0.10.248,3,2,1,3,,,,,,,,TrainingProc,BlockList,41,2,Distractor1.bmp,1,0,,0,1,1452523,601,,0,0,blue,600,3,600,,horizontal,blue,Distractor1.bmp,red,Target2.bmp,purple,Distractor1.bmp,cyan,Distractor2.bmp,yellow,Distractor1.bmp,lime,Distractor1.bmp,,,,TrialProc,3,TrainingTrialList,1,2,-999999,1,1453124,0,2,1014,1454138,Target2.bmp,red,2,,,,8,4,89
