ExperimentName,Subject,Session,Clock.Information,DataFile.Basename,Display.RefreshRate,ExperimentVersion,Group,RandomSeed,RuntimeCapabilities,RuntimeVersion,RuntimeVersionExpected,SessionDate,SessionStartDateTimeUtc,SessionTime,StudioVersion,Block,BlockList,BlockList.Cycle,BlockList.Sample,PostTestQ1.RESP,PostTestQ1CJ.RESP,PostTestQ2.RESP,PostTestQ2CJ.RESP,PostTestQ3.RESP,PostTestQ3CJ.RESP,PostTestSlide.RESP,Procedure[Block],Running[Block],Trial,CorrectResponse,Distractor,DistractorList,Fixation.ACC,Fixation.CRESP,Fixation.DurationError,Fixation.OnsetDelay,Fixation.OnsetTime,Fixation.OnsetToOnsetTime,Fixation.RESP,Fixation.RT,Fixation.RTTime,ItemColor,Jitter,JitterList,JitterTime,Lime0List,Orientation,Pos1Color,Pos1Item,Pos2Color,Pos2Item,Pos3Color,Pos3Item,Pos4Color,Pos4Item,Pos5Color,Pos5Item,Pos6Color,Pos6Item,PracticeTrialList,PracticeTrialList.Cycle,PracticeTrialList.Sample,Procedure[Trial],Red0List,Running[Trial],Stimulus.ACC,Stimulus.CRESP,Stimulus.DurationError,Stimulus.OnsetDelay,Stimulus.OnsetTime,Stimulus.OnsetToOnsetTime,Stimulus.RESP,Stimulus.RT,Stimulus.RTTime,Target,TargetColor,TargetList,TestTrialList,TestTrialList.Cycle,TestTrialList.Sample,TrainingTrialList,TrainingTrialList.Cycle,TrainingTrialList.Sample
KW_Experiment5A,3,1,"<?xml version=""1.0""?>\n<Clock xmlns:dt=""urn:schemas-microsoft-com:datatypes""><Description dt:dt=""string"">E-Prime Primary Realtime Clock</Description><StartTime><Timestamp dt:dt=""int"">0</Timestamp><DateUtc dt:dt=""string"">2018-10-08T16:24:07Z</DateUtc></StartTime><FrequencyChanges><FrequencyChange><Frequency dt:dt=""r8"">3215292</Frequency><Timestamp dt:dt=""r8"">3340920834530</Timestamp><Current dt:dt=""r8"">0</Current><DateUtc dt:dt=""string"">2018-10-08T16:24:07Z</DateUtc></FrequencyChange></FrequencyChanges></Clock>\n",KW_Experiment5A-3-1,59.946,1.0.0.105,1,-563086583,Professional,2.0.10.353,2.0.10.353,10/8/2018,10/8/2018 16:24,12:24:07,2.0.10.248,1,1,1,1,,,,,,,,PracticeProc,BlockList,1,2,Distractor2.bmp,2,0,,0,50,1277065,501,,0,0,purple,500,2,500,5,horizontal,lime,Target2.bmp,blue,Distractor2.bmp,cyan,Distractor1.bmp,yellow,Distractor1.bmp,red,Distractor1.bmp,purple,Distractor1.bmp,1,1,1,TrialProc,,PracticeTrialList,0,2,-999999,1,1277566,0,1,10856,1288422,Target2.bmp,lime,2,,,,,,
KW_Experiment5A,3,1,"<?xml version=""1.0""?>\n<Clock xmlns:dt=""urn:schemas-microsoft-com:datatypes""><Description dt:dt=""string"">E-Prime Primary Realtime Clock</Description><StartTime><Timestamp dt:dt=""int"">0</Timestamp><DateUtc dt:dt=""string"">2018-10-08T16:24:07Z</DateUtc></StartTime><FrequencyChanges><FrequencyChange><Frequency dt:dt=""r8"">3215292</Frequency><Timestamp dt:dt=""r8"">3340920834530</Timestamp><Current dt:dt=""r8"">0</Current><DateUtc dt:dt=""string"">2018-10-08T16:24:07Z</DateUtc></FrequencyChange></FrequencyChanges></Clock>\n",KW_Experiment5A-3-1,59.946,1.0.0.105,1,-563086583,Professional,2.0.10.353,2.0.10.353,10/8/2018,10/8/2018 16:24,12:24:07,2.0.10.248,1,1,1,1,,,,,,,,PracticeProc,BlockList,2,1,Distractor1.bmp,1,0,,0,1,1289443,601,,0,0,cyan,600,3,600,,vertical,cyan,Distractor1.bmp,red,Target1.bmp,purple,Distractor1.bmp,yellow,Distractor2.bmp,blue,Distractor2.bmp,lime,Distractor2.bmp,2,1,2,TrialProc,4,PracticeTrialList,1,1,-999999,1,1290044,0,1,4242,1294286,Target1.bmp,red,1,,,,,,
KW_Experiment5A,3,1,"<?xml version=""1.0""?>\n<Clock xmlns:dt=""urn:schemas-microsoft-com:datatypes""><Description dt:dt=""string"">E-Prime Primary Realtime Clock</Description><StartTime><Timestamp dt:dt=""int"">0</Timestamp><DateUtc dt:dt=""string"">2018-10-08T16:24:07Z</DateUtc></StartTime><FrequencyChanges><FrequencyChange><Frequency dt:dt=""r8"">3215292</Frequency><Timestamp dt:dt=""r8"">3340920834530</Timestamp><Current dt:dt=""r8"">0</Current><DateUtc dt:dt=""string"">2018-10-08T16:24:07Z</DateUtc></FrequencyChange></FrequencyChanges></Clock>\n",KW_Experiment5A-3-1,59.946,1.0.0.105,1,-563086583,Professional,2.0.10.353,2.0.10.353,10/8/2018,10/8/2018 16:24,12:24:07,2.0.10.248,1,1,1,1,,,,,,,,PracticeProc,BlockList,3,1,Distractor1.bmp,1,0,,0,1,1295299,400,,0,0,red,400,1,400,1,vertical,cyan,Distractor2.bmp,blue,Distractor2.bmp,yellow,Distractor2.bmp,red,Distractor1.bmp,lime,Target1.bmp,purple,Distractor1.bmp,5,1,3,TrialProc,,PracticeTrialList,1,1,-999999,0,1295699,0,1,1699,1297398,Target1.bmp,lime,1,,,,,,
KW_Experiment5A,3,1,"<?xml version=""1.0""?>\n<Clock xmlns:dt=""urn:schemas-microsoft-com:datatypes""><Description dt:dt=""string"">E-Prime Primary Realtime Clock</Description><StartTime><Timestamp dt:dt=""int"">0</Timestamp><DateUtc dt:dt=""string"">2018-10-08T16:24:07Z</DateUtc></StartTime><FrequencyChanges><FrequencyChange><Frequency dt:dt=""r8"">3215292</Frequency><Timestamp dt:dt=""r8"">3340920834530</Timestamp><Current dt:dt=""r8"">0</Current><DateUtc dt:dt=""string"">2018-10-08T16:24:07Z</DateUtc></FrequencyChange></FrequencyChanges></Clock>\n",KW_Experiment5A-3-1,59.946,1.0.0.105,1,-563086583,Professional,2.0.10.353,2.0.10.353,10/8/2018,10/8/2018 16:24,12:24:07,2.0.10.248,1,1,1,1,,,,,,,,PracticeProc,BlockList,4,2,Distractor2.bmp,2,0,,0,1,1298418,601,,0,0,blue,600,3,600,,horizontal,yellow,Distractor2.bmp,cyan,Distractor2.bmp,lime,Distractor2.bmp,purple,Distractor2.bmp,blue,Distractor2.bmp,red,Target2.bmp,6,1,4,TrialProc,3,PracticeTrialList,1,2,-999999,1,1299019,0,2,1099,1300118,Target2.bmp,red,2,,,,,,
KW_Experiment5A,3,1,"<?xml version=""1.0""?>\n<Clock xmlns:dt=""urn:schemas-microsoft-com:datatypes""><Description dt:dt=""string"">E-Prime Primary Realtime Clock</Description><StartTime><Timestamp dt:dt=""int"">0</Timestamp><DateUtc dt:dt=""string"">2018-10-08T16:24:07Z</DateUtc></StartTime><FrequencyChanges><FrequencyChange><Frequency dt:dt=""r8"">3215292</Frequency><Timestamp dt:dt=""r8"">3340920834530</Timestamp><Current dt:dt=""r8"">0</Current><DateUtc dt:dt=""string"">2018-10-08T16:24:07Z</DateUtc></FrequencyChange></FrequencyChanges></Clock>\n",KW_Experiment5A-3-1,59.946,1.0.0.105,1,-563086583,Professional,2.0.10.353,2.0.10.353,10/8/2018,10/8/2018 16:24,12:24:07,2.0.10.248,1,1,1,1,,,,,,,,PracticeProc,BlockList,5,1,Distractor1.bmp,1,0,,0,1,1301137,601,,0,0,red,600,3,600,1,vertical,yellow,Distractor2.bmp,red,Distractor1.bmp,lime,Target1.bmp,purple,Distractor1.bmp,blue,Distractor1.bmp,cyan,Distractor2.bmp,3,1,5,TrialProc,,PracticeTrialList,1,1,-999999,1,1301738,0,1,1628,1303366,Target1.bmp,lime,1,,,,,,
KW_Experiment5A,3,1,"<?xml version=""1.0""?>\n<Clock xmlns:dt=""urn:schemas-microsoft-com:datatypes""><Description dt:dt=""string"">E-Prime Primary Realtime Clock</Description><StartTime><Timestamp dt:dt=""int"">0</Timestamp><DateUtc dt:dt=""string"">2018-10-08T16:24:07Z</DateUtc></StartTime><FrequencyChanges><FrequencyChange><Frequency dt:dt=""r8"">3215292</Frequency><Timestamp dt:dt=""r8"">3340920834530</Timestamp><Current dt:dt=""r8"">0</Current><DateUtc dt:dt=""string"">2018-10-08T16:24:07Z</DateUtc></FrequencyChange></FrequencyChanges></Clock>\n",KW_Experiment5A-3-1,59.946,1.0.0.105,1,-563086583,Professional,2.0.10.353,2.0.10.353,10/8/2018,10/8/2018 16:24,12:24:07,2.0.10.248,1,1,1,1,,,,,,,,PracticeProc,BlockList,6,2,Distractor1.bmp,1,0,,0,1,1304390,601,,0,0,cyan,600,3,600,,horizontal,yellow,Distractor2.bmp,purple,Distractor1.bmp,cyan,Distractor2.bmp,red,Target2.bmp,blue,Distractor1.bmp,lime,Distractor2.bmp,4,1,6,TrialProc,4,PracticeTrialList,1,2,-999999,1,1304991,0,2,919,1305910,Target2.bmp,red,2,,,,,,
KW_Experiment5A,3,1,"<?xml version=""1.0""?>\n<Clock xmlns:dt=""urn:schemas-microsoft-com:datatypes""><Description dt:dt=""string"">E-Prime Primary Realtime Clock</Description><StartTime><Timestamp dt:dt=""int"">0</Timestamp><DateUtc dt:dt=""string"">2018-10-08T16:24:07Z</DateUtc></StartTime><FrequencyChanges><FrequencyChange><Frequency dt:dt=""r8"">3215292</Frequency><Timestamp dt:dt=""r8"">3340920834530</Timestamp><Current dt:dt=""r8"">0</Current><DateUtc dt:dt=""string"">2018-10-08T16:24:07Z</DateUtc></FrequencyChange></FrequencyChanges></Clock>\n",KW_Experiment5A-3-1,59.946,1.0.0.105,1,-563086583,Professional,2.0.10.353,2.0.10.353,10/8/2018,10/8/2018 16:24,12:24:07,2.0.10.248,2,2,1,2,,,,,,,,TrainingProc,BlockList,1,1,Distractor1.bmp,1,0,,0,26,1312848,500,,0,0,yellow,500,2,500,,vertical,yellow,Distractor2.bmp,cyan,Distractor2.bmp,red,Target1.bmp,blue,Distractor1.bmp,lime,Distractor2.bmp,purple,Distractor2.bmp,,,,TrialProc,2,TrainingTrialList,1,1,-999999,0,1313348,0,1,906,1314254,Target1.bmp,red,1,,,,9,1,1
KW_Experiment5A,3,1,"<?xml version=""1.0""?>\n<Clock xmlns:dt=""urn:schemas-microsoft-com:datatypes""><Description dt:dt=""string"">E-Prime Primary Realtime Clock</Description><StartTime><Timestamp dt:dt=""int"">0</Timestamp><DateUtc dt:dt=""string"">2018-10-08T16:24:07Z</DateUtc></StartTime><FrequencyChanges><FrequencyChange><Frequency dt:dt=""r8"">3215292</Frequency><Timestamp dt:dt=""r8"">3340920834530</Timestamp><Current dt:dt=""r8"">0</Current><DateUtc dt:dt=""string"">2018-10-08T16:24:07Z</DateUtc></FrequencyChange></FrequencyChanges></Clock>\n",KW_Experiment5A-3-1,59.946,1.0.0.105,1,-563086583,Professional,2.0.10.353,2.0.10.353,10/8/2018,10/8/2018 16:24,12:24:07,2.0.10.248,2,2,1,2,,,,,,,,TrainingProc,BlockList,2,1,Distractor1.bmp,1,0,,0,1,1315267,500,,0,0,cyan,500,2,500,4,vertical,cyan,Distractor1.bmp,purple,Distractor1.bmp,lime,Target1.bmp,yellow,Distractor1.bmp,blue,Distractor2.bmp,red,Distractor2.bmp,,,,TrialProc,,TrainingTrialList,1,1,-999999,0,1315767,0,1,655,1316422,Target1.bmp,lime,1,,,,3,1,2
KW_Experiment5A,3,1,"<?xml version=""1.0""?>\n<Clock xmlns:dt=""urn:schemas-microsoft-com:datatypes""><Description dt:dt=""string"">E-Prime Primary Realtime Clock</Description><StartTime><Timestamp dt:dt=""int"">0</Timestamp><DateUtc dt:dt=""string"">2018-10-08T16:24:07Z</DateUtc></StartTime><FrequencyChanges><FrequencyChange><Frequency dt:dt=""r8"">3215292</Frequency><Timestamp dt:dt=""r8"">3340920834530</Timestamp><Current dt:dt=""r8"">0</Current><DateUtc dt:dt=""string"">2018-10-08T16:24:07Z</DateUtc></FrequencyChange></FrequencyChanges></Clock>\n",KW_Experiment5A-3-1,59.946,1.0.0.105,1,-563086583,Professional,2.0.10.353,2.0.10.353,10/8/2018,10/8/2018 16:24,12:24:07,2.0.10.248,2,2,1,2,,,,,,,,TrainingProc,BlockList,3,2,Distractor1.bmp,1,0,,0,1,1317435,601,,0,0,blue,600,3,600,3,horizontal,blue,Distractor2.bmp,lime,Target2.bmp,cyan,Distractor1.bmp,purple,Distractor1.bmp,yellow,Distractor2.bmp,red,Distractor1.bmp,,,,TrialProc,,TrainingTrialList,1,2,-999999,1,1318036,0,2,610,1318646,Target2.bmp,lime,2,,,,2,1,3
KW_Experiment5A,3,1,"<?xml version=""1.0""?>\n<Clock xmlns:dt=""urn:schemas-microsoft-com:datatypes""><Description dt:dt=""string"">E-Prime Primary Realtime Clock</Description><StartTime><Timestamp dt:dt=""int"">0</Timestamp><DateUtc dt:dt=""string"">2018-10-08T16:24:07Z</DateUtc></StartTime><FrequencyChanges><FrequencyChange><Frequency dt:dt=""r8"">3215292</Frequency><Timestamp dt:dt=""r8"">3340920834530</Timestamp><Current dt:dt=""r8"">0</Current><DateUtc dt:dt=""string"">2018-10-08T16:24:07Z</DateUtc></FrequencyChange></FrequencyChanges></Clock>\n",KW_Experiment5A-3-1,59.946,1.0.0.105,1,-563086583,Professional,2.0.10.353,2.0.10.353,10/8/2018,10/8/2018 16:24,12:24:07,2.0.10.248,2,2,1,2,,,,,,,,TrainingProc,BlockList,4,2,Distractor1.bmp,1,0,,0,1,1319671,400,,0,0,blue,400,1,400,,horizontal,red,Target2.bmp,purple,Distractor1.bmp,cyan,Distractor2.bmp,yellow,Distractor1.bmp,lime,Distractor1.bmp,blue,Distractor2.bmp,,,,TrialProc,3,TrainingTrialList,1,2,-999999,0,1320071,0,2,831,1320902,Target2.bmp,red,2,,,,7,1,4
KW_Experiment5A,3,1,"<?xml version=""1.0""?>\n<Clock xmlns:dt=""urn:schemas-microsoft-com:datatypes""><Description dt:dt=""string"">E-Prime Primary Realtime Clock</Description><StartTime><Timestamp dt:dt=""int"">0</Timestamp><DateUtc dt:dt=""string"">2018-10-08T16:24:07Z</DateUtc></StartTime><FrequencyChanges><FrequencyChange><Frequency dt:dt=""r8"">3215292</Frequency><Timestamp dt:dt=""r8"">3340920834530</Timestamp><Current dt:dt=""r8"">0</Current><DateUtc dt:dt=""string"">2018-10-08T16:24:07Z</DateUtc></FrequencyChange></FrequencyChanges></Clock>\n",KW_Experiment5A-3-1,59.946,1.0.0.105,1,-563086583,Professional,2.0.10.353,2.0.10.353,10/8/2018,10/8/2018 16:24,12:24:07,2.0.10.248,2,2,1,2,,,,,,,,TrainingProc,BlockList,5,2,Distractor2.bmp,2,0,,0,1,1321923,600,,0,0,red,600,3,600,1,horizontal,red,Distractor2.bmp,purple,Distractor1.bmp,yellow,Distractor1.bmp,blue,Distractor2.bmp,cyan,Distractor1.bmp,lime,Target2.bmp,,,,TrialProc,,TrainingTrialList,0,2,-999999,0,1322523,0,1,1003,1323526,Target2.bmp,lime,2,,,,6,1,5
KW_Experiment5A,3,1,"<?xml version=""1.0""?>\n<Clock xmlns:dt=""urn:schemas-microsoft-com:datatypes""><Description dt:dt=""string"">E-Prime Primary Realtime Clock</Description><StartTime><Timestamp dt:dt=""int"">0</Timestamp><DateUtc dt:dt=""string"">2018-10-08T16:24:07Z</DateUtc></StartTime><FrequencyChanges><FrequencyChange><Frequency dt:dt=""r8"">3215292</Frequency><Timestamp dt:dt=""r8"">3340920834530</Timestamp><Current dt:dt=""r8"">0</Current><DateUtc dt:dt=""string"">2018-10-08T16:24:07Z</DateUtc></FrequencyChange></FrequencyChanges></Clock>\n",KW_Experiment5A-3-1,59.946,1.0.0.105,1,-563086583,Professional,2.0.10.353,2.0.10.353,10/8/2018,10/8/2018 16:24,12:24:07,2.0.10.248,2,2,1,2,,,,,,,,TrainingProc,BlockList,6,2,Distractor2.bmp,2,0,,0,1,1324542,600,,0,0,purple,600,3,600,,horizontal,purple,Distractor2.bmp,cyan,Distractor2.bmp,yellow,Distractor1.bmp,red,Target2.bmp,lime,Distractor2.bmp,blue,Distractor2.bmp,,,,TrialProc,5,TrainingTrialList,1,2,-999999,0,1325142,0,2,1239,1326381,Target2.bmp,red,2,,,,10,1,6
KW_Experiment5A,3,1,"<?xml version=""1.0""?>\n<Clock xmlns:dt=""urn:schemas-microsoft-com:datatypes""><Description dt:dt=""string"">E-Prime Primary Realtime Clock</Description><StartTime><Timestamp dt:dt=""int"">0</Timestamp><DateUtc dt:dt=""string"">2018-10-08T16:24:07Z</DateUtc></StartTime><FrequencyChanges><FrequencyChange><Frequency dt:dt=""r8"">3215292</Frequency><Timestamp dt:dt=""r8"">3340920834530</Timestamp><Current dt:dt=""r8"">0</Current><DateUtc dt:dt=""string"">2018-10-08T16:24:07Z</DateUtc></FrequencyChange></FrequencyChanges></Clock>\n",KW_Experiment5A-3-1,59.946,1.0.0.105,1,-563086583,Professional,2.0.10.353,2.0.10.353,10/8/2018,10/8/2018 16:24,12:24:07,2.0.10.248,2,2,1,2,,,,,,,,TrainingProc,BlockList,7,2,Distractor1.bmp,1,0,,0,1,1327394,401,,0,0,purple,400,1,400,,horizontal,purple,Distractor1.bmp,blue,Distractor1.bmp,lime,Distractor1.bmp,yellow,Distractor2.bmp,cyan,Distractor1.bmp,red,Target2.bmp,,,,TrialProc,5,TrainingTrialList,1,2,-999999,1,1327795,0,2,914,1328709,Target2.bmp,red,2,,,,12,1,7
KW_Experiment5A,3,1,"<?xml version=""1.0""?>\n<Clock xmlns:dt=""urn:schemas-microsoft-com:datatypes""><Description dt:dt=""string"">E-Prime Primary Realtime Clock</Description><StartTime><Timestamp dt:dt=""int"">0</Timestamp><DateUtc dt:dt=""string"">2018-10-08T16:24:07Z</DateUtc></StartTime><FrequencyChanges><FrequencyChange><Frequency dt:dt=""r8"">3215292</Frequency><Timestamp dt:dt=""r8"">3340920834530</Timestamp><Current dt:dt=""r8"">0</Current><DateUtc dt:dt=""string"">2018-10-08T16:24:07Z</DateUtc></FrequencyChange></FrequencyChanges></Clock>\n",KW_Experiment5A-3-1,59.946,1.0.0.105,1,-563086583,Professional,2.0.10.353,2.0.10.353,10/8/2018,10/8/2018 16:24,12:24:07,2.0.10.248,2,2,1,2,,,,,,,,TrainingProc,BlockList,8,2,Distractor2.bmp,2,0,,0,1,1329730,400,,0,0,red,400,1,400,1,horizontal,red,Distractor1.bmp,lime,Target2.bmp,purple,Distractor2.bmp,yellow,Distractor1.bmp,blue,Distractor1.bmp,cyan,Distractor1.bmp,,,,TrialProc,,TrainingTrialList,1,2,-999999,0,1330130,0,2,931,1331061,Target2.bmp,lime,2,,,,2,1,8
KW_Experiment5A,3,1,"<?xml version=""1.0""?>\n<Clock xmlns:dt=""urn:schemas-microsoft-com:datatypes""><Description dt:dt=""string"">E-Prime Primary Realtime Clock</Description><StartTime><Timestamp dt:dt=""int"">0</Timestamp><DateUtc dt:dt=""string"">2018-10-08T16:24:07Z</DateUtc></StartTime><FrequencyChanges><FrequencyChange><Frequency dt:dt=""r8"">3215292</Frequency><Timestamp dt:dt=""r8"">3340920834530</Timestamp><Current dt:dt=""r8"">0</Current><DateUtc dt:dt=""string"">2018-10-08T16:24:07Z</DateUtc></FrequencyChange></FrequencyChanges></Clock>\n",KW_Experiment5A-3-1,59.946,1.0.0.105,1,-563086583,Professional,2.0.10.353,2.0.10.353,10/8/2018,10/8/2018 16:24,12:24:07,2.0.10.248,2,2,1,2,,,,,,,,TrainingProc,BlockList,9,1,Distractor1.bmp,1,0,,0,1,1332082,500,,0,0,purple,500,2,500,5,vertical,purple,Distractor1.bmp,yellow,Distractor1.bmp,cyan,Distractor1.bmp,red,Distractor2.bmp,lime,Target1.bmp,blue,Distractor1.bmp,,,,TrialProc,,TrainingTrialList,1,1,-999999,0,1332582,0,1,1119,1333701,Target1.bmp,lime,1,,,,5,1,9
KW_Experiment5A,3,1,"<?xml version=""1.0""?>\n<Clock xmlns:dt=""urn:schemas-microsoft-com:datatypes""><Description dt:dt=""string"">E-Prime Primary Realtime Clock</Description><StartTime><Timestamp dt:dt=""int"">0</Timestamp><DateUtc dt:dt=""string"">2018-10-08T16:24:07Z</DateUtc></StartTime><FrequencyChanges><FrequencyChange><Frequency dt:dt=""r8"">3215292</Frequency><Timestamp dt:dt=""r8"">3340920834530</Timestamp><Current dt:dt=""r8"">0</Current><DateUtc dt:dt=""string"">2018-10-08T16:24:07Z</DateUtc></FrequencyChange></FrequencyChanges></Clock>\n",KW_Experiment5A-3-1,59.946,1.0.0.105,1,-563086583,Professional,2.0.10.353,2.0.10.353,10/8/2018,10/8/2018 16:24,12:24:07,2.0.10.248,2,2,1,2,,,,,,,,TrainingProc,BlockList,10,2,Distractor2.bmp,2,0,,0,1,1334718,600,,0,0,yellow,600,3,600,2,horizontal,yellow,Distractor1.bmp,red,Distractor2.bmp,cyan,Distractor1.bmp,lime,Target2.bmp,purple,Distractor2.bmp,blue,Distractor2.bmp,,,,TrialProc,,TrainingTrialList,1,2,-999999,0,1335318,0,2,839,1336157,Target2.bmp,lime,2,,,,4,1,10
KW_Experiment5A,3,1,"<?xml version=""1.0""?>\n<Clock xmlns:dt=""urn:schemas-microsoft-com:datatypes""><Description dt:dt=""string"">E-Prime Primary Realtime Clock</Description><StartTime><Timestamp dt:dt=""int"">0</Timestamp><DateUtc dt:dt=""string"">2018-10-08T16:24:07Z</DateUtc></StartTime><FrequencyChanges><FrequencyChange><Frequency dt:dt=""r8"">3215292</Frequency><Timestamp dt:dt=""r8"">3340920834530</Timestamp><Current dt:dt=""r8"">0</Current><DateUtc dt:dt=""string"">2018-10-08T16:24:07Z</DateUtc></FrequencyChange></FrequencyChanges></Clock>\n",KW_Experiment5A-3-1,59.946,1.0.0.105,1,-563086583,Professional,2.0.10.353,2.0.10.353,10/8/2018,10/8/2018 16:24,12:24:07,2.0.10.248,2,2,1,2,,,,,,,,TrainingProc,BlockList,11,2,Distractor2.bmp,2,0,,0,1,1337170,600,,0,0,yellow,600,3,600,2,horizontal,yellow,Distractor1.bmp,blue,Distractor1.bmp,lime,Target2.bmp,purple,Distractor2.bmp,red,Distractor2.bmp,cyan,Distractor1.bmp,,,,TrialProc,,TrainingTrialList,1,2,-999999,0,1337770,0,2,955,1338725,Target2.bmp,lime,2,,,,3,1,11
KW_Experiment5A,3,1,"<?xml version=""1.0""?>\n<Clock xmlns:dt=""urn:schemas-microsoft-com:datatypes""><Description dt:dt=""string"">E-Prime Primary Realtime Clock</Description><StartTime><Timestamp dt:dt=""int"">0</Timestamp><DateUtc dt:dt=""string"">2018-10-08T16:24:07Z</DateUtc></StartTime><FrequencyChanges><FrequencyChange><Frequency dt:dt=""r8"">3215292</Frequency><Timestamp dt:dt=""r8"">3340920834530</Timestamp><Current dt:dt=""r8"">0</Current><DateUtc dt:dt=""string"">2018-10-08T16:24:07Z</DateUtc></FrequencyChange></FrequencyChanges></Clock>\n",KW_Experiment5A-3-1,59.946,1.0.0.105,1,-563086583,Professional,2.0.10.353,2.0.10.353,10/8/2018,10/8/2018 16:24,12:24:07,2.0.10.248,2,2,1,2,,,,,,,,TrainingProc,BlockList,12,1,Distractor1.bmp,1,0,,0,1,1339739,400,,0,0,cyan,400,1,400,4,vertical,lime,Target1.bmp,cyan,Distractor1.bmp,purple,Distractor2.bmp,blue,Distractor2.bmp,red,Distractor1.bmp,yellow,Distractor1.bmp,,,,TrialProc,,TrainingTrialList,1,1,-999999,0,1340139,0,1,746,1340885,Target1.bmp,lime,1,,,,1,1,12
KW_Experiment5A,3,1,"<?xml version=""1.0""?>\n<Clock xmlns:dt=""urn:schemas-microsoft-com:datatypes""><Description dt:dt=""string"">E-Prime Primary Realtime Clock</Description><StartTime><Timestamp dt:dt=""int"">0</Timestamp><DateUtc dt:dt=""string"">2018-10-08T16:24:07Z</DateUtc></StartTime><FrequencyChanges><FrequencyChange><Frequency dt:dt=""r8"">3215292</Frequency><Timestamp dt:dt=""r8"">3340920834530</Timestamp><Current dt:dt=""r8"">0</Current><DateUtc dt:dt=""string"">2018-10-08T16:24:07Z</DateUtc></FrequencyChange></FrequencyChanges></Clock>\n",KW_Experiment5A-3-1,59.946,1.0.0.105,1,-563086583,Professional,2.0.10.353,2.0.10.353,10/8/2018,10/8/2018 16:24,12:24:07,2.0.10.248,2,2,1,2,,,,,,,,TrainingProc,BlockList,13,2,Distractor2.bmp,2,0,,0,1,1341908,400,,0,0,purple,400,1,400,5,horizontal,lime,Target2.bmp,purple,Distractor2.bmp,blue,Distractor2.bmp,yellow,Distractor1.bmp,red,Distractor1.bmp,cyan,Distractor2.bmp,,,,TrialProc,,TrainingTrialList,1,2,-999999,0,1342308,0,2,769,1343077,Target2.bmp,lime,2,,,,1,1,13
KW_Experiment5A,3,1,"<?xml version=""1.0""?>\n<Clock xmlns:dt=""urn:schemas-microsoft-com:datatypes""><Description dt:dt=""string"">E-Prime Primary Realtime Clock</Description><StartTime><Timestamp dt:dt=""int"">0</Timestamp><DateUtc dt:dt=""string"">2018-10-08T16:24:07Z</DateUtc></StartTime><FrequencyChanges><FrequencyChange><Frequency dt:dt=""r8"">3215292</Frequency><Timestamp dt:dt=""r8"">3340920834530</Timestamp><Current dt:dt=""r8"">0</Current><DateUtc dt:dt=""string"">2018-10-08T16:24:07Z</DateUtc></FrequencyChange></FrequencyChanges></Clock>\n",KW_Experiment5A-3-1,59.946,1.0.0.105,1,-563086583,Professional,2.0.10.353,2.0.10.353,10/8/2018,10/8/2018 16:24,12:24:07,2.0.10.248,2,2,1,2,,,,,,,,TrainingProc,BlockList,14,1,Distractor2.bmp,2,0,,0,1,1344093,600,,0,0,blue,600,3,600,3,vertical,blue,Distractor2.bmp,red,Distractor2.bmp,yellow,Distractor1.bmp,lime,Target1.bmp,cyan,Distractor2.bmp,purple,Distractor1.bmp,,,,TrialProc,,TrainingTrialList,1,1,-999999,0,1344693,0,1,1264,1345957,Target1.bmp,lime,1,,,,4,1,14
KW_Experiment5A,3,1,"<?xml version=""1.0""?>\n<Clock xmlns:dt=""urn:schemas-microsoft-com:datatypes""><Description dt:dt=""string"">E-Prime Primary Realtime Clock</Description><StartTime><Timestamp dt:dt=""int"">0</Timestamp><DateUtc dt:dt=""string"">2018-10-08T16:24:07Z</DateUtc></StartTime><FrequencyChanges><FrequencyChange><Frequency dt:dt=""r8"">3215292</Frequency><Timestamp dt:dt=""r8"">3340920834530</Timestamp><Current dt:dt=""r8"">0</Current><DateUtc dt:dt=""string"">2018-10-08T16:24:07Z</DateUtc></FrequencyChange></FrequencyChanges></Clock>\n",KW_Experiment5A-3-1,59.946,1.0.0.105,1,-563086583,Professional,2.0.10.353,2.0.10.353,10/8/2018,10/8/2018 16:24,12:24:07,2.0.10.248,2,2,1,2,,,,,,,,TrainingProc,BlockList,15,1,Distractor2.bmp,2,0,,0,1,1346979,400,,0,0,yellow,400,1,400,2,vertical,yellow,Distractor1.bmp,purple,Distractor1.bmp,lime,Target1.bmp,cyan,Distractor2.bmp,blue,Distractor1.bmp,red,Distractor2.bmp,,,,TrialProc,,TrainingTrialList,0,1,-999999,0,1347379,0,2,698,1348077,Target1.bmp,lime,1,,,,3,1,15
KW_Experiment5A,3,1,"<?xml version=""1.0""?>\n<Clock xmlns:dt=""urn:schemas-microsoft-com:datatypes""><Description dt:dt=""string"">E-Prime Primary Realtime Clock</Description><StartTime><Timestamp dt:dt=""int"">0</Timestamp><DateUtc dt:dt=""string"">2018-10-08T16:24:07Z</DateUtc></StartTime><FrequencyChanges><FrequencyChange><Frequency dt:dt=""r8"">3215292</Frequency><Timestamp dt:dt=""r8"">3340920834530</Timestamp><Current dt:dt=""r8"">0</Current><DateUtc dt:dt=""string"">2018-10-08T16:24:07Z</DateUtc></FrequencyChange></FrequencyChanges></Clock>\n",KW_Experiment5A-3-1,59.946,1.0.0.105,1,-563086583,Professional,2.0.10.353,2.0.10.353,10/8/2018,10/8/2018 16:24,12:24:07,2.0.10.248,2,2,1,2,,,,,,,,TrainingProc,BlockList,16,2,Distractor2.bmp,2,0,,0,1,1349097,401,,0,0,yellow,400,1,400,2,horizontal,yellow,Distractor1.bmp,lime,Target2.bmp,blue,Distractor2.bmp,red,Distractor2.bmp,purple,Distractor2.bmp,cyan,Distractor1.bmp,,,,TrialProc,,TrainingTrialList,0,2,-999999,1,1349498,0,1,635,1350133,Target2.bmp,lime,2,,,,2,1,16
KW_Experiment5A,3,1,"<?xml version=""1.0""?>\n<Clock xmlns:dt=""urn:schemas-microsoft-com:datatypes""><Description dt:dt=""string"">E-Prime Primary Realtime Clock</Description><StartTime><Timestamp dt:dt=""int"">0</Timestamp><DateUtc dt:dt=""string"">2018-10-08T16:24:07Z</DateUtc></StartTime><FrequencyChanges><FrequencyChange><Frequency dt:dt=""r8"">3215292</Frequency><Timestamp dt:dt=""r8"">3340920834530</Timestamp><Current dt:dt=""r8"">0</Current><DateUtc dt:dt=""string"">2018-10-08T16:24:07Z</DateUtc></FrequencyChange></FrequencyChanges></Clock>\n",KW_Experiment5A-3-1,59.946,1.0.0.105,1,-563086583,Professional,2.0.10.353,2.0.10.353,10/8/2018,10/8/2018 16:24,12:24:07,2.0.10.248,2,2,1,2,,,,,,,,TrainingProc,BlockList,17,1,Distractor2.bmp,2,0,,0,1,1351149,601,,0,0,red,600,3,600,1,vertical,red,Distractor1.bmp,purple,Distractor2.bmp,cyan,Distractor1.bmp,blue,Distractor1.bmp,lime,Target1.bmp,yellow,Distractor2.bmp,,,,TrialProc,,TrainingTrialList,0,1,-999999,1,1351750,0,2,391,1352141,Target1.bmp,lime,1,,,,5,1,17
KW_Experiment5A,3,1,"<?xml version=""1.0""?>\n<Clock xmlns:dt=""urn:schemas-microsoft-com:datatypes""><Description dt:dt=""string"">E-Prime Primary Realtime Clock</Description><StartTime><Timestamp dt:dt=""int"">0</Timestamp><DateUtc dt:dt=""string"">2018-10-08T16:24:07Z</DateUtc></StartTime><FrequencyChanges><FrequencyChange><Frequency dt:dt=""r8"">3215292</Frequency><Timestamp dt:dt=""r8"">3340920834530</Timestamp><Current dt:dt=""r8"">0</Current><DateUtc dt:dt=""string"">2018-10-08T16:24:07Z</DateUtc></FrequencyChange></FrequencyChanges></Clock>\n",KW_Experiment5A-3-1,59.946,1.0.0.105,1,-563086583,Professional,2.0.10.353,2.0.10.353,10/8/2018,10/8/2018 16:24,12:24:07,2.0.10.248,2,2,1,2,,,,,,,,TrainingProc,BlockList,18,2,Distractor1.bmp,1,0,,0,1,1353168,400,,0,0,cyan,400,1,400,,horizontal,cyan,Distractor1.bmp,red,Target2.bmp,lime,Distractor1.bmp,yellow,Distractor2.bmp,blue,Distractor1.bmp,purple,Distractor1.bmp,,,,TrialProc,4,TrainingTrialList,0,2,-999999,0,1353568,0,1,77,1353645,Target2.bmp,red,2,,,,8,1,18
KW_Experiment5A,3,1,"<?xml version=""1.0""?>\n<Clock xmlns:dt=""urn:schemas-microsoft-com:datatypes""><Description dt:dt=""string"">E-Prime Primary Realtime Clock</Description><StartTime><Timestamp dt:dt=""int"">0</Timestamp><DateUtc dt:dt=""string"">2018-10-08T16:24:07Z</DateUtc></StartTime><FrequencyChanges><FrequencyChange><Frequency dt:dt=""r8"">3215292</Frequency><Timestamp dt:dt=""r8"">3340920834530</Timestamp><Current dt:dt=""r8"">0</Current><DateUtc dt:dt=""string"">2018-10-08T16:24:07Z</DateUtc></FrequencyChange></FrequencyChanges></Clock>\n",KW_Experiment5A-3-1,59.946,1.0.0.105,1,-563086583,Professional,2.0.10.353,2.0.10.353,10/8/2018,10/8/2018 16:24,12:24:07,2.0.10.248,2,2,1,2,,,,,,,,TrainingProc,BlockList,19,1,Distractor2.bmp,2,0,,0,1,1354669,501,,0,0,red,500,2,500,1,vertical,red,Distractor2.bmp,yellow,Distractor1.bmp,purple,Distractor1.bmp,cyan,Distractor1.bmp,blue,Distractor2.bmp,lime,Target1.bmp,,,,TrialProc,,TrainingTrialList,1,1,-999999,1,1355170,0,1,363,1355533,Target1.bmp,lime,1,,,,6,1,19
KW_Experiment5A,3,1,"<?xml version=""1.0""?>\n<Clock xmlns:dt=""urn:schemas-microsoft-com:datatypes""><Description dt:dt=""string"">E-Prime Primary Realtime Clock</Description><StartTime><Timestamp dt:dt=""int"">0</Timestamp><DateUtc dt:dt=""string"">2018-10-08T16:24:07Z</DateUtc></StartTime><FrequencyChanges><FrequencyChange><Frequency dt:dt=""r8"">3215292</Frequency><Timestamp dt:dt=""r8"">3340920834530</Timestamp><Current dt:dt=""r8"">0</Current><DateUtc dt:dt=""string"">2018-10-08T16:24:07Z</DateUtc></FrequencyChange></FrequencyChanges></Clock>\n",KW_Experiment5A-3-1,59.946,1.0.0.105,1,-563086583,Professional,2.0.10.353,2.0.10.353,10/8/2018,10/8/2018 16:24,12:24:07,2.0.10.248,2,2,1,2,,,,,,,,TrainingProc,BlockList,20,1,Distractor2.bmp,2,0,,0,1,1356554,501,,0,0,blue,500,2,500,,vertical,blue,Distractor2.bmp,cyan,Distractor2.bmp,purple,Distractor2.bmp,yellow,Distractor1.bmp,red,Target1.bmp,lime,Distractor2.bmp,,,,TrialProc,3,TrainingTrialList,1,1,-999999,1,1357055,0,1,238,1357293,Target1.bmp,red,1,,,,11,1,20
KW_Experiment5A,3,1,"<?xml version=""1.0""?>\n<Clock xmlns:dt=""urn:schemas-microsoft-com:datatypes""><Description dt:dt=""string"">E-Prime Primary Realtime Clock</Description><StartTime><Timestamp dt:dt=""int"">0</Timestamp><DateUtc dt:dt=""string"">2018-10-08T16:24:07Z</DateUtc></StartTime><FrequencyChanges><FrequencyChange><Frequency dt:dt=""r8"">3215292</Frequency><Timestamp dt:dt=""r8"">3340920834530</Timestamp><Current dt:dt=""r8"">0</Current><DateUtc dt:dt=""string"">2018-10-08T16:24:07Z</DateUtc></FrequencyChange></FrequencyChanges></Clock>\n",KW_Experiment5A-3-1,59.946,1.0.0.105,1,-563086583,Professional,2.0.10.353,2.0.10.353,10/8/2018,10/8/2018 16:24,12:24:07,2.0.10.248,2,2,1,2,,,,,,,,TrainingProc,BlockList,21,2,Distractor1.bmp,1,0,,0,1,1358306,500,,0,0,cyan,500,2,500,4,horizontal,cyan,Distractor1.bmp,purple,Distractor1.bmp,red,Distractor1.bmp,blue,Distractor2.bmp,yellow,Distractor2.bmp,lime,Target2.bmp,,,,TrialProc,,TrainingTrialList,1,2,-999999,0,1358806,0,2,263,1359069,Target2.bmp,lime,2,,,,6,1,21
KW_Experiment5A,3,1,"<?xml version=""1.0""?>\n<Clock xmlns:dt=""urn:schemas-microsoft-com:datatypes""><Description dt:dt=""string"">E-Prime Primary Realtime Clock</Description><StartTime><Timestamp dt:dt=""int"">0</Timestamp><DateUtc dt:dt=""string"">2018-10-08T16:24:07Z</DateUtc></StartTime><FrequencyChanges><FrequencyChange><Frequency dt:dt=""r8"">3215292</Frequency><Timestamp dt:dt=""r8"">3340920834530</Timestamp><Current dt:dt=""r8"">0</Current><DateUtc dt:dt=""string"">2018-10-08T16:24:07Z</DateUtc></FrequencyChange></FrequencyChanges></Clock>\n",KW_Experiment5A-3-1,59.946,1.0.0.105,1,-563086583,Professional,2.0.10.353,2.0.10.353,10/8/2018,10/8/2018 16:24,12:24:07,2.0.10.248,2,2,1,2,,,,,,,,TrainingProc,BlockList,22,2,Distractor2.bmp,2,0,,0,1,1360091,600,,0,0,red,600,3,600,1,horizontal,lime,Target2.bmp,red,Distractor2.bmp,purple,Distractor1.bmp,cyan,Distractor2.bmp,yellow,Distractor2.bmp,blue,Distractor2.bmp,,,,TrialProc,,TrainingTrialList,1,2,-999999,0,1360691,0,2,994,1361685,Target2.bmp,lime,2,,,,1,1,22
KW_Experiment5A,3,1,"<?xml version=""1.0""?>\n<Clock xmlns:dt=""urn:schemas-microsoft-com:datatypes""><Description dt:dt=""string"">E-Prime Primary Realtime Clock</Description><StartTime><Timestamp dt:dt=""int"">0</Timestamp><DateUtc dt:dt=""string"">2018-10-08T16:24:07Z</DateUtc></StartTime><FrequencyChanges><FrequencyChange><Frequency dt:dt=""r8"">3215292</Frequency><Timestamp dt:dt=""r8"">3340920834530</Timestamp><Current dt:dt=""r8"">0</Current><DateUtc dt:dt=""string"">2018-10-08T16:24:07Z</DateUtc></FrequencyChange></FrequencyChanges></Clock>\n",KW_Experiment5A-3-1,59.946,1.0.0.105,1,-563086583,Professional,2.0.10.353,2.0.10.353,10/8/2018,10/8/2018 16:24,12:24:07,2.0.10.248,2,2,1,2,,,,,,,,TrainingProc,BlockList,23,1,Distractor2.bmp,2,0,,0,1,1362710,400,,0,0,yellow,400,1,400,2,vertical,yellow,Distractor2.bmp,blue,Distractor2.bmp,cyan,Distractor1.bmp,lime,Target1.bmp,red,Distractor2.bmp,purple,Distractor1.bmp,,,,TrialProc,,TrainingTrialList,1,1,-999999,0,1363110,0,1,975,1364085,Target1.bmp,lime,1,,,,4,1,23
KW_Experiment5A,3,1,"<?xml version=""1.0""?>\n<Clock xmlns:dt=""urn:schemas-microsoft-com:datatypes""><Description dt:dt=""string"">E-Prime Primary Realtime Clock</Description><StartTime><Timestamp dt:dt=""int"">0</Timestamp><DateUtc dt:dt=""string"">2018-10-08T16:24:07Z</DateUtc></StartTime><FrequencyChanges><FrequencyChange><Frequency dt:dt=""r8"">3215292</Frequency><Timestamp dt:dt=""r8"">3340920834530</Timestamp><Current dt:dt=""r8"">0</Current><DateUtc dt:dt=""string"">2018-10-08T16:24:07Z</DateUtc></FrequencyChange></FrequencyChanges></Clock>\n",KW_Experiment5A-3-1,59.946,1.0.0.105,1,-563086583,Professional,2.0.10.353,2.0.10.353,10/8/2018,10/8/2018 16:24,12:24:07,2.0.10.248,2,2,1,2,,,,,,,,TrainingProc,BlockList,24,1,Distractor2.bmp,2,0,,0,1,1365112,500,,0,0,blue,500,2,500,3,vertical,blue,Distractor1.bmp,yellow,Distractor2.bmp,cyan,Distractor2.bmp,purple,Distractor2.bmp,lime,Target1.bmp,red,Distractor2.bmp,,,,TrialProc,,TrainingTrialList,1,1,-999999,0,1365612,0,1,1208,1366820,Target1.bmp,lime,1,,,,5,1,24
KW_Experiment5A,3,1,"<?xml version=""1.0""?>\n<Clock xmlns:dt=""urn:schemas-microsoft-com:datatypes""><Description dt:dt=""string"">E-Prime Primary Realtime Clock</Description><StartTime><Timestamp dt:dt=""int"">0</Timestamp><DateUtc dt:dt=""string"">2018-10-08T16:24:07Z</DateUtc></StartTime><FrequencyChanges><FrequencyChange><Frequency dt:dt=""r8"">3215292</Frequency><Timestamp dt:dt=""r8"">3340920834530</Timestamp><Current dt:dt=""r8"">0</Current><DateUtc dt:dt=""string"">2018-10-08T16:24:07Z</DateUtc></FrequencyChange></FrequencyChanges></Clock>\n",KW_Experiment5A-3-1,59.946,1.0.0.105,1,-563086583,Professional,2.0.10.353,2.0.10.353,10/8/2018,10/8/2018 16:24,12:24:07,2.0.10.248,2,2,1,2,,,,,,,,TrainingProc,BlockList,25,2,Distractor1.bmp,1,0,,0,1,1367831,601,,0,0,blue,600,3,600,,horizontal,blue,Distractor1.bmp,lime,Distractor2.bmp,cyan,Distractor2.bmp,yellow,Distractor2.bmp,purple,Distractor1.bmp,red,Target2.bmp,,,,TrialProc,3,TrainingTrialList,1,2,-999999,1,1368432,0,2,916,1369348,Target2.bmp,red,2,,,,12,2,25
KW_Experiment5A,3,1,"<?xml version=""1.0""?>\n<Clock xmlns:dt=""urn:schemas-microsoft-com:datatypes""><Description dt:dt=""string"">E-Prime Primary Realtime Clock</Description><StartTime><Timestamp dt:dt=""int"">0</Timestamp><DateUtc dt:dt=""string"">2018-10-08T16:24:07Z</DateUtc></StartTime><FrequencyChanges><FrequencyChange><Frequency dt:dt=""r8"">3215292</Frequency><Timestamp dt:dt=""r8"">3340920834530</Timestamp><Current dt:dt=""r8"">0</Current><DateUtc dt:dt=""string"">2018-10-08T16:24:07Z</DateUtc></FrequencyChange></FrequencyChanges></Clock>\n",KW_Experiment5A-3-1,59.946,1.0.0.105,1,-563086583,Professional,2.0.10.353,2.0.10.353,10/8/2018,10/8/2018 16:24,12:24:07,2.0.10.248,2,2,1,2,,,,,,,,TrainingProc,BlockList,26,1,Distractor1.bmp,1,0,,0,1,1370367,400,,0,0,red,400,1,400,1,vertical,lime,Target1.bmp,red,Distractor1.bmp,blue,Distractor2.bmp,yellow,Distractor2.bmp,cyan,Distractor1.bmp,purple,Distractor1.bmp,,,,TrialProc,,TrainingTrialList,1,1,-999999,0,1370767,0,1,1117,1371884,Target1.bmp,lime,1,,,,1,2,26
KW_Experiment5A,3,1,"<?xml version=""1.0""?>\n<Clock xmlns:dt=""urn:schemas-microsoft-com:datatypes""><Description dt:dt=""string"">E-Prime Primary Realtime Clock</Description><StartTime><Timestamp dt:dt=""int"">0</Timestamp><DateUtc dt:dt=""string"">2018-10-08T16:24:07Z</DateUtc></StartTime><FrequencyChanges><FrequencyChange><Frequency dt:dt=""r8"">3215292</Frequency><Timestamp dt:dt=""r8"">3340920834530</Timestamp><Current dt:dt=""r8"">0</Current><DateUtc dt:dt=""string"">2018-10-08T16:24:07Z</DateUtc></FrequencyChange></FrequencyChanges></Clock>\n",KW_Experiment5A-3-1,59.946,1.0.0.105,1,-563086583,Professional,2.0.10.353,2.0.10.353,10/8/2018,10/8/2018 16:24,12:24:07,2.0.10.248,2,2,1,2,,,,,,,,TrainingProc,BlockList,27,1,Distractor2.bmp,2,0,,0,1,1372902,401,,0,0,yellow,400,1,400,2,vertical,yellow,Distractor2.bmp,purple,Distractor1.bmp,blue,Distractor2.bmp,cyan,Distractor1.bmp,red,Distractor2.bmp,lime,Target1.bmp,,,,TrialProc,,TrainingTrialList,1,1,-999999,1,1373303,0,1,701,1374004,Target1.bmp,lime,1,,,,6,2,27
KW_Experiment5A,3,1,"<?xml version=""1.0""?>\n<Clock xmlns:dt=""urn:schemas-microsoft-com:datatypes""><Description dt:dt=""string"">E-Prime Primary Realtime Clock</Description><StartTime><Timestamp dt:dt=""int"">0</Timestamp><DateUtc dt:dt=""string"">2018-10-08T16:24:07Z</DateUtc></StartTime><FrequencyChanges><FrequencyChange><Frequency dt:dt=""r8"">3215292</Frequency><Timestamp dt:dt=""r8"">3340920834530</Timestamp><Current dt:dt=""r8"">0</Current><DateUtc dt:dt=""string"">2018-10-08T16:24:07Z</DateUtc></FrequencyChange></FrequencyChanges></Clock>\n",KW_Experiment5A-3-1,59.946,1.0.0.105,1,-563086583,Professional,2.0.10.353,2.0.10.353,10/8/2018,10/8/2018 16:24,12:24:07,2.0.10.248,2,2,1,2,,,,,,,,TrainingProc,BlockList,28,2,Distractor1.bmp,1,0,,0,1,1375021,601,,0,0,yellow,600,3,600,2,horizontal,lime,Target2.bmp,yellow,Distractor1.bmp,red,Distractor2.bmp,blue,Distractor1.bmp,purple,Distractor1.bmp,cyan,Distractor2.bmp,,,,TrialProc,,TrainingTrialList,1,2,-999999,1,1375622,0,2,662,1376284,Target2.bmp,lime,2,,,,1,2,28
KW_Experiment5A,3,1,"<?xml version=""1.0""?>\n<Clock xmlns:dt=""urn:schemas-microsoft-com:datatypes""><Description dt:dt=""string"">E-Prime Primary Realtime Clock</Description><StartTime><Timestamp dt:dt=""int"">0</Timestamp><DateUtc dt:dt=""string"">2018-10-08T16:24:07Z</DateUtc></StartTime><FrequencyChanges><FrequencyChange><Frequency dt:dt=""r8"">3215292</Frequency><Timestamp dt:dt=""r8"">3340920834530</Timestamp><Current dt:dt=""r8"">0</Current><DateUtc dt:dt=""string"">2018-10-08T16:24:07Z</DateUtc></FrequencyChange></FrequencyChanges></Clock>\n",KW_Experiment5A-3-1,59.946,1.0.0.105,1,-563086583,Professional,2.0.10.353,2.0.10.353,10/8/2018,10/8/2018 16:24,12:24:07,2.0.10.248,2,2,1,2,,,,,,,,TrainingProc,BlockList,29,2,Distractor1.bmp,1,0,,0,1,1377306,601,,0,0,purple,600,3,600,5,horizontal,purple,Distractor1.bmp,lime,Target2.bmp,blue,Distractor1.bmp,yellow,Distractor2.bmp,red,Distractor2.bmp,cyan,Distractor1.bmp,,,,TrialProc,,TrainingTrialList,0,2,-999999,1,1377907,0,1,1073,1378980,Target2.bmp,lime,2,,,,2,2,29
KW_Experiment5A,3,1,"<?xml version=""1.0""?>\n<Clock xmlns:dt=""urn:schemas-microsoft-com:datatypes""><Description dt:dt=""string"">E-Prime Primary Realtime Clock</Description><StartTime><Timestamp dt:dt=""int"">0</Timestamp><DateUtc dt:dt=""string"">2018-10-08T16:24:07Z</DateUtc></StartTime><FrequencyChanges><FrequencyChange><Frequency dt:dt=""r8"">3215292</Frequency><Timestamp dt:dt=""r8"">3340920834530</Timestamp><Current dt:dt=""r8"">0</Current><DateUtc dt:dt=""string"">2018-10-08T16:24:07Z</DateUtc></FrequencyChange></FrequencyChanges></Clock>\n",KW_Experiment5A-3-1,59.946,1.0.0.105,1,-563086583,Professional,2.0.10.353,2.0.10.353,10/8/2018,10/8/2018 16:24,12:24:07,2.0.10.248,2,2,1,2,,,,,,,,TrainingProc,BlockList,30,2,Distractor2.bmp,2,0,,0,1,1379992,601,,0,0,blue,600,3,600,3,horizontal,blue,Distractor2.bmp,yellow,Distractor1.bmp,lime,Target2.bmp,red,Distractor2.bmp,purple,Distractor1.bmp,cyan,Distractor2.bmp,,,,TrialProc,,TrainingTrialList,0,2,-999999,1,1380593,0,1,723,1381316,Target2.bmp,lime,2,,,,3,2,30
KW_Experiment5A,3,1,"<?xml version=""1.0""?>\n<Clock xmlns:dt=""urn:schemas-microsoft-com:datatypes""><Description dt:dt=""string"">E-Prime Primary Realtime Clock</Description><StartTime><Timestamp dt:dt=""int"">0</Timestamp><DateUtc dt:dt=""string"">2018-10-08T16:24:07Z</DateUtc></StartTime><FrequencyChanges><FrequencyChange><Frequency dt:dt=""r8"">3215292</Frequency><Timestamp dt:dt=""r8"">3340920834530</Timestamp><Current dt:dt=""r8"">0</Current><DateUtc dt:dt=""string"">2018-10-08T16:24:07Z</DateUtc></FrequencyChange></FrequencyChanges></Clock>\n",KW_Experiment5A-3-1,59.946,1.0.0.105,1,-563086583,Professional,2.0.10.353,2.0.10.353,10/8/2018,10/8/2018 16:24,12:24:07,2.0.10.248,2,2,1,2,,,,,,,,TrainingProc,BlockList,31,1,Distractor2.bmp,2,0,,0,1,1382328,400,,0,0,red,400,1,400,1,vertical,red,Distractor1.bmp,lime,Target1.bmp,purple,Distractor2.bmp,blue,Distractor2.bmp,cyan,Distractor2.bmp,yellow,Distractor1.bmp,,,,TrialProc,,TrainingTrialList,0,1,-999999,0,1382728,0,2,444,1383172,Target1.bmp,lime,1,,,,2,2,31
KW_Experiment5A,3,1,"<?xml version=""1.0""?>\n<Clock xmlns:dt=""urn:schemas-microsoft-com:datatypes""><Description dt:dt=""string"">E-Prime Primary Realtime Clock</Description><StartTime><Timestamp dt:dt=""int"">0</Timestamp><DateUtc dt:dt=""string"">2018-10-08T16:24:07Z</DateUtc></StartTime><FrequencyChanges><FrequencyChange><Frequency dt:dt=""r8"">3215292</Frequency><Timestamp dt:dt=""r8"">3340920834530</Timestamp><Current dt:dt=""r8"">0</Current><DateUtc dt:dt=""string"">2018-10-08T16:24:07Z</DateUtc></FrequencyChange></FrequencyChanges></Clock>\n",KW_Experiment5A-3-1,59.946,1.0.0.105,1,-563086583,Professional,2.0.10.353,2.0.10.353,10/8/2018,10/8/2018 16:24,12:24:07,2.0.10.248,2,2,1,2,,,,,,,,TrainingProc,BlockList,32,1,Distractor2.bmp,2,0,,0,1,1384196,500,,0,0,blue,500,2,500,3,vertical,blue,Distractor1.bmp,lime,Target1.bmp,cyan,Distractor2.bmp,purple,Distractor1.bmp,yellow,Distractor1.bmp,red,Distractor2.bmp,,,,TrialProc,,TrainingTrialList,0,1,-999999,0,1384696,0,2,276,1384972,Target1.bmp,lime,1,,,,2,2,32
KW_Experiment5A,3,1,"<?xml version=""1.0""?>\n<Clock xmlns:dt=""urn:schemas-microsoft-com:datatypes""><Description dt:dt=""string"">E-Prime Primary Realtime Clock</Description><StartTime><Timestamp dt:dt=""int"">0</Timestamp><DateUtc dt:dt=""string"">2018-10-08T16:24:07Z</DateUtc></StartTime><FrequencyChanges><FrequencyChange><Frequency dt:dt=""r8"">3215292</Frequency><Timestamp dt:dt=""r8"">3340920834530</Timestamp><Current dt:dt=""r8"">0</Current><DateUtc dt:dt=""string"">2018-10-08T16:24:07Z</DateUtc></FrequencyChange></FrequencyChanges></Clock>\n",KW_Experiment5A-3-1,59.946,1.0.0.105,1,-563086583,Professional,2.0.10.353,2.0.10.353,10/8/2018,10/8/2018 16:24,12:24:07,2.0.10.248,2,2,1,2,,,,,,,,TrainingProc,BlockList,33,2,Distractor2.bmp,2,0,,0,1,1385998,400,,0,0,lime,400,1,400,,horizontal,lime,Distractor2.bmp,red,Target2.bmp,blue,Distractor2.bmp,purple,Distractor2.bmp,cyan,Distractor1.bmp,yellow,Distractor2.bmp,,,,TrialProc,6,TrainingTrialList,0,2,-999999,0,1386398,0,1,438,1386836,Target2.bmp,red,2,,,,8,2,33
KW_Experiment5A,3,1,"<?xml version=""1.0""?>\n<Clock xmlns:dt=""urn:schemas-microsoft-com:datatypes""><Description dt:dt=""string"">E-Prime Primary Realtime Clock</Description><StartTime><Timestamp dt:dt=""int"">0</Timestamp><DateUtc dt:dt=""string"">2018-10-08T16:24:07Z</DateUtc></StartTime><FrequencyChanges><FrequencyChange><Frequency dt:dt=""r8"">3215292</Frequency><Timestamp dt:dt=""r8"">3340920834530</Timestamp><Current dt:dt=""r8"">0</Current><DateUtc dt:dt=""string"">2018-10-08T16:24:07Z</DateUtc></FrequencyChange></FrequencyChanges></Clock>\n",KW_Experiment5A-3-1,59.946,1.0.0.105,1,-563086583,Professional,2.0.10.353,2.0.10.353,10/8/2018,10/8/2018 16:24,12:24:07,2.0.10.248,2,2,1,2,,,,,,,,TrainingProc,BlockList,34,1,Distractor2.bmp,2,0,,0,1,1387849,401,,0,0,purple,400,1,400,5,vertical,purple,Distractor2.bmp,blue,Distractor1.bmp,red,Distractor1.bmp,cyan,Distractor2.bmp,yellow,Distractor2.bmp,lime,Target1.bmp,,,,TrialProc,,TrainingTrialList,0,1,-999999,1,1388250,0,2,426,1388676,Target1.bmp,lime,1,,,,6,2,34
KW_Experiment5A,3,1,"<?xml version=""1.0""?>\n<Clock xmlns:dt=""urn:schemas-microsoft-com:datatypes""><Description dt:dt=""string"">E-Prime Primary Realtime Clock</Description><StartTime><Timestamp dt:dt=""int"">0</Timestamp><DateUtc dt:dt=""string"">2018-10-08T16:24:07Z</DateUtc></StartTime><FrequencyChanges><FrequencyChange><Frequency dt:dt=""r8"">3215292</Frequency><Timestamp dt:dt=""r8"">3340920834530</Timestamp><Current dt:dt=""r8"">0</Current><DateUtc dt:dt=""string"">2018-10-08T16:24:07Z</DateUtc></FrequencyChange></FrequencyChanges></Clock>\n",KW_Experiment5A-3-1,59.946,1.0.0.105,1,-563086583,Professional,2.0.10.353,2.0.10.353,10/8/2018,10/8/2018 16:24,12:24:07,2.0.10.248,2,2,1,2,,,,,,,,TrainingProc,BlockList,35,1,Distractor2.bmp,2,0,,0,1,1389701,500,,0,0,lime,500,2,500,,vertical,lime,Distractor2.bmp,purple,Distractor2.bmp,blue,Distractor2.bmp,red,Target1.bmp,cyan,Distractor2.bmp,yellow,Distractor2.bmp,,,,TrialProc,6,TrainingTrialList,1,1,-999999,0,1390201,0,1,683,1390884,Target1.bmp,red,1,,,,10,2,35
KW_Experiment5A,3,1,"<?xml version=""1.0""?>\n<Clock xmlns:dt=""urn:schemas-microsoft-com:datatypes""><Description dt:dt=""string"">E-Prime Primary Realtime Clock</Description><StartTime><Timestamp dt:dt=""int"">0</Timestamp><DateUtc dt:dt=""string"">2018-10-08T16:24:07Z</DateUtc></StartTime><FrequencyChanges><FrequencyChange><Frequency dt:dt=""r8"">3215292</Frequency><Timestamp dt:dt=""r8"">3340920834530</Timestamp><Current dt:dt=""r8"">0</Current><DateUtc dt:dt=""string"">2018-10-08T16:24:07Z</DateUtc></FrequencyChange></FrequencyChanges></Clock>\n",KW_Experiment5A-3-1,59.946,1.0.0.105,1,-563086583,Professional,2.0.10.353,2.0.10.353,10/8/2018,10/8/2018 16:24,12:24:07,2.0.10.248,2,2,1,2,,,,,,,,TrainingProc,BlockList,36,1,Distractor1.bmp,1,0,,0,1,1391903,500,,0,0,red,500,2,500,1,vertical,red,Distractor1.bmp,cyan,Distractor2.bmp,yellow,Distractor2.bmp,purple,Distractor2.bmp,lime,Target1.bmp,blue,Distractor1.bmp,,,,TrialProc,,TrainingTrialList,0,1,-999999,0,1392403,0,2,1033,1393436,Target1.bmp,lime,1,,,,5,2,36
KW_Experiment5A,3,1,"<?xml version=""1.0""?>\n<Clock xmlns:dt=""urn:schemas-microsoft-com:datatypes""><Description dt:dt=""string"">E-Prime Primary Realtime Clock</Description><StartTime><Timestamp dt:dt=""int"">0</Timestamp><DateUtc dt:dt=""string"">2018-10-08T16:24:07Z</DateUtc></StartTime><FrequencyChanges><FrequencyChange><Frequency dt:dt=""r8"">3215292</Frequency><Timestamp dt:dt=""r8"">3340920834530</Timestamp><Current dt:dt=""r8"">0</Current><DateUtc dt:dt=""string"">2018-10-08T16:24:07Z</DateUtc></FrequencyChange></FrequencyChanges></Clock>\n",KW_Experiment5A-3-1,59.946,1.0.0.105,1,-563086583,Professional,2.0.10.353,2.0.10.353,10/8/2018,10/8/2018 16:24,12:24:07,2.0.10.248,2,2,1,2,,,,,,,,TrainingProc,BlockList,37,2,Distractor2.bmp,2,0,,0,1,1394455,501,,0,0,lime,500,2,500,,horizontal,red,Target2.bmp,purple,Distractor2.bmp,yellow,Distractor2.bmp,blue,Distractor2.bmp,cyan,Distractor2.bmp,lime,Distractor1.bmp,,,,TrialProc,6,TrainingTrialList,1,2,-999999,1,1394956,0,2,784,1395740,Target2.bmp,red,2,,,,7,2,37
KW_Experiment5A,3,1,"<?xml version=""1.0""?>\n<Clock xmlns:dt=""urn:schemas-microsoft-com:datatypes""><Description dt:dt=""string"">E-Prime Primary Realtime Clock</Description><StartTime><Timestamp dt:dt=""int"">0</Timestamp><DateUtc dt:dt=""string"">2018-10-08T16:24:07Z</DateUtc></StartTime><FrequencyChanges><FrequencyChange><Frequency dt:dt=""r8"">3215292</Frequency><Timestamp dt:dt=""r8"">3340920834530</Timestamp><Current dt:dt=""r8"">0</Current><DateUtc dt:dt=""string"">2018-10-08T16:24:07Z</DateUtc></FrequencyChange></FrequencyChanges></Clock>\n",KW_Experiment5A-3-1,59.946,1.0.0.105,1,-563086583,Professional,2.0.10.353,2.0.10.353,10/8/2018,10/8/2018 16:24,12:24:07,2.0.10.248,2,2,1,2,,,,,,,,TrainingProc,BlockList,38,2,Distractor1.bmp,1,0,,0,1,1396757,501,,0,0,blue,500,2,500,3,horizontal,blue,Distractor2.bmp,cyan,Distractor1.bmp,red,Distractor1.bmp,yellow,Distractor1.bmp,lime,Target2.bmp,purple,Distractor1.bmp,,,,TrialProc,,TrainingTrialList,0,2,-999999,1,1397258,0,1,778,1398036,Target2.bmp,lime,2,,,,5,2,38
KW_Experiment5A,3,1,"<?xml version=""1.0""?>\n<Clock xmlns:dt=""urn:schemas-microsoft-com:datatypes""><Description dt:dt=""string"">E-Prime Primary Realtime Clock</Description><StartTime><Timestamp dt:dt=""int"">0</Timestamp><DateUtc dt:dt=""string"">2018-10-08T16:24:07Z</DateUtc></StartTime><FrequencyChanges><FrequencyChange><Frequency dt:dt=""r8"">3215292</Frequency><Timestamp dt:dt=""r8"">3340920834530</Timestamp><Current dt:dt=""r8"">0</Current><DateUtc dt:dt=""string"">2018-10-08T16:24:07Z</DateUtc></FrequencyChange></FrequencyChanges></Clock>\n",KW_Experiment5A-3-1,59.946,1.0.0.105,1,-563086583,Professional,2.0.10.353,2.0.10.353,10/8/2018,10/8/2018 16:24,12:24:07,2.0.10.248,2,2,1,2,,,,,,,,TrainingProc,BlockList,39,1,Distractor2.bmp,2,0,,1,0,1399059,401,,0,0,purple,400,1,400,5,vertical,purple,Distractor2.bmp,red,Distractor2.bmp,lime,Target1.bmp,blue,Distractor2.bmp,cyan,Distractor2.bmp,yellow,Distractor1.bmp,,,,TrialProc,,TrainingTrialList,0,1,-999999,1,1399460,0,2,728,1400188,Target1.bmp,lime,1,,,,3,2,39
KW_Experiment5A,3,1,"<?xml version=""1.0""?>\n<Clock xmlns:dt=""urn:schemas-microsoft-com:datatypes""><Description dt:dt=""string"">E-Prime Primary Realtime Clock</Description><StartTime><Timestamp dt:dt=""int"">0</Timestamp><DateUtc dt:dt=""string"">2018-10-08T16:24:07Z</DateUtc></StartTime><FrequencyChanges><FrequencyChange><Frequency dt:dt=""r8"">3215292</Frequency><Timestamp dt:dt=""r8"">3340920834530</Timestamp><Current dt:dt=""r8"">0</Current><DateUtc dt:dt=""string"">2018-10-08T16:24:07Z</DateUtc></FrequencyChange></FrequencyChanges></Clock>\n",KW_Experiment5A-3-1,59.946,1.0.0.105,1,-563086583,Professional,2.0.10.353,2.0.10.353,10/8/2018,10/8/2018 16:24,12:24:07,2.0.10.248,2,2,1,2,,,,,,,,TrainingProc,BlockList,40,2,Distractor2.bmp,2,0,,0,0,1401211,601,,0,0,blue,600,3,600,,horizontal,blue,Distractor1.bmp,purple,Distractor1.bmp,red,Target2.bmp,cyan,Distractor2.bmp,yellow,Distractor2.bmp,lime,Distractor2.bmp,,,,TrialProc,3,TrainingTrialList,0,2,-999999,1,1401812,0,1,840,1402652,Target2.bmp,red,2,,,,9,2,40
KW_Experiment5A,3,1,"<?xml version=""1.0""?>\n<Clock xmlns:dt=""urn:schemas-microsoft-com:datatypes""><Description dt:dt=""string"">E-Prime Primary Realtime Clock</Description><StartTime><Timestamp dt:dt=""int"">0</Timestamp><DateUtc dt:dt=""string"">2018-10-08T16:24:07Z</DateUtc></StartTime><FrequencyChanges><FrequencyChange><Frequency dt:dt=""r8"">3215292</Frequency><Timestamp dt:dt=""r8"">3340920834530</Timestamp><Current dt:dt=""r8"">0</Current><DateUtc dt:dt=""string"">2018-10-08T16:24:07Z</DateUtc></FrequencyChange></FrequencyChanges></Clock>\n",KW_Experiment5A-3-1,59.946,1.0.0.105,1,-563086583,Professional,2.0.10.353,2.0.10.353,10/8/2018,10/8/2018 16:24,12:24:07,2.0.10.248,2,2,1,2,,,,,,,,TrainingProc,BlockList,41,2,Distractor1.bmp,1,0,,0,1,1403664,400,,0,0,cyan,400,1,400,4,horizontal,cyan,Distractor2.bmp,red,Distractor2.bmp,purple,Distractor1.bmp,lime,Target2.bmp,blue,Distractor1.bmp,yellow,Distractor1.bmp,,,,TrialProc,,TrainingTrialList,1,2,-999999,0,1404064,0,2,316,1404380,Target2.bmp,lime,2,,,,4,2,41
KW_Experiment5A,3,1,"<?xml version=""1.0""?>\n<Clock xmlns:dt=""urn:schemas-microsoft-com:datatypes""><Description dt:dt=""string"">E-Prime Primary Realtime Clock</Description><StartTime><Timestamp dt:dt=""int"">0</Timestamp><DateUtc dt:dt=""string"">2018-10-08T16:24:07Z</DateUtc></StartTime><FrequencyChanges><FrequencyChange><Frequency dt:dt=""r8"">3215292</Frequency><Timestamp dt:dt=""r8"">3340920834530</Timestamp><Current dt:dt=""r8"">0</Current><DateUtc dt:dt=""string"">2018-10-08T16:24:07Z</DateUtc></FrequencyChange></FrequencyChanges></Clock>\n",KW_Experiment5A-3-1,59.946,1.0.0.105,1,-563086583,Professional,2.0.10.353,2.0.10.353,10/8/2018,10/8/2018 16:24,12:24:07,2.0.10.248,2,2,1,2,,,,,,,,TrainingProc,BlockList,42,1,Distractor1.bmp,1,0,,0,1,1405399,600,,0,0,blue,600,3,600,3,vertical,blue,Distractor1.bmp,cyan,Distractor1.bmp,red,Distractor2.bmp,yellow,Distractor1.bmp,purple,Distractor2.bmp,lime,Target1.bmp,,,,TrialProc,,TrainingTrialList,1,1,-999999,0,1405999,0,1,677,1406676,Target1.bmp,lime,1,,,,6,2,42
KW_Experiment5A,3,1,"<?xml version=""1.0""?>\n<Clock xmlns:dt=""urn:schemas-microsoft-com:datatypes""><Description dt:dt=""string"">E-Prime Primary Realtime Clock</Description><StartTime><Timestamp dt:dt=""int"">0</Timestamp><DateUtc dt:dt=""string"">2018-10-08T16:24:07Z</DateUtc></StartTime><FrequencyChanges><FrequencyChange><Frequency dt:dt=""r8"">3215292</Frequency><Timestamp dt:dt=""r8"">3340920834530</Timestamp><Current dt:dt=""r8"">0</Current><DateUtc dt:dt=""string"">2018-10-08T16:24:07Z</DateUtc></FrequencyChange></FrequencyChanges></Clock>\n",KW_Experiment5A-3-1,59.946,1.0.0.105,1,-563086583,Professional,2.0.10.353,2.0.10.353,10/8/2018,10/8/2018 16:24,12:24:07,2.0.10.248,2,2,1,2,,,,,,,,TrainingProc,BlockList,43,2,Distractor2.bmp,2,0,,0,1,1407701,600,,0,0,yellow,600,3,600,2,horizontal,lime,Target2.bmp,yellow,Distractor2.bmp,cyan,Distractor2.bmp,red,Distractor1.bmp,purple,Distractor1.bmp,blue,Distractor1.bmp,,,,TrialProc,,TrainingTrialList,1,2,-999999,0,1408301,0,2,742,1409043,Target2.bmp,lime,2,,,,1,2,43
KW_Experiment5A,3,1,"<?xml version=""1.0""?>\n<Clock xmlns:dt=""urn:schemas-microsoft-com:datatypes""><Description dt:dt=""string"">E-Prime Primary Realtime Clock</Description><StartTime><Timestamp dt:dt=""int"">0</Timestamp><DateUtc dt:dt=""string"">2018-10-08T16:24:07Z</DateUtc></StartTime><FrequencyChanges><FrequencyChange><Frequency dt:dt=""r8"">3215292</Frequency><Timestamp dt:dt=""r8"">3340920834530</Timestamp><Current dt:dt=""r8"">0</Current><DateUtc dt:dt=""string"">2018-10-08T16:24:07Z</DateUtc></FrequencyChange></FrequencyChanges></Clock>\n",KW_Experiment5A-3-1,59.946,1.0.0.105,1,-563086583,Professional,2.0.10.353,2.0.10.353,10/8/2018,10/8/2018 16:24,12:24:07,2.0.10.248,2,2,1,2,,,,,,,,TrainingProc,BlockList,44,2,Distractor2.bmp,2,0,,0,1,1410053,600,,0,0,red,600,3,600,1,horizontal,red,Distractor2.bmp,purple,Distractor1.bmp,lime,Target2.bmp,yellow,Distractor2.bmp,cyan,Distractor2.bmp,blue,Distractor1.bmp,,,,TrialProc,,TrainingTrialList,1,2,-999999,0,1410653,0,2,822,1411475,Target2.bmp,lime,2,,,,3,2,44
KW_Experiment5A,3,1,"<?xml version=""1.0""?>\n<Clock xmlns:dt=""urn:schemas-microsoft-com:datatypes""><Description dt:dt=""string"">E-Prime Primary Realtime Clock</Description><StartTime><Timestamp dt:dt=""int"">0</Timestamp><DateUtc dt:dt=""string"">2018-10-08T16:24:07Z</DateUtc></StartTime><FrequencyChanges><FrequencyChange><Frequency dt:dt=""r8"">3215292</Frequency><Timestamp dt:dt=""r8"">3340920834530</Timestamp><Current dt:dt=""r8"">0</Current><DateUtc dt:dt=""string"">2018-10-08T16:24:07Z</DateUtc></FrequencyChange></FrequencyChanges></Clock>\n",KW_Experiment5A-3-1,59.946,1.0.0.105,1,-563086583,Professional,2.0.10.353,2.0.10.353,10/8/2018,10/8/2018 16:24,12:24:07,2.0.10.248,2,2,1,2,,,,,,,,TrainingProc,BlockList,45,2,Distractor2.bmp,2,0,,0,1,1412488,501,,0,0,red,500,2,500,1,horizontal,red,Distractor1.bmp,cyan,Distractor2.bmp,purple,Distractor1.bmp,lime,Target2.bmp,yellow,Distractor2.bmp,blue,Distractor1.bmp,,,,TrialProc,,TrainingTrialList,1,2,-999999,1,1412989,0,2,670,1413659,Target2.bmp,lime,2,,,,4,2,45
KW_Experiment5A,3,1,"<?xml version=""1.0""?>\n<Clock xmlns:dt=""urn:schemas-microsoft-com:datatypes""><Description dt:dt=""string"">E-Prime Primary Realtime Clock</Description><StartTime><Timestamp dt:dt=""int"">0</Timestamp><DateUtc dt:dt=""string"">2018-10-08T16:24:07Z</DateUtc></StartTime><FrequencyChanges><FrequencyChange><Frequency dt:dt=""r8"">3215292</Frequency><Timestamp dt:dt=""r8"">3340920834530</Timestamp><Current dt:dt=""r8"">0</Current><DateUtc dt:dt=""string"">2018-10-08T16:24:07Z</DateUtc></FrequencyChange></FrequencyChanges></Clock>\n",KW_Experiment5A-3-1,59.946,1.0.0.105,1,-563086583,Professional,2.0.10.353,2.0.10.353,10/8/2018,10/8/2018 16:24,12:24:07,2.0.10.248,2,2,1,2,,,,,,,,TrainingProc,BlockList,46,2,Distractor1.bmp,1,0,,0,1,1414674,400,,0,0,cyan,400,1,400,4,horizontal,cyan,Distractor1.bmp,blue,Distractor1.bmp,red,Distractor2.bmp,lime,Target2.bmp,purple,Distractor1.bmp,yellow,Distractor2.bmp,,,,TrialProc,,TrainingTrialList,1,2,-999999,0,1415074,0,2,593,1415667,Target2.bmp,lime,2,,,,4,2,46
KW_Experiment5A,3,1,"<?xml version=""1.0""?>\n<Clock xmlns:dt=""urn:schemas-microsoft-com:datatypes""><Description dt:dt=""string"">E-Prime Primary Realtime Clock</Description><StartTime><Timestamp dt:dt=""int"">0</Timestamp><DateUtc dt:dt=""string"">2018-10-08T16:24:07Z</DateUtc></StartTime><FrequencyChanges><FrequencyChange><Frequency dt:dt=""r8"">3215292</Frequency><Timestamp dt:dt=""r8"">3340920834530</Timestamp><Current dt:dt=""r8"">0</Current><DateUtc dt:dt=""string"">2018-10-08T16:24:07Z</DateUtc></FrequencyChange></FrequencyChanges></Clock>\n",KW_Experiment5A-3-1,59.946,1.0.0.105,1,-563086583,Professional,2.0.10.353,2.0.10.353,10/8/2018,10/8/2018 16:24,12:24:07,2.0.10.248,2,2,1,2,,,,,,,,TrainingProc,BlockList,47,1,Distractor2.bmp,2,0,,0,1,1416692,601,,0,0,red,600,3,600,1,vertical,red,Distractor1.bmp,blue,Distractor1.bmp,cyan,Distractor1.bmp,purple,Distractor2.bmp,lime,Target1.bmp,yellow,Distractor2.bmp,,,,TrialProc,,TrainingTrialList,1,1,-999999,1,1417293,0,1,734,1418027,Target1.bmp,lime,1,,,,5,2,47
KW_Experiment5A,3,1,"<?xml version=""1.0""?>\n<Clock xmlns:dt=""urn:schemas-microsoft-com:datatypes""><Description dt:dt=""string"">E-Prime Primary Realtime Clock</Description><StartTime><Timestamp dt:dt=""int"">0</Timestamp><DateUtc dt:dt=""string"">2018-10-08T16:24:07Z</DateUtc></StartTime><FrequencyChanges><FrequencyChange><Frequency dt:dt=""r8"">3215292</Frequency><Timestamp dt:dt=""r8"">3340920834530</Timestamp><Current dt:dt=""r8"">0</Current><DateUtc dt:dt=""string"">2018-10-08T16:24:07Z</DateUtc></FrequencyChange></FrequencyChanges></Clock>\n",KW_Experiment5A-3-1,59.946,1.0.0.105,1,-563086583,Professional,2.0.10.353,2.0.10.353,10/8/2018,10/8/2018 16:24,12:24:07,2.0.10.248,2,2,1,2,,,,,,,,TrainingProc,BlockList,48,1,Distractor2.bmp,2,0,,0,1,1419044,401,,0,0,purple,400,1,400,,vertical,purple,Distractor2.bmp,yellow,Distractor2.bmp,cyan,Distractor2.bmp,lime,Distractor2.bmp,red,Target1.bmp,blue,Distractor2.bmp,,,,TrialProc,5,TrainingTrialList,1,1,-999999,1,1419445,0,1,686,1420131,Target1.bmp,red,1,,,,11,2,48
KW_Experiment5A,3,1,"<?xml version=""1.0""?>\n<Clock xmlns:dt=""urn:schemas-microsoft-com:datatypes""><Description dt:dt=""string"">E-Prime Primary Realtime Clock</Description><StartTime><Timestamp dt:dt=""int"">0</Timestamp><DateUtc dt:dt=""string"">2018-10-08T16:24:07Z</DateUtc></StartTime><FrequencyChanges><FrequencyChange><Frequency dt:dt=""r8"">3215292</Frequency><Timestamp dt:dt=""r8"">3340920834530</Timestamp><Current dt:dt=""r8"">0</Current><DateUtc dt:dt=""string"">2018-10-08T16:24:07Z</DateUtc></FrequencyChange></FrequencyChanges></Clock>\n",KW_Experiment5A-3-1,59.946,1.0.0.105,1,-563086583,Professional,2.0.10.353,2.0.10.353,10/8/2018,10/8/2018 16:24,12:24:07,2.0.10.248,3,2,1,3,,,,,,,,TrainingProc,BlockList,1,1,Distractor2.bmp,2,0,,0,16,1423715,401,,0,0,purple,400,1,400,5,vertical,purple,Distractor1.bmp,blue,Distractor2.bmp,lime,Target1.bmp,red,Distractor2.bmp,yellow,Distractor1.bmp,cyan,Distractor1.bmp,,,,TrialProc,,TrainingTrialList,1,1,-999999,1,1424116,0,1,951,1425067,Target1.bmp,lime,1,,,,3,3,49
KW_Experiment5A,3,1,"<?xml version=""1.0""?>\n<Clock xmlns:dt=""urn:schemas-microsoft-com:datatypes""><Description dt:dt=""string"">E-Prime Primary Realtime Clock</Description><StartTime><Timestamp dt:dt=""int"">0</Timestamp><DateUtc dt:dt=""string"">2018-10-08T16:24:07Z</DateUtc></StartTime><FrequencyChanges><FrequencyChange><Frequency dt:dt=""r8"">3215292</Frequency><Timestamp dt:dt=""r8"">3340920834530</Timestamp><Current dt:dt=""r8"">0</Current><DateUtc dt:dt=""string"">2018-10-08T16:24:07Z</DateUtc></FrequencyChange></FrequencyChanges></Clock>\n",KW_Experiment5A-3-1,59.946,1.0.0.105,1,-563086583,Professional,2.0.10.353,2.0.10.353,10/8/2018,10/8/2018 16:24,12:24:07,2.0.10.248,3,2,1,3,,,,,,,,TrainingProc,BlockList,2,2,Distractor2.bmp,2,0,,0,1,1426084,400,,0,0,blue,400,1,400,3,horizontal,blue,Distractor2.bmp,yellow,Distractor2.bmp,red,Distractor1.bmp,cyan,Distractor1.bmp,purple,Distractor1.bmp,lime,Target2.bmp,,,,TrialProc,,TrainingTrialList,0,2,-999999,0,1426484,0,1,495,1426979,Target2.bmp,lime,2,,,,6,3,50
KW_Experiment5A,3,1,"<?xml version=""1.0""?>\n<Clock xmlns:dt=""urn:schemas-microsoft-com:datatypes""><Description dt:dt=""string"">E-Prime Primary Realtime Clock</Description><StartTime><Timestamp dt:dt=""int"">0</Timestamp><DateUtc dt:dt=""string"">2018-10-08T16:24:07Z</DateUtc></StartTime><FrequencyChanges><FrequencyChange><Frequency dt:dt=""r8"">3215292</Frequency><Timestamp dt:dt=""r8"">3340920834530</Timestamp><Current dt:dt=""r8"">0</Current><DateUtc dt:dt=""string"">2018-10-08T16:24:07Z</DateUtc></FrequencyChange></FrequencyChanges></Clock>\n",KW_Experiment5A-3-1,59.946,1.0.0.105,1,-563086583,Professional,2.0.10.353,2.0.10.353,10/8/2018,10/8/2018 16:24,12:24:07,2.0.10.248,3,2,1,3,,,,,,,,TrainingProc,BlockList,3,2,Distractor1.bmp,1,0,,0,0,1428002,401,,0,0,cyan,400,1,400,4,horizontal,cyan,Distractor1.bmp,red,Distractor2.bmp,yellow,Distractor1.bmp,lime,Target2.bmp,purple,Distractor1.bmp,blue,Distractor1.bmp,,,,TrialProc,,TrainingTrialList,0,2,-999999,1,1428403,0,1,296,1428699,Target2.bmp,lime,2,,,,4,3,51
KW_Experiment5A,3,1,"<?xml version=""1.0""?>\n<Clock xmlns:dt=""urn:schemas-microsoft-com:datatypes""><Description dt:dt=""string"">E-Prime Primary Realtime Clock</Description><StartTime><Timestamp dt:dt=""int"">0</Timestamp><DateUtc dt:dt=""string"">2018-10-08T16:24:07Z</DateUtc></StartTime><FrequencyChanges><FrequencyChange><Frequency dt:dt=""r8"">3215292</Frequency><Timestamp dt:dt=""r8"">3340920834530</Timestamp><Current dt:dt=""r8"">0</Current><DateUtc dt:dt=""string"">2018-10-08T16:24:07Z</DateUtc></FrequencyChange></FrequencyChanges></Clock>\n",KW_Experiment5A-3-1,59.946,1.0.0.105,1,-563086583,Professional,2.0.10.353,2.0.10.353,10/8/2018,10/8/2018 16:24,12:24:07,2.0.10.248,3,2,1,3,,,,,,,,TrainingProc,BlockList,4,2,Distractor2.bmp,2,0,,0,1,1429721,600,,0,0,cyan,600,3,600,4,horizontal,cyan,Distractor1.bmp,red,Distractor2.bmp,purple,Distractor2.bmp,blue,Distractor1.bmp,lime,Target2.bmp,yellow,Distractor2.bmp,,,,TrialProc,,TrainingTrialList,0,2,-999999,0,1430321,0,1,218,1430539,Target2.bmp,lime,2,,,,5,3,52
KW_Experiment5A,3,1,"<?xml version=""1.0""?>\n<Clock xmlns:dt=""urn:schemas-microsoft-com:datatypes""><Description dt:dt=""string"">E-Prime Primary Realtime Clock</Description><StartTime><Timestamp dt:dt=""int"">0</Timestamp><DateUtc dt:dt=""string"">2018-10-08T16:24:07Z</DateUtc></StartTime><FrequencyChanges><FrequencyChange><Frequency dt:dt=""r8"">3215292</Frequency><Timestamp dt:dt=""r8"">3340920834530</Timestamp><Current dt:dt=""r8"">0</Current><DateUtc dt:dt=""string"">2018-10-08T16:24:07Z</DateUtc></FrequencyChange></FrequencyChanges></Clock>\n",KW_Experiment5A-3-1,59.946,1.0.0.105,1,-563086583,Professional,2.0.10.353,2.0.10.353,10/8/2018,10/8/2018 16:24,12:24:07,2.0.10.248,3,2,1,3,,,,,,,,TrainingProc,BlockList,5,1,Distractor1.bmp,1,0,,0,1,1431556,600,,0,0,purple,600,3,600,5,vertical,purple,Distractor2.bmp,cyan,Distractor1.bmp,yellow,Distractor1.bmp,lime,Target1.bmp,blue,Distractor1.bmp,red,Distractor1.bmp,,,,TrialProc,,TrainingTrialList,1,1,-999999,0,1432156,0,1,255,1432411,Target1.bmp,lime,1,,,,4,3,53
KW_Experiment5A,3,1,"<?xml version=""1.0""?>\n<Clock xmlns:dt=""urn:schemas-microsoft-com:datatypes""><Description dt:dt=""string"">E-Prime Primary Realtime Clock</Description><StartTime><Timestamp dt:dt=""int"">0</Timestamp><DateUtc dt:dt=""string"">2018-10-08T16:24:07Z</DateUtc></StartTime><FrequencyChanges><FrequencyChange><Frequency dt:dt=""r8"">3215292</Frequency><Timestamp dt:dt=""r8"">3340920834530</Timestamp><Current dt:dt=""r8"">0</Current><DateUtc dt:dt=""string"">2018-10-08T16:24:07Z</DateUtc></FrequencyChange></FrequencyChanges></Clock>\n",KW_Experiment5A-3-1,59.946,1.0.0.105,1,-563086583,Professional,2.0.10.353,2.0.10.353,10/8/2018,10/8/2018 16:24,12:24:07,2.0.10.248,3,2,1,3,,,,,,,,TrainingProc,BlockList,6,2,Distractor2.bmp,2,0,,0,1,1433424,601,,0,0,purple,600,3,600,,horizontal,purple,Distractor2.bmp,blue,Distractor1.bmp,yellow,Distractor1.bmp,cyan,Distractor1.bmp,red,Target2.bmp,lime,Distractor2.bmp,,,,TrialProc,5,TrainingTrialList,0,2,-999999,1,1434025,0,1,242,1434267,Target2.bmp,red,2,,,,11,3,54
KW_Experiment5A,3,1,"<?xml version=""1.0""?>\n<Clock xmlns:dt=""urn:schemas-microsoft-com:datatypes""><Description dt:dt=""string"">E-Prime Primary Realtime Clock</Description><StartTime><Timestamp dt:dt=""int"">0</Timestamp><DateUtc dt:dt=""string"">2018-10-08T16:24:07Z</DateUtc></StartTime><FrequencyChanges><FrequencyChange><Frequency dt:dt=""r8"">3215292</Frequency><Timestamp dt:dt=""r8"">3340920834530</Timestamp><Current dt:dt=""r8"">0</Current><DateUtc dt:dt=""string"">2018-10-08T16:24:07Z</DateUtc></FrequencyChange></FrequencyChanges></Clock>\n",KW_Experiment5A-3-1,59.946,1.0.0.105,1,-563086583,Professional,2.0.10.353,2.0.10.353,10/8/2018,10/8/2018 16:24,12:24:07,2.0.10.248,3,2,1,3,,,,,,,,TrainingProc,BlockList,7,2,Distractor1.bmp,1,0,,0,1,1435292,501,,0,0,blue,500,2,500,,horizontal,blue,Distractor1.bmp,lime,Distractor2.bmp,cyan,Distractor2.bmp,purple,Distractor2.bmp,yellow,Distractor2.bmp,red,Target2.bmp,,,,TrialProc,3,TrainingTrialList,0,2,-999999,1,1435793,0,1,370,1436163,Target2.bmp,red,2,,,,12,3,55
KW_Experiment5A,3,1,"<?xml version=""1.0""?>\n<Clock xmlns:dt=""urn:schemas-microsoft-com:datatypes""><Description dt:dt=""string"">E-Prime Primary Realtime Clock</Description><StartTime><Timestamp dt:dt=""int"">0</Timestamp><DateUtc dt:dt=""string"">2018-10-08T16:24:07Z</DateUtc></StartTime><FrequencyChanges><FrequencyChange><Frequency dt:dt=""r8"">3215292</Frequency><Timestamp dt:dt=""r8"">3340920834530</Timestamp><Current dt:dt=""r8"">0</Current><DateUtc dt:dt=""string"">2018-10-08T16:24:07Z</DateUtc></FrequencyChange></FrequencyChanges></Clock>\n",KW_Experiment5A-3-1,59.946,1.0.0.105,1,-563086583,Professional,2.0.10.353,2.0.10.353,10/8/2018,10/8/2018 16:24,12:24:07,2.0.10.248,3,2,1,3,,,,,,,,TrainingProc,BlockList,8,2,Distractor1.bmp,1,0,,1,0,1437177,601,,0,0,red,600,3,600,1,horizontal,lime,Target2.bmp,red,Distractor1.bmp,purple,Distractor2.bmp,blue,Distractor2.bmp,cyan,Distractor1.bmp,yellow,Distractor1.bmp,,,,TrialProc,,TrainingTrialList,1,2,-999999,1,1437778,0,2,33,1437811,Target2.bmp,lime,2,,,,1,3,56
KW_Experiment5A,3,1,"<?xml version=""1.0""?>\n<Clock xmlns:dt=""urn:schemas-microsoft-com:datatypes""><Description dt:dt=""string"">E-Prime Primary Realtime Clock</Description><StartTime><Timestamp dt:dt=""int"">0</Timestamp><DateUtc dt:dt=""string"">2018-10-08T16:24:07Z</DateUtc></StartTime><FrequencyChanges><FrequencyChange><Frequency dt:dt=""r8"">3215292</Frequency><Timestamp dt:dt=""r8"">3340920834530</Timestamp><Current dt:dt=""r8"">0</Current><DateUtc dt:dt=""string"">2018-10-08T16:24:07Z</DateUtc></FrequencyChange></FrequencyChanges></Clock>\n",KW_Experiment5A-3-1,59.946,1.0.0.105,1,-563086583,Professional,2.0.10.353,2.0.10.353,10/8/2018,10/8/2018 16:24,12:24:07,2.0.10.248,3,2,1,3,,,,,,,,TrainingProc,BlockList,9,2,Distractor1.bmp,1,0,,0,1,1438829,600,,0,0,yellow,600,3,600,2,horizontal,yellow,Distractor2.bmp,blue,Distractor2.bmp,lime,Target2.bmp,cyan,Distractor1.bmp,purple,Distractor2.bmp,red,Distractor1.bmp,,,,TrialProc,,TrainingTrialList,0,2,-999999,0,1439429,0,1,590,1440019,Target2.bmp,lime,2,,,,3,3,57
KW_Experiment5A,3,1,"<?xml version=""1.0""?>\n<Clock xmlns:dt=""urn:schemas-microsoft-com:datatypes""><Description dt:dt=""string"">E-Prime Primary Realtime Clock</Description><StartTime><Timestamp dt:dt=""int"">0</Timestamp><DateUtc dt:dt=""string"">2018-10-08T16:24:07Z</DateUtc></StartTime><FrequencyChanges><FrequencyChange><Frequency dt:dt=""r8"">3215292</Frequency><Timestamp dt:dt=""r8"">3340920834530</Timestamp><Current dt:dt=""r8"">0</Current><DateUtc dt:dt=""string"">2018-10-08T16:24:07Z</DateUtc></FrequencyChange></FrequencyChanges></Clock>\n",KW_Experiment5A-3-1,59.946,1.0.0.105,1,-563086583,Professional,2.0.10.353,2.0.10.353,10/8/2018,10/8/2018 16:24,12:24:07,2.0.10.248,3,2,1,3,,,,,,,,TrainingProc,BlockList,10,2,Distractor1.bmp,1,0,,0,1,1441031,400,,0,0,yellow,400,1,400,2,horizontal,yellow,Distractor1.bmp,red,Distractor2.bmp,cyan,Distractor2.bmp,blue,Distractor1.bmp,purple,Distractor2.bmp,lime,Target2.bmp,,,,TrialProc,,TrainingTrialList,1,2,-999999,0,1441431,0,2,252,1441683,Target2.bmp,lime,2,,,,6,3,58
KW_Experiment5A,3,1,"<?xml version=""1.0""?>\n<Clock xmlns:dt=""urn:schemas-microsoft-com:datatypes""><Description dt:dt=""string"">E-Prime Primary Realtime Clock</Description><StartTime><Timestamp dt:dt=""int"">0</Timestamp><DateUtc dt:dt=""string"">2018-10-08T16:24:07Z</DateUtc></StartTime><FrequencyChanges><FrequencyChange><Frequency dt:dt=""r8"">3215292</Frequency><Timestamp dt:dt=""r8"">3340920834530</Timestamp><Current dt:dt=""r8"">0</Current><DateUtc dt:dt=""string"">2018-10-08T16:24:07Z</DateUtc></FrequencyChange></FrequencyChanges></Clock>\n",KW_Experiment5A-3-1,59.946,1.0.0.105,1,-563086583,Professional,2.0.10.353,2.0.10.353,10/8/2018,10/8/2018 16:24,12:24:07,2.0.10.248,3,2,1,3,,,,,,,,TrainingProc,BlockList,11,2,Distractor2.bmp,2,0,,0,1,1442699,400,,0,0,cyan,400,1,400,4,horizontal,cyan,Distractor2.bmp,purple,Distractor2.bmp,blue,Distractor2.bmp,yellow,Distractor1.bmp,red,Distractor1.bmp,lime,Target2.bmp,,,,TrialProc,,TrainingTrialList,0,2,-999999,0,1443099,0,1,232,1443331,Target2.bmp,lime,2,,,,6,3,59
KW_Experiment5A,3,1,"<?xml version=""1.0""?>\n<Clock xmlns:dt=""urn:schemas-microsoft-com:datatypes""><Description dt:dt=""string"">E-Prime Primary Realtime Clock</Description><StartTime><Timestamp dt:dt=""int"">0</Timestamp><DateUtc dt:dt=""string"">2018-10-08T16:24:07Z</DateUtc></StartTime><FrequencyChanges><FrequencyChange><Frequency dt:dt=""r8"">3215292</Frequency><Timestamp dt:dt=""r8"">3340920834530</Timestamp><Current dt:dt=""r8"">0</Current><DateUtc dt:dt=""string"">2018-10-08T16:24:07Z</DateUtc></FrequencyChange></FrequencyChanges></Clock>\n",KW_Experiment5A-3-1,59.946,1.0.0.105,1,-563086583,Professional,2.0.10.353,2.0.10.353,10/8/2018,10/8/2018 16:24,12:24:07,2.0.10.248,3,2,1,3,,,,,,,,TrainingProc,BlockList,12,1,Distractor1.bmp,1,0,,0,1,1444351,600,,0,0,cyan,600,3,600,4,vertical,cyan,Distractor1.bmp,blue,Distractor2.bmp,yellow,Distractor2.bmp,lime,Target1.bmp,red,Distractor1.bmp,purple,Distractor1.bmp,,,,TrialProc,,TrainingTrialList,0,1,-999999,0,1444951,0,2,340,1445291,Target1.bmp,lime,1,,,,4,3,60
KW_Experiment5A,3,1,"<?xml version=""1.0""?>\n<Clock xmlns:dt=""urn:schemas-microsoft-com:datatypes""><Description dt:dt=""string"">E-Prime Primary Realtime Clock</Description><StartTime><Timestamp dt:dt=""int"">0</Timestamp><DateUtc dt:dt=""string"">2018-10-08T16:24:07Z</DateUtc></StartTime><FrequencyChanges><FrequencyChange><Frequency dt:dt=""r8"">3215292</Frequency><Timestamp dt:dt=""r8"">3340920834530</Timestamp><Current dt:dt=""r8"">0</Current><DateUtc dt:dt=""string"">2018-10-08T16:24:07Z</DateUtc></FrequencyChange></FrequencyChanges></Clock>\n",KW_Experiment5A-3-1,59.946,1.0.0.105,1,-563086583,Professional,2.0.10.353,2.0.10.353,10/8/2018,10/8/2018 16:24,12:24:07,2.0.10.248,3,2,1,3,,,,,,,,TrainingProc,BlockList,13,2,Distractor2.bmp,2,0,,0,1,1446302,401,,0,0,blue,400,1,400,3,horizontal,blue,Distractor1.bmp,lime,Target2.bmp,cyan,Distractor2.bmp,red,Distractor1.bmp,yellow,Distractor2.bmp,purple,Distractor1.bmp,,,,TrialProc,,TrainingTrialList,0,2,-999999,1,1446703,0,1,220,1446923,Target2.bmp,lime,2,,,,2,3,61
KW_Experiment5A,3,1,"<?xml version=""1.0""?>\n<Clock xmlns:dt=""urn:schemas-microsoft-com:datatypes""><Description dt:dt=""string"">E-Prime Primary Realtime Clock</Description><StartTime><Timestamp dt:dt=""int"">0</Timestamp><DateUtc dt:dt=""string"">2018-10-08T16:24:07Z</DateUtc></StartTime><FrequencyChanges><FrequencyChange><Frequency dt:dt=""r8"">3215292</Frequency><Timestamp dt:dt=""r8"">3340920834530</Timestamp><Current dt:dt=""r8"">0</Current><DateUtc dt:dt=""string"">2018-10-08T16:24:07Z</DateUtc></FrequencyChange></FrequencyChanges></Clock>\n",KW_Experiment5A-3-1,59.946,1.0.0.105,1,-563086583,Professional,2.0.10.353,2.0.10.353,10/8/2018,10/8/2018 16:24,12:24:07,2.0.10.248,3,2,1,3,,,,,,,,TrainingProc,BlockList,14,2,Distractor1.bmp,1,0,,0,1,1447937,401,,0,0,red,400,1,400,1,horizontal,red,Distractor2.bmp,lime,Target2.bmp,blue,Distractor1.bmp,cyan,Distractor1.bmp,yellow,Distractor2.bmp,purple,Distractor1.bmp,,,,TrialProc,,TrainingTrialList,0,2,-999999,1,1448338,0,1,256,1448594,Target2.bmp,lime,2,,,,2,3,62
KW_Experiment5A,3,1,"<?xml version=""1.0""?>\n<Clock xmlns:dt=""urn:schemas-microsoft-com:datatypes""><Description dt:dt=""string"">E-Prime Primary Realtime Clock</Description><StartTime><Timestamp dt:dt=""int"">0</Timestamp><DateUtc dt:dt=""string"">2018-10-08T16:24:07Z</DateUtc></StartTime><FrequencyChanges><FrequencyChange><Frequency dt:dt=""r8"">3215292</Frequency><Timestamp dt:dt=""r8"">3340920834530</Timestamp><Current dt:dt=""r8"">0</Current><DateUtc dt:dt=""string"">2018-10-08T16:24:07Z</DateUtc></FrequencyChange></FrequencyChanges></Clock>\n",KW_Experiment5A-3-1,59.946,1.0.0.105,1,-563086583,Professional,2.0.10.353,2.0.10.353,10/8/2018,10/8/2018 16:24,12:24:07,2.0.10.248,3,2,1,3,,,,,,,,TrainingProc,BlockList,15,1,Distractor2.bmp,2,0,,0,1,1449605,401,,0,0,lime,400,1,400,,vertical,lime,Distractor2.bmp,cyan,Distractor2.bmp,purple,Distractor2.bmp,red,Target1.bmp,yellow,Distractor2.bmp,blue,Distractor1.bmp,,,,TrialProc,6,TrainingTrialList,1,1,-999999,1,1450006,0,1,516,1450522,Target1.bmp,red,1,,,,10,3,63
KW_Experiment5A,3,1,"<?xml version=""1.0""?>\n<Clock xmlns:dt=""urn:schemas-microsoft-com:datatypes""><Description dt:dt=""string"">E-Prime Primary Realtime Clock</Description><StartTime><Timestamp dt:dt=""int"">0</Timestamp><DateUtc dt:dt=""string"">2018-10-08T16:24:07Z</DateUtc></StartTime><FrequencyChanges><FrequencyChange><Frequency dt:dt=""r8"">3215292</Frequency><Timestamp dt:dt=""r8"">3340920834530</Timestamp><Current dt:dt=""r8"">0</Current><DateUtc dt:dt=""string"">2018-10-08T16:24:07Z</DateUtc></FrequencyChange></FrequencyChanges></Clock>\n",KW_Experiment5A-3-1,59.946,1.0.0.105,1,-563086583,Professional,2.0.10.353,2.0.10.353,10/8/2018,10/8/2018 16:24,12:24:07,2.0.10.248,3,2,1,3,,,,,,,,TrainingProc,BlockList,16,1,Distractor1.bmp,1,0,,0,1,1451541,400,,0,0,purple,400,1,400,5,vertical,purple,Distractor1.bmp,red,Distractor1.bmp,lime,Target1.bmp,cyan,Distractor1.bmp,blue,Distractor1.bmp,yellow,Distractor2.bmp,,,,TrialProc,,TrainingTrialList,0,1,-999999,0,1451941,0,2,501,1452442,Target1.bmp,lime,1,,,,3,3,64
KW_Experiment5A,3,1,"<?xml version=""1.0""?>\n<Clock xmlns:dt=""urn:schemas-microsoft-com:datatypes""><Description dt:dt=""string"">E-Prime Primary Realtime Clock</Description><StartTime><Timestamp dt:dt=""int"">0</Timestamp><DateUtc dt:dt=""string"">2018-10-08T16:24:07Z</DateUtc></StartTime><FrequencyChanges><FrequencyChange><Frequency dt:dt=""r8"">3215292</Frequency><Timestamp dt:dt=""r8"">3340920834530</Timestamp><Current dt:dt=""r8"">0</Current><DateUtc dt:dt=""string"">2018-10-08T16:24:07Z</DateUtc></FrequencyChange></FrequencyChanges></Clock>\n",KW_Experiment5A-3-1,59.946,1.0.0.105,1,-563086583,Professional,2.0.10.353,2.0.10.353,10/8/2018,10/8/2018 16:24,12:24:07,2.0.10.248,3,2,1,3,,,,,,,,TrainingProc,BlockList,17,2,Distractor1.bmp,1,0,,0,1,1453459,400,,0,0,purple,400,1,400,5,horizontal,lime,Target2.bmp,purple,Distractor1.bmp,red,Distractor1.bmp,cyan,Distractor2.bmp,yellow,Distractor1.bmp,blue,Distractor2.bmp,,,,TrialProc,,TrainingTrialList,1,2,-999999,0,1453859,0,2,751,1454610,Target2.bmp,lime,2,,,,1,3,65
KW_Experiment5A,3,1,"<?xml version=""1.0""?>\n<Clock xmlns:dt=""urn:schemas-microsoft-com:datatypes""><Description dt:dt=""string"">E-Prime Primary Realtime Clock</Description><StartTime><Timestamp dt:dt=""int"">0</Timestamp><DateUtc dt:dt=""string"">2018-10-08T16:24:07Z</DateUtc></StartTime><FrequencyChanges><FrequencyChange><Frequency dt:dt=""r8"">3215292</Frequency><Timestamp dt:dt=""r8"">3340920834530</Timestamp><Current dt:dt=""r8"">0</Current><DateUtc dt:dt=""string"">2018-10-08T16:24:07Z</DateUtc></FrequencyChange></FrequencyChanges></Clock>\n",KW_Experiment5A-3-1,59.946,1.0.0.105,1,-563086583,Professional,2.0.10.353,2.0.10.353,10/8/2018,10/8/2018 16:24,12:24:07,2.0.10.248,3,2,1,3,,,,,,,,TrainingProc,BlockList,18,2,Distractor1.bmp,1,0,,0,1,1455628,500,,0,0,blue,500,2,500,,horizontal,blue,Distractor2.bmp,red,Target2.bmp,cyan,Distractor1.bmp,lime,Distractor1.bmp,purple,Distractor2.bmp,yellow,Distractor2.bmp,,,,TrialProc,3,TrainingTrialList,0,2,-999999,0,1456128,0,1,1034,1457162,Target2.bmp,red,2,,,,8,3,66
KW_Experiment5A,3,1,"<?xml version=""1.0""?>\n<Clock xmlns:dt=""urn:schemas-microsoft-com:datatypes""><Description dt:dt=""string"">E-Prime Primary Realtime Clock</Description><StartTime><Timestamp dt:dt=""int"">0</Timestamp><DateUtc dt:dt=""string"">2018-10-08T16:24:07Z</DateUtc></StartTime><FrequencyChanges><FrequencyChange><Frequency dt:dt=""r8"">3215292</Frequency><Timestamp dt:dt=""r8"">3340920834530</Timestamp><Current dt:dt=""r8"">0</Current><DateUtc dt:dt=""string"">2018-10-08T16:24:07Z</DateUtc></FrequencyChange></FrequencyChanges></Clock>\n",KW_Experiment5A-3-1,59.946,1.0.0.105,1,-563086583,Professional,2.0.10.353,2.0.10.353,10/8/2018,10/8/2018 16:24,12:24:07,2.0.10.248,3,2,1,3,,,,,,,,TrainingProc,BlockList,19,2,Distractor2.bmp,2,0,,0,1,1458180,600,,0,0,blue,600,3,600,,horizontal,red,Target2.bmp,lime,Distractor2.bmp,purple,Distractor2.bmp,yellow,Distractor1.bmp,cyan,Distractor2.bmp,blue,Distractor1.bmp,,,,TrialProc,3,TrainingTrialList,0,2,-999999,0,1458780,0,1,3078,1461858,Target2.bmp,red,2,,,,7,3,67
KW_Experiment5A,3,1,"<?xml version=""1.0""?>\n<Clock xmlns:dt=""urn:schemas-microsoft-com:datatypes""><Description dt:dt=""string"">E-Prime Primary Realtime Clock</Description><StartTime><Timestamp dt:dt=""int"">0</Timestamp><DateUtc dt:dt=""string"">2018-10-08T16:24:07Z</DateUtc></StartTime><FrequencyChanges><FrequencyChange><Frequency dt:dt=""r8"">3215292</Frequency><Timestamp dt:dt=""r8"">3340920834530</Timestamp><Current dt:dt=""r8"">0</Current><DateUtc dt:dt=""string"">2018-10-08T16:24:07Z</DateUtc></FrequencyChange></FrequencyChanges></Clock>\n",KW_Experiment5A-3-1,59.946,1.0.0.105,1,-563086583,Professional,2.0.10.353,2.0.10.353,10/8/2018,10/8/2018 16:24,12:24:07,2.0.10.248,3,2,1,3,,,,,,,,TrainingProc,BlockList,20,1,Distractor1.bmp,1,0,,0,1,1462884,601,,0,0,yellow,600,3,600,2,vertical,lime,Target1.bmp,yellow,Distractor1.bmp,purple,Distractor2.bmp,red,Distractor1.bmp,cyan,Distractor1.bmp,blue,Distractor1.bmp,,,,TrialProc,,TrainingTrialList,1,1,-999999,1,1463485,0,1,173,1463658,Target1.bmp,lime,1,,,,1,3,68
KW_Experiment5A,3,1,"<?xml version=""1.0""?>\n<Clock xmlns:dt=""urn:schemas-microsoft-com:datatypes""><Description dt:dt=""string"">E-Prime Primary Realtime Clock</Description><StartTime><Timestamp dt:dt=""int"">0</Timestamp><DateUtc dt:dt=""string"">2018-10-08T16:24:07Z</DateUtc></StartTime><FrequencyChanges><FrequencyChange><Frequency dt:dt=""r8"">3215292</Frequency><Timestamp dt:dt=""r8"">3340920834530</Timestamp><Current dt:dt=""r8"">0</Current><DateUtc dt:dt=""string"">2018-10-08T16:24:07Z</DateUtc></FrequencyChange></FrequencyChanges></Clock>\n",KW_Experiment5A-3-1,59.946,1.0.0.105,1,-563086583,Professional,2.0.10.353,2.0.10.353,10/8/2018,10/8/2018 16:24,12:24:07,2.0.10.248,3,2,1,3,,,,,,,,TrainingProc,BlockList,21,2,Distractor2.bmp,2,0,,0,1,1464669,501,,0,0,blue,500,2,500,3,horizontal,blue,Distractor1.bmp,purple,Distractor2.bmp,cyan,Distractor2.bmp,yellow,Distractor2.bmp,lime,Target2.bmp,red,Distractor2.bmp,,,,TrialProc,,TrainingTrialList,0,2,-999999,1,1465170,0,1,1832,1467002,Target2.bmp,lime,2,,,,5,3,69
KW_Experiment5A,3,1,"<?xml version=""1.0""?>\n<Clock xmlns:dt=""urn:schemas-microsoft-com:datatypes""><Description dt:dt=""string"">E-Prime Primary Realtime Clock</Description><StartTime><Timestamp dt:dt=""int"">0</Timestamp><DateUtc dt:dt=""string"">2018-10-08T16:24:07Z</DateUtc></StartTime><FrequencyChanges><FrequencyChange><Frequency dt:dt=""r8"">3215292</Frequency><Timestamp dt:dt=""r8"">3340920834530</Timestamp><Current dt:dt=""r8"">0</Current><DateUtc dt:dt=""string"">2018-10-08T16:24:07Z</DateUtc></FrequencyChange></FrequencyChanges></Clock>\n",KW_Experiment5A-3-1,59.946,1.0.0.105,1,-563086583,Professional,2.0.10.353,2.0.10.353,10/8/2018,10/8/2018 16:24,12:24:07,2.0.10.248,3,2,1,3,,,,,,,,TrainingProc,BlockList,22,2,Distractor1.bmp,1,0,,0,1,1468022,401,,0,0,yellow,400,1,400,2,horizontal,yellow,Distractor2.bmp,red,Distractor1.bmp,cyan,Distractor2.bmp,blue,Distractor1.bmp,lime,Target2.bmp,purple,Distractor1.bmp,,,,TrialProc,,TrainingTrialList,1,2,-999999,1,1468423,0,2,619,1469042,Target2.bmp,lime,2,,,,5,3,70
KW_Experiment5A,3,1,"<?xml version=""1.0""?>\n<Clock xmlns:dt=""urn:schemas-microsoft-com:datatypes""><Description dt:dt=""string"">E-Prime Primary Realtime Clock</Description><StartTime><Timestamp dt:dt=""int"">0</Timestamp><DateUtc dt:dt=""string"">2018-10-08T16:24:07Z</DateUtc></StartTime><FrequencyChanges><FrequencyChange><Frequency dt:dt=""r8"">3215292</Frequency><Timestamp dt:dt=""r8"">3340920834530</Timestamp><Current dt:dt=""r8"">0</Current><DateUtc dt:dt=""string"">2018-10-08T16:24:07Z</DateUtc></FrequencyChange></FrequencyChanges></Clock>\n",KW_Experiment5A-3-1,59.946,1.0.0.105,1,-563086583,Professional,2.0.10.353,2.0.10.353,10/8/2018,10/8/2018 16:24,12:24:07,2.0.10.248,3,2,1,3,,,,,,,,TrainingProc,BlockList,23,1,Distractor2.bmp,2,0,,0,1,1470057,601,,0,0,purple,600,3,600,5,vertical,purple,Distractor2.bmp,lime,Target1.bmp,yellow,Distractor2.bmp,blue,Distractor1.bmp,red,Distractor2.bmp,cyan,Distractor2.bmp,,,,TrialProc,,TrainingTrialList,1,1,-999999,1,1470658,0,1,2256,1472914,Target1.bmp,lime,1,,,,2,3,71
KW_Experiment5A,3,1,"<?xml version=""1.0""?>\n<Clock xmlns:dt=""urn:schemas-microsoft-com:datatypes""><Description dt:dt=""string"">E-Prime Primary Realtime Clock</Description><StartTime><Timestamp dt:dt=""int"">0</Timestamp><DateUtc dt:dt=""string"">2018-10-08T16:24:07Z</DateUtc></StartTime><FrequencyChanges><FrequencyChange><Frequency dt:dt=""r8"">3215292</Frequency><Timestamp dt:dt=""r8"">3340920834530</Timestamp><Current dt:dt=""r8"">0</Current><DateUtc dt:dt=""string"">2018-10-08T16:24:07Z</DateUtc></FrequencyChange></FrequencyChanges></Clock>\n",KW_Experiment5A-3-1,59.946,1.0.0.105,1,-563086583,Professional,2.0.10.353,2.0.10.353,10/8/2018,10/8/2018 16:24,12:24:07,2.0.10.248,3,2,1,3,,,,,,,,TrainingProc,BlockList,24,1,Distractor2.bmp,2,0,,0,1,1473928,600,,0,0,purple,600,3,600,,vertical,purple,Distractor2.bmp,blue,Distractor2.bmp,red,Target1.bmp,lime,Distractor2.bmp,yellow,Distractor1.bmp,cyan,Distractor1.bmp,,,,TrialProc,5,TrainingTrialList,0,1,-999999,0,1474528,0,2,322,1474850,Target1.bmp,red,1,,,,9,3,72
KW_Experiment5A,3,1,"<?xml version=""1.0""?>\n<Clock xmlns:dt=""urn:schemas-microsoft-com:datatypes""><Description dt:dt=""string"">E-Prime Primary Realtime Clock</Description><StartTime><Timestamp dt:dt=""int"">0</Timestamp><DateUtc dt:dt=""string"">2018-10-08T16:24:07Z</DateUtc></StartTime><FrequencyChanges><FrequencyChange><Frequency dt:dt=""r8"">3215292</Frequency><Timestamp dt:dt=""r8"">3340920834530</Timestamp><Current dt:dt=""r8"">0</Current><DateUtc dt:dt=""string"">2018-10-08T16:24:07Z</DateUtc></FrequencyChange></FrequencyChanges></Clock>\n",KW_Experiment5A-3-1,59.946,1.0.0.105,1,-563086583,Professional,2.0.10.353,2.0.10.353,10/8/2018,10/8/2018 16:24,12:24:07,2.0.10.248,3,2,1,3,,,,,,,,TrainingProc,BlockList,25,2,Distractor1.bmp,1,0,,0,1,1475863,500,,0,0,red,500,2,500,1,horizontal,red,Distractor2.bmp,blue,Distractor2.bmp,lime,Target2.bmp,yellow,Distractor1.bmp,purple,Distractor2.bmp,cyan,Distractor2.bmp,,,,TrialProc,,TrainingTrialList,0,2,-999999,0,1476363,0,1,639,1477002,Target2.bmp,lime,2,,,,3,4,73
KW_Experiment5A,3,1,"<?xml version=""1.0""?>\n<Clock xmlns:dt=""urn:schemas-microsoft-com:datatypes""><Description dt:dt=""string"">E-Prime Primary Realtime Clock</Description><StartTime><Timestamp dt:dt=""int"">0</Timestamp><DateUtc dt:dt=""string"">2018-10-08T16:24:07Z</DateUtc></StartTime><FrequencyChanges><FrequencyChange><Frequency dt:dt=""r8"">3215292</Frequency><Timestamp dt:dt=""r8"">3340920834530</Timestamp><Current dt:dt=""r8"">0</Current><DateUtc dt:dt=""string"">2018-10-08T16:24:07Z</DateUtc></FrequencyChange></FrequencyChanges></Clock>\n",KW_Experiment5A-3-1,59.946,1.0.0.105,1,-563086583,Professional,2.0.10.353,2.0.10.353,10/8/2018,10/8/2018 16:24,12:24:07,2.0.10.248,3,2,1,3,,,,,,,,TrainingProc,BlockList,26,1,Distractor2.bmp,2,0,,0,1,1478015,500,,0,0,cyan,500,2,500,4,vertical,cyan,Distractor2.bmp,yellow,Distractor2.bmp,purple,Distractor1.bmp,red,Distractor1.bmp,blue,Distractor1.bmp,lime,Target1.bmp,,,,TrialProc,,TrainingTrialList,0,1,-999999,0,1478515,0,2,295,1478810,Target1.bmp,lime,1,,,,6,4,74
KW_Experiment5A,3,1,"<?xml version=""1.0""?>\n<Clock xmlns:dt=""urn:schemas-microsoft-com:datatypes""><Description dt:dt=""string"">E-Prime Primary Realtime Clock</Description><StartTime><Timestamp dt:dt=""int"">0</Timestamp><DateUtc dt:dt=""string"">2018-10-08T16:24:07Z</DateUtc></StartTime><FrequencyChanges><FrequencyChange><Frequency dt:dt=""r8"">3215292</Frequency><Timestamp dt:dt=""r8"">3340920834530</Timestamp><Current dt:dt=""r8"">0</Current><DateUtc dt:dt=""string"">2018-10-08T16:24:07Z</DateUtc></FrequencyChange></FrequencyChanges></Clock>\n",KW_Experiment5A-3-1,59.946,1.0.0.105,1,-563086583,Professional,2.0.10.353,2.0.10.353,10/8/2018,10/8/2018 16:24,12:24:07,2.0.10.248,3,2,1,3,,,,,,,,TrainingProc,BlockList,27,1,Distractor1.bmp,1,0,,0,1,1479833,500,,0,0,purple,500,2,500,5,vertical,purple,Distractor2.bmp,blue,Distractor1.bmp,yellow,Distractor2.bmp,red,Distractor1.bmp,lime,Target1.bmp,cyan,Distractor1.bmp,,,,TrialProc,,TrainingTrialList,1,1,-999999,0,1480333,0,1,437,1480770,Target1.bmp,lime,1,,,,5,4,75
KW_Experiment5A,3,1,"<?xml version=""1.0""?>\n<Clock xmlns:dt=""urn:schemas-microsoft-com:datatypes""><Description dt:dt=""string"">E-Prime Primary Realtime Clock</Description><StartTime><Timestamp dt:dt=""int"">0</Timestamp><DateUtc dt:dt=""string"">2018-10-08T16:24:07Z</DateUtc></StartTime><FrequencyChanges><FrequencyChange><Frequency dt:dt=""r8"">3215292</Frequency><Timestamp dt:dt=""r8"">3340920834530</Timestamp><Current dt:dt=""r8"">0</Current><DateUtc dt:dt=""string"">2018-10-08T16:24:07Z</DateUtc></FrequencyChange></FrequencyChanges></Clock>\n",KW_Experiment5A-3-1,59.946,1.0.0.105,1,-563086583,Professional,2.0.10.353,2.0.10.353,10/8/2018,10/8/2018 16:24,12:24:07,2.0.10.248,3,2,1,3,,,,,,,,TrainingProc,BlockList,28,1,Distractor1.bmp,1,0,,0,1,1481785,600,,0,0,blue,600,3,600,,vertical,blue,Distractor1.bmp,purple,Distractor2.bmp,cyan,Distractor2.bmp,yellow,Distractor1.bmp,lime,Distractor2.bmp,red,Target1.bmp,,,,TrialProc,3,TrainingTrialList,1,1,-999999,0,1482385,0,1,489,1482874,Target1.bmp,red,1,,,,12,4,76
KW_Experiment5A,3,1,"<?xml version=""1.0""?>\n<Clock xmlns:dt=""urn:schemas-microsoft-com:datatypes""><Description dt:dt=""string"">E-Prime Primary Realtime Clock</Description><StartTime><Timestamp dt:dt=""int"">0</Timestamp><DateUtc dt:dt=""string"">2018-10-08T16:24:07Z</DateUtc></StartTime><FrequencyChanges><FrequencyChange><Frequency dt:dt=""r8"">3215292</Frequency><Timestamp dt:dt=""r8"">3340920834530</Timestamp><Current dt:dt=""r8"">0</Current><DateUtc dt:dt=""string"">2018-10-08T16:24:07Z</DateUtc></FrequencyChange></FrequencyChanges></Clock>\n",KW_Experiment5A-3-1,59.946,1.0.0.105,1,-563086583,Professional,2.0.10.353,2.0.10.353,10/8/2018,10/8/2018 16:24,12:24:07,2.0.10.248,3,2,1,3,,,,,,,,TrainingProc,BlockList,29,1,Distractor2.bmp,2,0,,0,1,1483887,400,,0,0,red,400,1,400,1,vertical,red,Distractor2.bmp,cyan,Distractor1.bmp,blue,Distractor1.bmp,yellow,Distractor1.bmp,lime,Target1.bmp,purple,Distractor2.bmp,,,,TrialProc,,TrainingTrialList,0,1,-999999,0,1484287,0,2,891,1485178,Target1.bmp,lime,1,,,,5,4,77
KW_Experiment5A,3,1,"<?xml version=""1.0""?>\n<Clock xmlns:dt=""urn:schemas-microsoft-com:datatypes""><Description dt:dt=""string"">E-Prime Primary Realtime Clock</Description><StartTime><Timestamp dt:dt=""int"">0</Timestamp><DateUtc dt:dt=""string"">2018-10-08T16:24:07Z</DateUtc></StartTime><FrequencyChanges><FrequencyChange><Frequency dt:dt=""r8"">3215292</Frequency><Timestamp dt:dt=""r8"">3340920834530</Timestamp><Current dt:dt=""r8"">0</Current><DateUtc dt:dt=""string"">2018-10-08T16:24:07Z</DateUtc></FrequencyChange></FrequencyChanges></Clock>\n",KW_Experiment5A-3-1,59.946,1.0.0.105,1,-563086583,Professional,2.0.10.353,2.0.10.353,10/8/2018,10/8/2018 16:24,12:24:07,2.0.10.248,3,2,1,3,,,,,,,,TrainingProc,BlockList,30,2,Distractor1.bmp,1,0,,0,1,1486189,500,,0,0,purple,500,2,500,5,horizontal,purple,Distractor2.bmp,cyan,Distractor1.bmp,yellow,Distractor1.bmp,lime,Target2.bmp,red,Distractor1.bmp,blue,Distractor2.bmp,,,,TrialProc,,TrainingTrialList,0,2,-999999,0,1486689,0,1,161,1486850,Target2.bmp,lime,2,,,,4,4,78
KW_Experiment5A,3,1,"<?xml version=""1.0""?>\n<Clock xmlns:dt=""urn:schemas-microsoft-com:datatypes""><Description dt:dt=""string"">E-Prime Primary Realtime Clock</Description><StartTime><Timestamp dt:dt=""int"">0</Timestamp><DateUtc dt:dt=""string"">2018-10-08T16:24:07Z</DateUtc></StartTime><FrequencyChanges><FrequencyChange><Frequency dt:dt=""r8"">3215292</Frequency><Timestamp dt:dt=""r8"">3340920834530</Timestamp><Current dt:dt=""r8"">0</Current><DateUtc dt:dt=""string"">2018-10-08T16:24:07Z</DateUtc></FrequencyChange></FrequencyChanges></Clock>\n",KW_Experiment5A-3-1,59.946,1.0.0.105,1,-563086583,Professional,2.0.10.353,2.0.10.353,10/8/2018,10/8/2018 16:24,12:24:07,2.0.10.248,3,2,1,3,,,,,,,,TrainingProc,BlockList,31,1,Distractor2.bmp,2,0,,0,1,1487874,500,,0,0,yellow,500,2,500,2,vertical,lime,Target1.bmp,yellow,Distractor2.bmp,purple,Distractor2.bmp,blue,Distractor1.bmp,cyan,Distractor1.bmp,red,Distractor1.bmp,,,,TrialProc,,TrainingTrialList,1,1,-999999,0,1488374,0,1,1187,1489561,Target1.bmp,lime,1,,,,1,4,79
KW_Experiment5A,3,1,"<?xml version=""1.0""?>\n<Clock xmlns:dt=""urn:schemas-microsoft-com:datatypes""><Description dt:dt=""string"">E-Prime Primary Realtime Clock</Description><StartTime><Timestamp dt:dt=""int"">0</Timestamp><DateUtc dt:dt=""string"">2018-10-08T16:24:07Z</DateUtc></StartTime><FrequencyChanges><FrequencyChange><Frequency dt:dt=""r8"">3215292</Frequency><Timestamp dt:dt=""r8"">3340920834530</Timestamp><Current dt:dt=""r8"">0</Current><DateUtc dt:dt=""string"">2018-10-08T16:24:07Z</DateUtc></FrequencyChange></FrequencyChanges></Clock>\n",KW_Experiment5A-3-1,59.946,1.0.0.105,1,-563086583,Professional,2.0.10.353,2.0.10.353,10/8/2018,10/8/2018 16:24,12:24:07,2.0.10.248,3,2,1,3,,,,,,,,TrainingProc,BlockList,32,1,Distractor2.bmp,2,0,,0,1,1490576,601,,0,0,cyan,600,3,600,4,vertical,cyan,Distractor2.bmp,lime,Target1.bmp,blue,Distractor2.bmp,purple,Distractor2.bmp,red,Distractor2.bmp,yellow,Distractor1.bmp,,,,TrialProc,,TrainingTrialList,1,1,-999999,1,1491177,0,1,1192,1492369,Target1.bmp,lime,1,,,,2,4,80
KW_Experiment5A,3,1,"<?xml version=""1.0""?>\n<Clock xmlns:dt=""urn:schemas-microsoft-com:datatypes""><Description dt:dt=""string"">E-Prime Primary Realtime Clock</Description><StartTime><Timestamp dt:dt=""int"">0</Timestamp><DateUtc dt:dt=""string"">2018-10-08T16:24:07Z</DateUtc></StartTime><FrequencyChanges><FrequencyChange><Frequency dt:dt=""r8"">3215292</Frequency><Timestamp dt:dt=""r8"">3340920834530</Timestamp><Current dt:dt=""r8"">0</Current><DateUtc dt:dt=""string"">2018-10-08T16:24:07Z</DateUtc></FrequencyChange></FrequencyChanges></Clock>\n",KW_Experiment5A-3-1,59.946,1.0.0.105,1,-563086583,Professional,2.0.10.353,2.0.10.353,10/8/2018,10/8/2018 16:24,12:24:07,2.0.10.248,3,2,1,3,,,,,,,,TrainingProc,BlockList,33,2,Distractor2.bmp,2,0,,0,1,1493395,401,,0,0,yellow,400,1,400,2,horizontal,yellow,Distractor1.bmp,cyan,Distractor2.bmp,purple,Distractor2.bmp,lime,Target2.bmp,blue,Distractor2.bmp,red,Distractor1.bmp,,,,TrialProc,,TrainingTrialList,0,2,-999999,1,1493796,0,1,685,1494481,Target2.bmp,lime,2,,,,4,4,81
KW_Experiment5A,3,1,"<?xml version=""1.0""?>\n<Clock xmlns:dt=""urn:schemas-microsoft-com:datatypes""><Description dt:dt=""string"">E-Prime Primary Realtime Clock</Description><StartTime><Timestamp dt:dt=""int"">0</Timestamp><DateUtc dt:dt=""string"">2018-10-08T16:24:07Z</DateUtc></StartTime><FrequencyChanges><FrequencyChange><Frequency dt:dt=""r8"">3215292</Frequency><Timestamp dt:dt=""r8"">3340920834530</Timestamp><Current dt:dt=""r8"">0</Current><DateUtc dt:dt=""string"">2018-10-08T16:24:07Z</DateUtc></FrequencyChange></FrequencyChanges></Clock>\n",KW_Experiment5A-3-1,59.946,1.0.0.105,1,-563086583,Professional,2.0.10.353,2.0.10.353,10/8/2018,10/8/2018 16:24,12:24:07,2.0.10.248,3,2,1,3,,,,,,,,TrainingProc,BlockList,34,1,Distractor2.bmp,2,0,,0,1,1495497,501,,0,0,yellow,500,2,500,,vertical,yellow,Distractor1.bmp,red,Target1.bmp,lime,Distractor2.bmp,cyan,Distractor1.bmp,purple,Distractor1.bmp,blue,Distractor1.bmp,,,,TrialProc,2,TrainingTrialList,0,1,-999999,1,1495998,0,2,539,1496537,Target1.bmp,red,1,,,,8,4,82
KW_Experiment5A,3,1,"<?xml version=""1.0""?>\n<Clock xmlns:dt=""urn:schemas-microsoft-com:datatypes""><Description dt:dt=""string"">E-Prime Primary Realtime Clock</Description><StartTime><Timestamp dt:dt=""int"">0</Timestamp><DateUtc dt:dt=""string"">2018-10-08T16:24:07Z</DateUtc></StartTime><FrequencyChanges><FrequencyChange><Frequency dt:dt=""r8"">3215292</Frequency><Timestamp dt:dt=""r8"">3340920834530</Timestamp><Current dt:dt=""r8"">0</Current><DateUtc dt:dt=""string"">2018-10-08T16:24:07Z</DateUtc></FrequencyChange></FrequencyChanges></Clock>\n",KW_Experiment5A-3-1,59.946,1.0.0.105,1,-563086583,Professional,2.0.10.353,2.0.10.353,10/8/2018,10/8/2018 16:24,12:24:07,2.0.10.248,3,2,1,3,,,,,,,,TrainingProc,BlockList,35,2,Distractor1.bmp,1,0,,0,1,1497549,400,,0,0,purple,400,1,400,,horizontal,purple,Distractor2.bmp,lime,Distractor1.bmp,blue,Distractor2.bmp,red,Target2.bmp,yellow,Distractor1.bmp,cyan,Distractor1.bmp,,,,TrialProc,5,TrainingTrialList,0,2,-999999,0,1497949,0,1,3020,1500969,Target2.bmp,red,2,,,,10,4,83
KW_Experiment5A,3,1,"<?xml version=""1.0""?>\n<Clock xmlns:dt=""urn:schemas-microsoft-com:datatypes""><Description dt:dt=""string"">E-Prime Primary Realtime Clock</Description><StartTime><Timestamp dt:dt=""int"">0</Timestamp><DateUtc dt:dt=""string"">2018-10-08T16:24:07Z</DateUtc></StartTime><FrequencyChanges><FrequencyChange><Frequency dt:dt=""r8"">3215292</Frequency><Timestamp dt:dt=""r8"">3340920834530</Timestamp><Current dt:dt=""r8"">0</Current><DateUtc dt:dt=""string"">2018-10-08T16:24:07Z</DateUtc></FrequencyChange></FrequencyChanges></Clock>\n",KW_Experiment5A-3-1,59.946,1.0.0.105,1,-563086583,Professional,2.0.10.353,2.0.10.353,10/8/2018,10/8/2018 16:24,12:24:07,2.0.10.248,3,2,1,3,,,,,,,,TrainingProc,BlockList,36,1,Distractor1.bmp,1,0,,0,1,1501986,401,,0,0,blue,400,1,400,3,vertical,blue,Distractor1.bmp,red,Distractor1.bmp,purple,Distractor2.bmp,yellow,Distractor2.bmp,cyan,Distractor2.bmp,lime,Target1.bmp,,,,TrialProc,,TrainingTrialList,1,1,-999999,1,1502387,0,1,894,1503281,Target1.bmp,lime,1,,,,6,4,84
KW_Experiment5A,3,1,"<?xml version=""1.0""?>\n<Clock xmlns:dt=""urn:schemas-microsoft-com:datatypes""><Description dt:dt=""string"">E-Prime Primary Realtime Clock</Description><StartTime><Timestamp dt:dt=""int"">0</Timestamp><DateUtc dt:dt=""string"">2018-10-08T16:24:07Z</DateUtc></StartTime><FrequencyChanges><FrequencyChange><Frequency dt:dt=""r8"">3215292</Frequency><Timestamp dt:dt=""r8"">3340920834530</Timestamp><Current dt:dt=""r8"">0</Current><DateUtc dt:dt=""string"">2018-10-08T16:24:07Z</DateUtc></FrequencyChange></FrequencyChanges></Clock>\n",KW_Experiment5A-3-1,59.946,1.0.0.105,1,-563086583,Professional,2.0.10.353,2.0.10.353,10/8/2018,10/8/2018 16:24,12:24:07,2.0.10.248,3,2,1,3,,,,,,,,TrainingProc,BlockList,37,1,Distractor1.bmp,1,0,,0,1,1504305,501,,0,0,cyan,500,2,500,4,vertical,lime,Target1.bmp,cyan,Distractor1.bmp,red,Distractor1.bmp,yellow,Distractor2.bmp,purple,Distractor2.bmp,blue,Distractor2.bmp,,,,TrialProc,,TrainingTrialList,1,1,-999999,1,1504806,0,1,515,1505321,Target1.bmp,lime,1,,,,1,4,85
KW_Experiment5A,3,1,"<?xml version=""1.0""?>\n<Clock xmlns:dt=""urn:schemas-microsoft-com:datatypes""><Description dt:dt=""string"">E-Prime Primary Realtime Clock</Description><StartTime><Timestamp dt:dt=""int"">0</Timestamp><DateUtc dt:dt=""string"">2018-10-08T16:24:07Z</DateUtc></StartTime><FrequencyChanges><FrequencyChange><Frequency dt:dt=""r8"">3215292</Frequency><Timestamp dt:dt=""r8"">3340920834530</Timestamp><Current dt:dt=""r8"">0</Current><DateUtc dt:dt=""string"">2018-10-08T16:24:07Z</DateUtc></FrequencyChange></FrequencyChanges></Clock>\n",KW_Experiment5A-3-1,59.946,1.0.0.105,1,-563086583,Professional,2.0.10.353,2.0.10.353,10/8/2018,10/8/2018 16:24,12:24:07,2.0.10.248,3,2,1,3,,,,,,,,TrainingProc,BlockList,38,1,Distractor2.bmp,2,0,,0,1,1506340,401,,0,0,purple,400,1,400,5,vertical,lime,Target1.bmp,purple,Distractor2.bmp,cyan,Distractor2.bmp,blue,Distractor2.bmp,yellow,Distractor1.bmp,red,Distractor2.bmp,,,,TrialProc,,TrainingTrialList,1,1,-999999,1,1506741,0,1,2084,1508825,Target1.bmp,lime,1,,,,1,4,86
KW_Experiment5A,3,1,"<?xml version=""1.0""?>\n<Clock xmlns:dt=""urn:schemas-microsoft-com:datatypes""><Description dt:dt=""string"">E-Prime Primary Realtime Clock</Description><StartTime><Timestamp dt:dt=""int"">0</Timestamp><DateUtc dt:dt=""string"">2018-10-08T16:24:07Z</DateUtc></StartTime><FrequencyChanges><FrequencyChange><Frequency dt:dt=""r8"">3215292</Frequency><Timestamp dt:dt=""r8"">3340920834530</Timestamp><Current dt:dt=""r8"">0</Current><DateUtc dt:dt=""string"">2018-10-08T16:24:07Z</DateUtc></FrequencyChange></FrequencyChanges></Clock>\n",KW_Experiment5A-3-1,59.946,1.0.0.105,1,-563086583,Professional,2.0.10.353,2.0.10.353,10/8/2018,10/8/2018 16:24,12:24:07,2.0.10.248,3,2,1,3,,,,,,,,TrainingProc,BlockList,39,2,Distractor2.bmp,2,0,,1,0,1509843,601,,0,0,yellow,600,3,600,,horizontal,yellow,Distractor2.bmp,cyan,Distractor1.bmp,blue,Distractor2.bmp,lime,Distractor1.bmp,red,Target2.bmp,purple,Distractor2.bmp,,,,TrialProc,2,TrainingTrialList,0,2,-999999,1,1510444,0,1,669,1511113,Target2.bmp,red,2,,,,11,4,87
KW_Experiment5A,3,1,"<?xml version=""1.0""?>\n<Clock xmlns:dt=""urn:schemas-microsoft-com:datatypes""><Description dt:dt=""string"">E-Prime Primary Realtime Clock</Description><StartTime><Timestamp dt:dt=""int"">0</Timestamp><DateUtc dt:dt=""string"">2018-10-08T16:24:07Z</DateUtc></StartTime><FrequencyChanges><FrequencyChange><Frequency dt:dt=""r8"">3215292</Frequency><Timestamp dt:dt=""r8"">3340920834530</Timestamp><Current dt:dt=""r8"">0</Current><DateUtc dt:dt=""string"">2018-10-08T16:24:07Z</DateUtc></FrequencyChange></FrequencyChanges></Clock>\n",KW_Experiment5A-3-1,59.946,1.0.0.105,1,-563086583,Professional,2.0.10.353,2.0.10.353,10/8/2018,10/8/2018 16:24,12:24:07,2.0.10.248,3,2,1,3,,,,,,,,TrainingProc,BlockList,40,2,Distractor2.bmp,2,0,,0,1,1512129,400,,0,0,yellow,400,1,400,2,horizontal,yellow,Distractor1.bmp,lime,Target2.bmp,cyan,Distractor2.bmp,purple,Distractor1.bmp,red,Distractor2.bmp,blue,Distractor1.bmp,,,,TrialProc,,TrainingTrialList,0,2,-999999,0,1512529,0,1,88,1512617,Target2.bmp,lime,2,,,,2,4,88
KW_Experiment5A,3,1,"<?xml version=""1.0""?>\n<Clock xmlns:dt=""urn:schemas-microsoft-com:datatypes""><Description dt:dt=""string"">E-Prime Primary Realtime Clock</Description><StartTime><Timestamp dt:dt=""int"">0</Timestamp><DateUtc dt:dt=""string"">2018-10-08T16:24:07Z</DateUtc></StartTime><FrequencyChanges><FrequencyChange><Frequency dt:dt=""r8"">3215292</Frequency><Timestamp dt:dt=""r8"">3340920834530</Timestamp><Current dt:dt=""r8"">0</Current><DateUtc dt:dt=""string"">2018-10-08T16:24:07Z</DateUtc></FrequencyChange></FrequencyChanges></Clock>\n",KW_Experiment5A-3-1,59.946,1.0.0.105,1,-563086583,Professional,2.0.10.353,2.0.10.353,10/8/2018,10/8/2018 16:24,12:24:07,2.0.10.248,3,2,1,3,,,,,,,,TrainingProc,BlockList,41,2,Distractor2.bmp,2,0,,0,1,1513630,501,,0,0,red,500,2,500,1,horizontal,red,Distractor1.bmp,yellow,Distractor2.bmp,lime,Target2.bmp,purple,Distractor2.bmp,cyan,Distractor2.bmp,blue,Distractor1.bmp,,,,TrialProc,,TrainingTrialList,0,2,-999999,1,1514131,0,1,1246,1515377,Target2.bmp,lime,2,,,,3,4,89
KW_Experiment5A,3,1,"<?xml version=""1.0""?>\n<Clock xmlns:dt=""urn:schemas-microsoft-com:datatypes""><Description dt:dt=""string"">E-Prime Primary Realtime Clock</Description><StartTime><Timestamp dt:dt=""int"">0</Timestamp><DateUtc dt:dt=""string"">2018-10-08T16:24:07Z</DateUtc></StartTime><FrequencyChanges><FrequencyChange><Frequency dt:dt=""r8"">3215292</Frequency><Timestamp dt:dt=""r8"">3340920834530</Timestamp><Current dt:dt=""r8"">0</Current><DateUtc dt:dt=""string"">2018-10-08T16:24:07Z</DateUtc></FrequencyChange></FrequencyChanges></Clock>\n",KW_Experiment5A-3-1,59.946,1.0.0.105,1,-563086583,Professional,2.0.10.353,2.0.10.353,10/8/2018,10/8/2018 16:24,12:24:07,2.0.10.248,3,2,1,3,,,,,,,,TrainingProc,BlockList,42,2,Distractor1.bmp,1,0,,1,0,1516399,401,,0,0,yellow,400,1,400,2,horizontal,yellow,Distractor1.bmp,lime,Target2.bmp,red,Distractor1.bmp,blue,Distractor2.bmp,purple,Distractor2.bmp,cyan,Distractor1.bmp,,,,TrialProc,,TrainingTrialList,0,2,-999999,1,1516800,0,1,161,1516961,Target2.bmp,lime,2,,,,2,4,90
