ExperimentName,Subject,Session,Clock.Information,DataFile.Basename,Display.RefreshRate,ExperimentVersion,Group,RandomSeed,RuntimeCapabilities,RuntimeVersion,RuntimeVersionExpected,SessionDate,SessionStartDateTimeUtc,SessionTime,StudioVersion,Block,BlockList,BlockList.Cycle,BlockList.Sample,PostTestQ1.RESP,PostTestQ1CJ.RESP,PostTestQ2.RESP,PostTestQ2CJ.RESP,PostTestQ3.RESP,PostTestQ3CJ.RESP,PostTestSlide.RESP,Procedure[Block],Running[Block],Trial,CorrectResponse,Distractor,DistractorList,Fixation.ACC,Fixation.CRESP,Fixation.DurationError,Fixation.OnsetDelay,Fixation.OnsetTime,Fixation.OnsetToOnsetTime,Fixation.RESP,Fixation.RT,Fixation.RTTime,ItemColor,Jitter,JitterList,JitterTime,Lime0List,Orientation,Pos1Color,Pos1Item,Pos2Color,Pos2Item,Pos3Color,Pos3Item,Pos4Color,Pos4Item,Pos5Color,Pos5Item,Pos6Color,Pos6Item,PracticeTrialList,PracticeTrialList.Cycle,PracticeTrialList.Sample,Procedure[Trial],Red0List,Running[Trial],Stimulus.ACC,Stimulus.CRESP,Stimulus.DurationError,Stimulus.OnsetDelay,Stimulus.OnsetTime,Stimulus.OnsetToOnsetTime,Stimulus.RESP,Stimulus.RT,Stimulus.RTTime,Target,TargetColor,TargetList,TestTrialList,TestTrialList.Cycle,TestTrialList.Sample,TrainingTrialList,TrainingTrialList.Cycle,TrainingTrialList.Sample
KW_Experiment5A,48,1,"<?xml version=""1.0""?>\n<Clock xmlns:dt=""urn:schemas-microsoft-com:datatypes""><Description dt:dt=""string"">E-Prime Primary Realtime Clock</Description><StartTime><Timestamp dt:dt=""int"">0</Timestamp><DateUtc dt:dt=""string"">2018-10-26T15:06:23Z</DateUtc></StartTime><FrequencyChanges><FrequencyChange><Frequency dt:dt=""r8"">3215273</Frequency><Timestamp dt:dt=""r8"">1831119343536</Timestamp><Current dt:dt=""r8"">0</Current><DateUtc dt:dt=""string"">2018-10-26T15:06:23Z</DateUtc></FrequencyChange></FrequencyChanges></Clock>\n",KW_Experiment5A-48-1,59.944,1.0.0.105,1,1463925673,Professional,2.0.10.353,2.0.10.353,10/26/2018,10/26/2018 15:06,11:06:23,2.0.10.248,1,1,1,1,,,,,,,,PracticeProc,BlockList,1,1,Distractor1.bmp,1,0,,0,39,4206093,400,,0,0,yellow,400,1,400,2,vertical,lime,Target1.bmp,cyan,Distractor1.bmp,red,Distractor1.bmp,blue,Distractor2.bmp,purple,Distractor1.bmp,yellow,Distractor2.bmp,1,1,1,TrialProc,,PracticeTrialList,1,1,-999999,0,4206493,0,1,4393,4210886,Target1.bmp,lime,1,,,,,,
KW_Experiment5A,48,1,"<?xml version=""1.0""?>\n<Clock xmlns:dt=""urn:schemas-microsoft-com:datatypes""><Description dt:dt=""string"">E-Prime Primary Realtime Clock</Description><StartTime><Timestamp dt:dt=""int"">0</Timestamp><DateUtc dt:dt=""string"">2018-10-26T15:06:23Z</DateUtc></StartTime><FrequencyChanges><FrequencyChange><Frequency dt:dt=""r8"">3215273</Frequency><Timestamp dt:dt=""r8"">1831119343536</Timestamp><Current dt:dt=""r8"">0</Current><DateUtc dt:dt=""string"">2018-10-26T15:06:23Z</DateUtc></FrequencyChange></FrequencyChanges></Clock>\n",KW_Experiment5A-48-1,59.944,1.0.0.105,1,1463925673,Professional,2.0.10.353,2.0.10.353,10/26/2018,10/26/2018 15:06,11:06:23,2.0.10.248,1,1,1,1,,,,,,,,PracticeProc,BlockList,2,2,Distractor1.bmp,1,0,,0,1,4211915,400,,0,0,cyan,400,1,400,4,horizontal,red,Distractor2.bmp,cyan,Distractor2.bmp,lime,Target2.bmp,yellow,Distractor1.bmp,blue,Distractor1.bmp,purple,Distractor2.bmp,3,1,2,TrialProc,,PracticeTrialList,0,2,-999999,0,4212315,0,1,339,4212654,Target2.bmp,lime,2,,,,,,
KW_Experiment5A,48,1,"<?xml version=""1.0""?>\n<Clock xmlns:dt=""urn:schemas-microsoft-com:datatypes""><Description dt:dt=""string"">E-Prime Primary Realtime Clock</Description><StartTime><Timestamp dt:dt=""int"">0</Timestamp><DateUtc dt:dt=""string"">2018-10-26T15:06:23Z</DateUtc></StartTime><FrequencyChanges><FrequencyChange><Frequency dt:dt=""r8"">3215273</Frequency><Timestamp dt:dt=""r8"">1831119343536</Timestamp><Current dt:dt=""r8"">0</Current><DateUtc dt:dt=""string"">2018-10-26T15:06:23Z</DateUtc></FrequencyChange></FrequencyChanges></Clock>\n",KW_Experiment5A-48-1,59.944,1.0.0.105,1,1463925673,Professional,2.0.10.353,2.0.10.353,10/26/2018,10/26/2018 15:06,11:06:23,2.0.10.248,1,1,1,1,,,,,,,,PracticeProc,BlockList,3,2,Distractor1.bmp,1,0,,0,1,4213666,401,,0,0,purple,400,1,400,,horizontal,lime,Distractor1.bmp,blue,Distractor2.bmp,yellow,Distractor2.bmp,cyan,Distractor1.bmp,purple,Distractor1.bmp,red,Target2.bmp,6,1,3,TrialProc,5,PracticeTrialList,1,2,-999999,1,4214067,0,2,290,4214357,Target2.bmp,red,2,,,,,,
KW_Experiment5A,48,1,"<?xml version=""1.0""?>\n<Clock xmlns:dt=""urn:schemas-microsoft-com:datatypes""><Description dt:dt=""string"">E-Prime Primary Realtime Clock</Description><StartTime><Timestamp dt:dt=""int"">0</Timestamp><DateUtc dt:dt=""string"">2018-10-26T15:06:23Z</DateUtc></StartTime><FrequencyChanges><FrequencyChange><Frequency dt:dt=""r8"">3215273</Frequency><Timestamp dt:dt=""r8"">1831119343536</Timestamp><Current dt:dt=""r8"">0</Current><DateUtc dt:dt=""string"">2018-10-26T15:06:23Z</DateUtc></FrequencyChange></FrequencyChanges></Clock>\n",KW_Experiment5A-48-1,59.944,1.0.0.105,1,1463925673,Professional,2.0.10.353,2.0.10.353,10/26/2018,10/26/2018 15:06,11:06:23,2.0.10.248,1,1,1,1,,,,,,,,PracticeProc,BlockList,4,2,Distractor1.bmp,1,0,,0,1,4215368,500,,0,0,purple,500,2,500,,horizontal,purple,Distractor2.bmp,red,Target2.bmp,lime,Distractor1.bmp,blue,Distractor2.bmp,yellow,Distractor1.bmp,cyan,Distractor1.bmp,2,1,4,TrialProc,5,PracticeTrialList,1,2,-999999,0,4215868,0,2,305,4216173,Target2.bmp,red,2,,,,,,
KW_Experiment5A,48,1,"<?xml version=""1.0""?>\n<Clock xmlns:dt=""urn:schemas-microsoft-com:datatypes""><Description dt:dt=""string"">E-Prime Primary Realtime Clock</Description><StartTime><Timestamp dt:dt=""int"">0</Timestamp><DateUtc dt:dt=""string"">2018-10-26T15:06:23Z</DateUtc></StartTime><FrequencyChanges><FrequencyChange><Frequency dt:dt=""r8"">3215273</Frequency><Timestamp dt:dt=""r8"">1831119343536</Timestamp><Current dt:dt=""r8"">0</Current><DateUtc dt:dt=""string"">2018-10-26T15:06:23Z</DateUtc></FrequencyChange></FrequencyChanges></Clock>\n",KW_Experiment5A-48-1,59.944,1.0.0.105,1,1463925673,Professional,2.0.10.353,2.0.10.353,10/26/2018,10/26/2018 15:06,11:06:23,2.0.10.248,1,1,1,1,,,,,,,,PracticeProc,BlockList,5,1,Distractor2.bmp,2,0,,0,1,4217186,601,,0,0,yellow,600,3,600,,vertical,purple,Distractor1.bmp,lime,Distractor1.bmp,yellow,Distractor1.bmp,red,Target1.bmp,blue,Distractor2.bmp,cyan,Distractor1.bmp,4,1,5,TrialProc,2,PracticeTrialList,0,1,-999999,1,4217787,0,2,378,4218165,Target1.bmp,red,1,,,,,,
KW_Experiment5A,48,1,"<?xml version=""1.0""?>\n<Clock xmlns:dt=""urn:schemas-microsoft-com:datatypes""><Description dt:dt=""string"">E-Prime Primary Realtime Clock</Description><StartTime><Timestamp dt:dt=""int"">0</Timestamp><DateUtc dt:dt=""string"">2018-10-26T15:06:23Z</DateUtc></StartTime><FrequencyChanges><FrequencyChange><Frequency dt:dt=""r8"">3215273</Frequency><Timestamp dt:dt=""r8"">1831119343536</Timestamp><Current dt:dt=""r8"">0</Current><DateUtc dt:dt=""string"">2018-10-26T15:06:23Z</DateUtc></FrequencyChange></FrequencyChanges></Clock>\n",KW_Experiment5A-48-1,59.944,1.0.0.105,1,1463925673,Professional,2.0.10.353,2.0.10.353,10/26/2018,10/26/2018 15:06,11:06:23,2.0.10.248,1,1,1,1,,,,,,,,PracticeProc,BlockList,6,2,Distractor2.bmp,2,0,,0,1,4219188,400,,0,0,cyan,400,1,400,4,horizontal,blue,Distractor2.bmp,red,Distractor2.bmp,yellow,Distractor2.bmp,cyan,Distractor1.bmp,lime,Target2.bmp,purple,Distractor2.bmp,5,1,6,TrialProc,,PracticeTrialList,0,2,-999999,0,4219588,0,1,353,4219941,Target2.bmp,lime,2,,,,,,
KW_Experiment5A,48,1,"<?xml version=""1.0""?>\n<Clock xmlns:dt=""urn:schemas-microsoft-com:datatypes""><Description dt:dt=""string"">E-Prime Primary Realtime Clock</Description><StartTime><Timestamp dt:dt=""int"">0</Timestamp><DateUtc dt:dt=""string"">2018-10-26T15:06:23Z</DateUtc></StartTime><FrequencyChanges><FrequencyChange><Frequency dt:dt=""r8"">3215273</Frequency><Timestamp dt:dt=""r8"">1831119343536</Timestamp><Current dt:dt=""r8"">0</Current><DateUtc dt:dt=""string"">2018-10-26T15:06:23Z</DateUtc></FrequencyChange></FrequencyChanges></Clock>\n",KW_Experiment5A-48-1,59.944,1.0.0.105,1,1463925673,Professional,2.0.10.353,2.0.10.353,10/26/2018,10/26/2018 15:06,11:06:23,2.0.10.248,2,2,1,2,,,,,,,,TrainingProc,BlockList,1,1,Distractor2.bmp,2,0,,0,15,4225844,501,,0,0,yellow,500,2,500,2,vertical,yellow,Distractor1.bmp,purple,Distractor1.bmp,blue,Distractor2.bmp,cyan,Distractor2.bmp,lime,Target1.bmp,red,Distractor2.bmp,,,,TrialProc,,TrainingTrialList,1,1,-999999,1,4226345,0,1,396,4226741,Target1.bmp,lime,1,,,,5,1,1
KW_Experiment5A,48,1,"<?xml version=""1.0""?>\n<Clock xmlns:dt=""urn:schemas-microsoft-com:datatypes""><Description dt:dt=""string"">E-Prime Primary Realtime Clock</Description><StartTime><Timestamp dt:dt=""int"">0</Timestamp><DateUtc dt:dt=""string"">2018-10-26T15:06:23Z</DateUtc></StartTime><FrequencyChanges><FrequencyChange><Frequency dt:dt=""r8"">3215273</Frequency><Timestamp dt:dt=""r8"">1831119343536</Timestamp><Current dt:dt=""r8"">0</Current><DateUtc dt:dt=""string"">2018-10-26T15:06:23Z</DateUtc></FrequencyChange></FrequencyChanges></Clock>\n",KW_Experiment5A-48-1,59.944,1.0.0.105,1,1463925673,Professional,2.0.10.353,2.0.10.353,10/26/2018,10/26/2018 15:06,11:06:23,2.0.10.248,2,2,1,2,,,,,,,,TrainingProc,BlockList,2,1,Distractor1.bmp,1,0,,0,1,4227763,400,,0,0,purple,400,1,400,5,vertical,purple,Distractor2.bmp,lime,Target1.bmp,cyan,Distractor1.bmp,red,Distractor2.bmp,yellow,Distractor1.bmp,blue,Distractor2.bmp,,,,TrialProc,,TrainingTrialList,1,1,-999999,0,4228163,0,1,186,4228349,Target1.bmp,lime,1,,,,2,1,2
KW_Experiment5A,48,1,"<?xml version=""1.0""?>\n<Clock xmlns:dt=""urn:schemas-microsoft-com:datatypes""><Description dt:dt=""string"">E-Prime Primary Realtime Clock</Description><StartTime><Timestamp dt:dt=""int"">0</Timestamp><DateUtc dt:dt=""string"">2018-10-26T15:06:23Z</DateUtc></StartTime><FrequencyChanges><FrequencyChange><Frequency dt:dt=""r8"">3215273</Frequency><Timestamp dt:dt=""r8"">1831119343536</Timestamp><Current dt:dt=""r8"">0</Current><DateUtc dt:dt=""string"">2018-10-26T15:06:23Z</DateUtc></FrequencyChange></FrequencyChanges></Clock>\n",KW_Experiment5A-48-1,59.944,1.0.0.105,1,1463925673,Professional,2.0.10.353,2.0.10.353,10/26/2018,10/26/2018 15:06,11:06:23,2.0.10.248,2,2,1,2,,,,,,,,TrainingProc,BlockList,3,2,Distractor2.bmp,2,0,,0,1,4229364,601,,0,0,yellow,600,3,600,2,horizontal,lime,Target2.bmp,yellow,Distractor2.bmp,red,Distractor2.bmp,cyan,Distractor1.bmp,purple,Distractor2.bmp,blue,Distractor2.bmp,,,,TrialProc,,TrainingTrialList,0,2,-999999,1,4229965,0,1,608,4230573,Target2.bmp,lime,2,,,,1,1,3
KW_Experiment5A,48,1,"<?xml version=""1.0""?>\n<Clock xmlns:dt=""urn:schemas-microsoft-com:datatypes""><Description dt:dt=""string"">E-Prime Primary Realtime Clock</Description><StartTime><Timestamp dt:dt=""int"">0</Timestamp><DateUtc dt:dt=""string"">2018-10-26T15:06:23Z</DateUtc></StartTime><FrequencyChanges><FrequencyChange><Frequency dt:dt=""r8"">3215273</Frequency><Timestamp dt:dt=""r8"">1831119343536</Timestamp><Current dt:dt=""r8"">0</Current><DateUtc dt:dt=""string"">2018-10-26T15:06:23Z</DateUtc></FrequencyChange></FrequencyChanges></Clock>\n",KW_Experiment5A-48-1,59.944,1.0.0.105,1,1463925673,Professional,2.0.10.353,2.0.10.353,10/26/2018,10/26/2018 15:06,11:06:23,2.0.10.248,2,2,1,2,,,,,,,,TrainingProc,BlockList,4,2,Distractor2.bmp,2,0,,1,0,4231599,401,,0,0,red,400,1,400,1,horizontal,red,Distractor2.bmp,purple,Distractor2.bmp,cyan,Distractor1.bmp,blue,Distractor1.bmp,yellow,Distractor1.bmp,lime,Target2.bmp,,,,TrialProc,,TrainingTrialList,1,2,-999999,1,4232000,0,2,317,4232317,Target2.bmp,lime,2,,,,6,1,4
KW_Experiment5A,48,1,"<?xml version=""1.0""?>\n<Clock xmlns:dt=""urn:schemas-microsoft-com:datatypes""><Description dt:dt=""string"">E-Prime Primary Realtime Clock</Description><StartTime><Timestamp dt:dt=""int"">0</Timestamp><DateUtc dt:dt=""string"">2018-10-26T15:06:23Z</DateUtc></StartTime><FrequencyChanges><FrequencyChange><Frequency dt:dt=""r8"">3215273</Frequency><Timestamp dt:dt=""r8"">1831119343536</Timestamp><Current dt:dt=""r8"">0</Current><DateUtc dt:dt=""string"">2018-10-26T15:06:23Z</DateUtc></FrequencyChange></FrequencyChanges></Clock>\n",KW_Experiment5A-48-1,59.944,1.0.0.105,1,1463925673,Professional,2.0.10.353,2.0.10.353,10/26/2018,10/26/2018 15:06,11:06:23,2.0.10.248,2,2,1,2,,,,,,,,TrainingProc,BlockList,5,2,Distractor2.bmp,2,0,,0,1,4233334,401,,0,0,blue,400,1,400,3,horizontal,blue,Distractor2.bmp,cyan,Distractor1.bmp,purple,Distractor2.bmp,yellow,Distractor1.bmp,lime,Target2.bmp,red,Distractor2.bmp,,,,TrialProc,,TrainingTrialList,0,2,-999999,1,4233735,0,1,430,4234165,Target2.bmp,lime,2,,,,5,1,5
KW_Experiment5A,48,1,"<?xml version=""1.0""?>\n<Clock xmlns:dt=""urn:schemas-microsoft-com:datatypes""><Description dt:dt=""string"">E-Prime Primary Realtime Clock</Description><StartTime><Timestamp dt:dt=""int"">0</Timestamp><DateUtc dt:dt=""string"">2018-10-26T15:06:23Z</DateUtc></StartTime><FrequencyChanges><FrequencyChange><Frequency dt:dt=""r8"">3215273</Frequency><Timestamp dt:dt=""r8"">1831119343536</Timestamp><Current dt:dt=""r8"">0</Current><DateUtc dt:dt=""string"">2018-10-26T15:06:23Z</DateUtc></FrequencyChange></FrequencyChanges></Clock>\n",KW_Experiment5A-48-1,59.944,1.0.0.105,1,1463925673,Professional,2.0.10.353,2.0.10.353,10/26/2018,10/26/2018 15:06,11:06:23,2.0.10.248,2,2,1,2,,,,,,,,TrainingProc,BlockList,6,2,Distractor1.bmp,1,0,,0,1,4235186,501,,0,0,red,500,2,500,1,horizontal,red,Distractor1.bmp,lime,Target2.bmp,cyan,Distractor1.bmp,yellow,Distractor2.bmp,blue,Distractor1.bmp,purple,Distractor1.bmp,,,,TrialProc,,TrainingTrialList,1,2,-999999,1,4235687,0,2,534,4236221,Target2.bmp,lime,2,,,,2,1,6
KW_Experiment5A,48,1,"<?xml version=""1.0""?>\n<Clock xmlns:dt=""urn:schemas-microsoft-com:datatypes""><Description dt:dt=""string"">E-Prime Primary Realtime Clock</Description><StartTime><Timestamp dt:dt=""int"">0</Timestamp><DateUtc dt:dt=""string"">2018-10-26T15:06:23Z</DateUtc></StartTime><FrequencyChanges><FrequencyChange><Frequency dt:dt=""r8"">3215273</Frequency><Timestamp dt:dt=""r8"">1831119343536</Timestamp><Current dt:dt=""r8"">0</Current><DateUtc dt:dt=""string"">2018-10-26T15:06:23Z</DateUtc></FrequencyChange></FrequencyChanges></Clock>\n",KW_Experiment5A-48-1,59.944,1.0.0.105,1,1463925673,Professional,2.0.10.353,2.0.10.353,10/26/2018,10/26/2018 15:06,11:06:23,2.0.10.248,2,2,1,2,,,,,,,,TrainingProc,BlockList,7,2,Distractor2.bmp,2,0,,0,1,4237238,600,,0,0,red,600,3,600,1,horizontal,red,Distractor1.bmp,blue,Distractor2.bmp,lime,Target2.bmp,yellow,Distractor2.bmp,purple,Distractor2.bmp,cyan,Distractor1.bmp,,,,TrialProc,,TrainingTrialList,1,2,-999999,0,4237838,0,2,431,4238269,Target2.bmp,lime,2,,,,3,1,7
KW_Experiment5A,48,1,"<?xml version=""1.0""?>\n<Clock xmlns:dt=""urn:schemas-microsoft-com:datatypes""><Description dt:dt=""string"">E-Prime Primary Realtime Clock</Description><StartTime><Timestamp dt:dt=""int"">0</Timestamp><DateUtc dt:dt=""string"">2018-10-26T15:06:23Z</DateUtc></StartTime><FrequencyChanges><FrequencyChange><Frequency dt:dt=""r8"">3215273</Frequency><Timestamp dt:dt=""r8"">1831119343536</Timestamp><Current dt:dt=""r8"">0</Current><DateUtc dt:dt=""string"">2018-10-26T15:06:23Z</DateUtc></FrequencyChange></FrequencyChanges></Clock>\n",KW_Experiment5A-48-1,59.944,1.0.0.105,1,1463925673,Professional,2.0.10.353,2.0.10.353,10/26/2018,10/26/2018 15:06,11:06:23,2.0.10.248,2,2,1,2,,,,,,,,TrainingProc,BlockList,8,1,Distractor1.bmp,1,0,,0,1,4239290,400,,0,0,blue,400,1,400,,vertical,blue,Distractor1.bmp,purple,Distractor1.bmp,cyan,Distractor1.bmp,yellow,Distractor2.bmp,lime,Distractor1.bmp,red,Target1.bmp,,,,TrialProc,3,TrainingTrialList,1,1,-999999,0,4239690,0,1,419,4240109,Target1.bmp,red,1,,,,12,1,8
KW_Experiment5A,48,1,"<?xml version=""1.0""?>\n<Clock xmlns:dt=""urn:schemas-microsoft-com:datatypes""><Description dt:dt=""string"">E-Prime Primary Realtime Clock</Description><StartTime><Timestamp dt:dt=""int"">0</Timestamp><DateUtc dt:dt=""string"">2018-10-26T15:06:23Z</DateUtc></StartTime><FrequencyChanges><FrequencyChange><Frequency dt:dt=""r8"">3215273</Frequency><Timestamp dt:dt=""r8"">1831119343536</Timestamp><Current dt:dt=""r8"">0</Current><DateUtc dt:dt=""string"">2018-10-26T15:06:23Z</DateUtc></FrequencyChange></FrequencyChanges></Clock>\n",KW_Experiment5A-48-1,59.944,1.0.0.105,1,1463925673,Professional,2.0.10.353,2.0.10.353,10/26/2018,10/26/2018 15:06,11:06:23,2.0.10.248,2,2,1,2,,,,,,,,TrainingProc,BlockList,9,2,Distractor2.bmp,2,0,,0,1,4241125,600,,0,0,purple,600,3,600,,horizontal,purple,Distractor1.bmp,lime,Distractor2.bmp,yellow,Distractor2.bmp,blue,Distractor1.bmp,red,Target2.bmp,cyan,Distractor2.bmp,,,,TrialProc,5,TrainingTrialList,0,2,-999999,0,4241725,0,1,552,4242277,Target2.bmp,red,2,,,,11,1,9
KW_Experiment5A,48,1,"<?xml version=""1.0""?>\n<Clock xmlns:dt=""urn:schemas-microsoft-com:datatypes""><Description dt:dt=""string"">E-Prime Primary Realtime Clock</Description><StartTime><Timestamp dt:dt=""int"">0</Timestamp><DateUtc dt:dt=""string"">2018-10-26T15:06:23Z</DateUtc></StartTime><FrequencyChanges><FrequencyChange><Frequency dt:dt=""r8"">3215273</Frequency><Timestamp dt:dt=""r8"">1831119343536</Timestamp><Current dt:dt=""r8"">0</Current><DateUtc dt:dt=""string"">2018-10-26T15:06:23Z</DateUtc></FrequencyChange></FrequencyChanges></Clock>\n",KW_Experiment5A-48-1,59.944,1.0.0.105,1,1463925673,Professional,2.0.10.353,2.0.10.353,10/26/2018,10/26/2018 15:06,11:06:23,2.0.10.248,2,2,1,2,,,,,,,,TrainingProc,BlockList,10,2,Distractor1.bmp,1,0,,1,0,4243293,501,,0,0,yellow,500,2,500,2,horizontal,yellow,Distractor1.bmp,blue,Distractor1.bmp,purple,Distractor2.bmp,lime,Target2.bmp,red,Distractor1.bmp,cyan,Distractor2.bmp,,,,TrialProc,,TrainingTrialList,1,2,-999999,1,4243794,0,2,675,4244469,Target2.bmp,lime,2,,,,4,1,10
KW_Experiment5A,48,1,"<?xml version=""1.0""?>\n<Clock xmlns:dt=""urn:schemas-microsoft-com:datatypes""><Description dt:dt=""string"">E-Prime Primary Realtime Clock</Description><StartTime><Timestamp dt:dt=""int"">0</Timestamp><DateUtc dt:dt=""string"">2018-10-26T15:06:23Z</DateUtc></StartTime><FrequencyChanges><FrequencyChange><Frequency dt:dt=""r8"">3215273</Frequency><Timestamp dt:dt=""r8"">1831119343536</Timestamp><Current dt:dt=""r8"">0</Current><DateUtc dt:dt=""string"">2018-10-26T15:06:23Z</DateUtc></FrequencyChange></FrequencyChanges></Clock>\n",KW_Experiment5A-48-1,59.944,1.0.0.105,1,1463925673,Professional,2.0.10.353,2.0.10.353,10/26/2018,10/26/2018 15:06,11:06:23,2.0.10.248,2,2,1,2,,,,,,,,TrainingProc,BlockList,11,1,Distractor1.bmp,1,0,,0,1,4245479,600,,0,0,purple,600,3,600,5,vertical,purple,Distractor2.bmp,yellow,Distractor1.bmp,lime,Target1.bmp,blue,Distractor1.bmp,red,Distractor2.bmp,cyan,Distractor1.bmp,,,,TrialProc,,TrainingTrialList,0,1,-999999,0,4246079,0,2,422,4246501,Target1.bmp,lime,1,,,,3,1,11
KW_Experiment5A,48,1,"<?xml version=""1.0""?>\n<Clock xmlns:dt=""urn:schemas-microsoft-com:datatypes""><Description dt:dt=""string"">E-Prime Primary Realtime Clock</Description><StartTime><Timestamp dt:dt=""int"">0</Timestamp><DateUtc dt:dt=""string"">2018-10-26T15:06:23Z</DateUtc></StartTime><FrequencyChanges><FrequencyChange><Frequency dt:dt=""r8"">3215273</Frequency><Timestamp dt:dt=""r8"">1831119343536</Timestamp><Current dt:dt=""r8"">0</Current><DateUtc dt:dt=""string"">2018-10-26T15:06:23Z</DateUtc></FrequencyChange></FrequencyChanges></Clock>\n",KW_Experiment5A-48-1,59.944,1.0.0.105,1,1463925673,Professional,2.0.10.353,2.0.10.353,10/26/2018,10/26/2018 15:06,11:06:23,2.0.10.248,2,2,1,2,,,,,,,,TrainingProc,BlockList,12,1,Distractor2.bmp,2,0,,0,1,4247514,400,,0,0,red,400,1,400,1,vertical,lime,Target1.bmp,red,Distractor2.bmp,cyan,Distractor2.bmp,blue,Distractor1.bmp,purple,Distractor2.bmp,yellow,Distractor1.bmp,,,,TrialProc,,TrainingTrialList,1,1,-999999,0,4247914,0,1,411,4248325,Target1.bmp,lime,1,,,,1,1,12
KW_Experiment5A,48,1,"<?xml version=""1.0""?>\n<Clock xmlns:dt=""urn:schemas-microsoft-com:datatypes""><Description dt:dt=""string"">E-Prime Primary Realtime Clock</Description><StartTime><Timestamp dt:dt=""int"">0</Timestamp><DateUtc dt:dt=""string"">2018-10-26T15:06:23Z</DateUtc></StartTime><FrequencyChanges><FrequencyChange><Frequency dt:dt=""r8"">3215273</Frequency><Timestamp dt:dt=""r8"">1831119343536</Timestamp><Current dt:dt=""r8"">0</Current><DateUtc dt:dt=""string"">2018-10-26T15:06:23Z</DateUtc></FrequencyChange></FrequencyChanges></Clock>\n",KW_Experiment5A-48-1,59.944,1.0.0.105,1,1463925673,Professional,2.0.10.353,2.0.10.353,10/26/2018,10/26/2018 15:06,11:06:23,2.0.10.248,2,2,1,2,,,,,,,,TrainingProc,BlockList,13,2,Distractor2.bmp,2,0,,0,1,4249349,601,,0,0,yellow,600,3,600,2,horizontal,yellow,Distractor2.bmp,purple,Distractor1.bmp,cyan,Distractor1.bmp,blue,Distractor2.bmp,red,Distractor1.bmp,lime,Target2.bmp,,,,TrialProc,,TrainingTrialList,1,2,-999999,1,4249950,0,2,255,4250205,Target2.bmp,lime,2,,,,6,1,13
KW_Experiment5A,48,1,"<?xml version=""1.0""?>\n<Clock xmlns:dt=""urn:schemas-microsoft-com:datatypes""><Description dt:dt=""string"">E-Prime Primary Realtime Clock</Description><StartTime><Timestamp dt:dt=""int"">0</Timestamp><DateUtc dt:dt=""string"">2018-10-26T15:06:23Z</DateUtc></StartTime><FrequencyChanges><FrequencyChange><Frequency dt:dt=""r8"">3215273</Frequency><Timestamp dt:dt=""r8"">1831119343536</Timestamp><Current dt:dt=""r8"">0</Current><DateUtc dt:dt=""string"">2018-10-26T15:06:23Z</DateUtc></FrequencyChange></FrequencyChanges></Clock>\n",KW_Experiment5A-48-1,59.944,1.0.0.105,1,1463925673,Professional,2.0.10.353,2.0.10.353,10/26/2018,10/26/2018 15:06,11:06:23,2.0.10.248,2,2,1,2,,,,,,,,TrainingProc,BlockList,14,1,Distractor2.bmp,2,0,,0,1,4251217,601,,0,0,cyan,600,3,600,4,vertical,cyan,Distractor2.bmp,lime,Target1.bmp,purple,Distractor2.bmp,blue,Distractor2.bmp,yellow,Distractor2.bmp,red,Distractor1.bmp,,,,TrialProc,,TrainingTrialList,0,1,-999999,1,4251818,0,2,283,4252101,Target1.bmp,lime,1,,,,2,1,14
KW_Experiment5A,48,1,"<?xml version=""1.0""?>\n<Clock xmlns:dt=""urn:schemas-microsoft-com:datatypes""><Description dt:dt=""string"">E-Prime Primary Realtime Clock</Description><StartTime><Timestamp dt:dt=""int"">0</Timestamp><DateUtc dt:dt=""string"">2018-10-26T15:06:23Z</DateUtc></StartTime><FrequencyChanges><FrequencyChange><Frequency dt:dt=""r8"">3215273</Frequency><Timestamp dt:dt=""r8"">1831119343536</Timestamp><Current dt:dt=""r8"">0</Current><DateUtc dt:dt=""string"">2018-10-26T15:06:23Z</DateUtc></FrequencyChange></FrequencyChanges></Clock>\n",KW_Experiment5A-48-1,59.944,1.0.0.105,1,1463925673,Professional,2.0.10.353,2.0.10.353,10/26/2018,10/26/2018 15:06,11:06:23,2.0.10.248,2,2,1,2,,,,,,,,TrainingProc,BlockList,15,2,Distractor1.bmp,1,0,,0,1,4253119,400,,0,0,cyan,400,1,400,4,horizontal,cyan,Distractor2.bmp,purple,Distractor2.bmp,blue,Distractor2.bmp,red,Distractor1.bmp,lime,Target2.bmp,yellow,Distractor1.bmp,,,,TrialProc,,TrainingTrialList,0,2,-999999,0,4253519,0,1,422,4253941,Target2.bmp,lime,2,,,,5,1,15
KW_Experiment5A,48,1,"<?xml version=""1.0""?>\n<Clock xmlns:dt=""urn:schemas-microsoft-com:datatypes""><Description dt:dt=""string"">E-Prime Primary Realtime Clock</Description><StartTime><Timestamp dt:dt=""int"">0</Timestamp><DateUtc dt:dt=""string"">2018-10-26T15:06:23Z</DateUtc></StartTime><FrequencyChanges><FrequencyChange><Frequency dt:dt=""r8"">3215273</Frequency><Timestamp dt:dt=""r8"">1831119343536</Timestamp><Current dt:dt=""r8"">0</Current><DateUtc dt:dt=""string"">2018-10-26T15:06:23Z</DateUtc></FrequencyChange></FrequencyChanges></Clock>\n",KW_Experiment5A-48-1,59.944,1.0.0.105,1,1463925673,Professional,2.0.10.353,2.0.10.353,10/26/2018,10/26/2018 15:06,11:06:23,2.0.10.248,2,2,1,2,,,,,,,,TrainingProc,BlockList,16,1,Distractor1.bmp,1,0,,0,1,4254954,501,,0,0,cyan,500,2,500,,vertical,cyan,Distractor1.bmp,yellow,Distractor1.bmp,lime,Distractor2.bmp,red,Target1.bmp,blue,Distractor1.bmp,purple,Distractor1.bmp,,,,TrialProc,4,TrainingTrialList,0,1,-999999,1,4255455,0,2,526,4255981,Target1.bmp,red,1,,,,10,1,16
KW_Experiment5A,48,1,"<?xml version=""1.0""?>\n<Clock xmlns:dt=""urn:schemas-microsoft-com:datatypes""><Description dt:dt=""string"">E-Prime Primary Realtime Clock</Description><StartTime><Timestamp dt:dt=""int"">0</Timestamp><DateUtc dt:dt=""string"">2018-10-26T15:06:23Z</DateUtc></StartTime><FrequencyChanges><FrequencyChange><Frequency dt:dt=""r8"">3215273</Frequency><Timestamp dt:dt=""r8"">1831119343536</Timestamp><Current dt:dt=""r8"">0</Current><DateUtc dt:dt=""string"">2018-10-26T15:06:23Z</DateUtc></FrequencyChange></FrequencyChanges></Clock>\n",KW_Experiment5A-48-1,59.944,1.0.0.105,1,1463925673,Professional,2.0.10.353,2.0.10.353,10/26/2018,10/26/2018 15:06,11:06:23,2.0.10.248,2,2,1,2,,,,,,,,TrainingProc,BlockList,17,2,Distractor2.bmp,2,0,,0,1,4257006,601,,0,0,yellow,600,3,600,,horizontal,yellow,Distractor1.bmp,red,Target2.bmp,cyan,Distractor2.bmp,lime,Distractor1.bmp,purple,Distractor1.bmp,blue,Distractor1.bmp,,,,TrialProc,2,TrainingTrialList,0,2,-999999,1,4257607,0,1,726,4258333,Target2.bmp,red,2,,,,8,1,17
KW_Experiment5A,48,1,"<?xml version=""1.0""?>\n<Clock xmlns:dt=""urn:schemas-microsoft-com:datatypes""><Description dt:dt=""string"">E-Prime Primary Realtime Clock</Description><StartTime><Timestamp dt:dt=""int"">0</Timestamp><DateUtc dt:dt=""string"">2018-10-26T15:06:23Z</DateUtc></StartTime><FrequencyChanges><FrequencyChange><Frequency dt:dt=""r8"">3215273</Frequency><Timestamp dt:dt=""r8"">1831119343536</Timestamp><Current dt:dt=""r8"">0</Current><DateUtc dt:dt=""string"">2018-10-26T15:06:23Z</DateUtc></FrequencyChange></FrequencyChanges></Clock>\n",KW_Experiment5A-48-1,59.944,1.0.0.105,1,1463925673,Professional,2.0.10.353,2.0.10.353,10/26/2018,10/26/2018 15:06,11:06:23,2.0.10.248,2,2,1,2,,,,,,,,TrainingProc,BlockList,18,1,Distractor2.bmp,2,0,,0,1,4259358,601,,0,0,purple,600,3,600,,vertical,red,Target1.bmp,blue,Distractor2.bmp,lime,Distractor1.bmp,cyan,Distractor2.bmp,yellow,Distractor1.bmp,purple,Distractor1.bmp,,,,TrialProc,5,TrainingTrialList,1,1,-999999,1,4259959,0,1,430,4260389,Target1.bmp,red,1,,,,7,1,18
KW_Experiment5A,48,1,"<?xml version=""1.0""?>\n<Clock xmlns:dt=""urn:schemas-microsoft-com:datatypes""><Description dt:dt=""string"">E-Prime Primary Realtime Clock</Description><StartTime><Timestamp dt:dt=""int"">0</Timestamp><DateUtc dt:dt=""string"">2018-10-26T15:06:23Z</DateUtc></StartTime><FrequencyChanges><FrequencyChange><Frequency dt:dt=""r8"">3215273</Frequency><Timestamp dt:dt=""r8"">1831119343536</Timestamp><Current dt:dt=""r8"">0</Current><DateUtc dt:dt=""string"">2018-10-26T15:06:23Z</DateUtc></FrequencyChange></FrequencyChanges></Clock>\n",KW_Experiment5A-48-1,59.944,1.0.0.105,1,1463925673,Professional,2.0.10.353,2.0.10.353,10/26/2018,10/26/2018 15:06,11:06:23,2.0.10.248,2,2,1,2,,,,,,,,TrainingProc,BlockList,19,1,Distractor1.bmp,1,0,,0,1,4261410,601,,0,0,purple,600,3,600,5,vertical,purple,Distractor2.bmp,red,Distractor2.bmp,blue,Distractor1.bmp,lime,Target1.bmp,cyan,Distractor1.bmp,yellow,Distractor2.bmp,,,,TrialProc,,TrainingTrialList,0,1,-999999,1,4262011,0,2,250,4262261,Target1.bmp,lime,1,,,,4,1,19
KW_Experiment5A,48,1,"<?xml version=""1.0""?>\n<Clock xmlns:dt=""urn:schemas-microsoft-com:datatypes""><Description dt:dt=""string"">E-Prime Primary Realtime Clock</Description><StartTime><Timestamp dt:dt=""int"">0</Timestamp><DateUtc dt:dt=""string"">2018-10-26T15:06:23Z</DateUtc></StartTime><FrequencyChanges><FrequencyChange><Frequency dt:dt=""r8"">3215273</Frequency><Timestamp dt:dt=""r8"">1831119343536</Timestamp><Current dt:dt=""r8"">0</Current><DateUtc dt:dt=""string"">2018-10-26T15:06:23Z</DateUtc></FrequencyChange></FrequencyChanges></Clock>\n",KW_Experiment5A-48-1,59.944,1.0.0.105,1,1463925673,Professional,2.0.10.353,2.0.10.353,10/26/2018,10/26/2018 15:06,11:06:23,2.0.10.248,2,2,1,2,,,,,,,,TrainingProc,BlockList,20,2,Distractor1.bmp,1,0,,0,0,4263278,401,,0,0,purple,400,1,400,5,horizontal,purple,Distractor1.bmp,yellow,Distractor2.bmp,red,Distractor2.bmp,cyan,Distractor2.bmp,blue,Distractor1.bmp,lime,Target2.bmp,,,,TrialProc,,TrainingTrialList,0,2,-999999,1,4263679,0,1,238,4263917,Target2.bmp,lime,2,,,,6,1,20
KW_Experiment5A,48,1,"<?xml version=""1.0""?>\n<Clock xmlns:dt=""urn:schemas-microsoft-com:datatypes""><Description dt:dt=""string"">E-Prime Primary Realtime Clock</Description><StartTime><Timestamp dt:dt=""int"">0</Timestamp><DateUtc dt:dt=""string"">2018-10-26T15:06:23Z</DateUtc></StartTime><FrequencyChanges><FrequencyChange><Frequency dt:dt=""r8"">3215273</Frequency><Timestamp dt:dt=""r8"">1831119343536</Timestamp><Current dt:dt=""r8"">0</Current><DateUtc dt:dt=""string"">2018-10-26T15:06:23Z</DateUtc></FrequencyChange></FrequencyChanges></Clock>\n",KW_Experiment5A-48-1,59.944,1.0.0.105,1,1463925673,Professional,2.0.10.353,2.0.10.353,10/26/2018,10/26/2018 15:06,11:06:23,2.0.10.248,2,2,1,2,,,,,,,,TrainingProc,BlockList,21,2,Distractor1.bmp,1,0,,0,1,4264930,400,,0,0,red,400,1,400,1,horizontal,red,Distractor2.bmp,yellow,Distractor1.bmp,lime,Target2.bmp,cyan,Distractor1.bmp,purple,Distractor2.bmp,blue,Distractor2.bmp,,,,TrialProc,,TrainingTrialList,1,2,-999999,0,4265330,0,2,651,4265981,Target2.bmp,lime,2,,,,3,1,21
KW_Experiment5A,48,1,"<?xml version=""1.0""?>\n<Clock xmlns:dt=""urn:schemas-microsoft-com:datatypes""><Description dt:dt=""string"">E-Prime Primary Realtime Clock</Description><StartTime><Timestamp dt:dt=""int"">0</Timestamp><DateUtc dt:dt=""string"">2018-10-26T15:06:23Z</DateUtc></StartTime><FrequencyChanges><FrequencyChange><Frequency dt:dt=""r8"">3215273</Frequency><Timestamp dt:dt=""r8"">1831119343536</Timestamp><Current dt:dt=""r8"">0</Current><DateUtc dt:dt=""string"">2018-10-26T15:06:23Z</DateUtc></FrequencyChange></FrequencyChanges></Clock>\n",KW_Experiment5A-48-1,59.944,1.0.0.105,1,1463925673,Professional,2.0.10.353,2.0.10.353,10/26/2018,10/26/2018 15:06,11:06:23,2.0.10.248,2,2,1,2,,,,,,,,TrainingProc,BlockList,22,1,Distractor1.bmp,1,0,,1,0,4266998,401,,0,0,cyan,400,1,400,4,vertical,cyan,Distractor2.bmp,yellow,Distractor2.bmp,blue,Distractor2.bmp,lime,Target1.bmp,red,Distractor1.bmp,purple,Distractor1.bmp,,,,TrialProc,,TrainingTrialList,1,1,-999999,1,4267399,0,1,693,4268092,Target1.bmp,lime,1,,,,4,1,22
KW_Experiment5A,48,1,"<?xml version=""1.0""?>\n<Clock xmlns:dt=""urn:schemas-microsoft-com:datatypes""><Description dt:dt=""string"">E-Prime Primary Realtime Clock</Description><StartTime><Timestamp dt:dt=""int"">0</Timestamp><DateUtc dt:dt=""string"">2018-10-26T15:06:23Z</DateUtc></StartTime><FrequencyChanges><FrequencyChange><Frequency dt:dt=""r8"">3215273</Frequency><Timestamp dt:dt=""r8"">1831119343536</Timestamp><Current dt:dt=""r8"">0</Current><DateUtc dt:dt=""string"">2018-10-26T15:06:23Z</DateUtc></FrequencyChange></FrequencyChanges></Clock>\n",KW_Experiment5A-48-1,59.944,1.0.0.105,1,1463925673,Professional,2.0.10.353,2.0.10.353,10/26/2018,10/26/2018 15:06,11:06:23,2.0.10.248,2,2,1,2,,,,,,,,TrainingProc,BlockList,23,2,Distractor1.bmp,1,0,,0,1,4269117,601,,0,0,red,600,3,600,1,horizontal,lime,Target2.bmp,red,Distractor1.bmp,cyan,Distractor2.bmp,blue,Distractor1.bmp,purple,Distractor2.bmp,yellow,Distractor1.bmp,,,,TrialProc,,TrainingTrialList,1,2,-999999,1,4269718,0,2,598,4270316,Target2.bmp,lime,2,,,,1,1,23
KW_Experiment5A,48,1,"<?xml version=""1.0""?>\n<Clock xmlns:dt=""urn:schemas-microsoft-com:datatypes""><Description dt:dt=""string"">E-Prime Primary Realtime Clock</Description><StartTime><Timestamp dt:dt=""int"">0</Timestamp><DateUtc dt:dt=""string"">2018-10-26T15:06:23Z</DateUtc></StartTime><FrequencyChanges><FrequencyChange><Frequency dt:dt=""r8"">3215273</Frequency><Timestamp dt:dt=""r8"">1831119343536</Timestamp><Current dt:dt=""r8"">0</Current><DateUtc dt:dt=""string"">2018-10-26T15:06:23Z</DateUtc></FrequencyChange></FrequencyChanges></Clock>\n",KW_Experiment5A-48-1,59.944,1.0.0.105,1,1463925673,Professional,2.0.10.353,2.0.10.353,10/26/2018,10/26/2018 15:06,11:06:23,2.0.10.248,2,2,1,2,,,,,,,,TrainingProc,BlockList,24,2,Distractor2.bmp,2,0,,0,1,4271336,500,,0,0,lime,500,2,500,,horizontal,lime,Distractor2.bmp,blue,Distractor1.bmp,red,Target2.bmp,purple,Distractor2.bmp,yellow,Distractor2.bmp,cyan,Distractor2.bmp,,,,TrialProc,6,TrainingTrialList,0,2,-999999,0,4271836,0,1,664,4272500,Target2.bmp,red,2,,,,9,1,24
KW_Experiment5A,48,1,"<?xml version=""1.0""?>\n<Clock xmlns:dt=""urn:schemas-microsoft-com:datatypes""><Description dt:dt=""string"">E-Prime Primary Realtime Clock</Description><StartTime><Timestamp dt:dt=""int"">0</Timestamp><DateUtc dt:dt=""string"">2018-10-26T15:06:23Z</DateUtc></StartTime><FrequencyChanges><FrequencyChange><Frequency dt:dt=""r8"">3215273</Frequency><Timestamp dt:dt=""r8"">1831119343536</Timestamp><Current dt:dt=""r8"">0</Current><DateUtc dt:dt=""string"">2018-10-26T15:06:23Z</DateUtc></FrequencyChange></FrequencyChanges></Clock>\n",KW_Experiment5A-48-1,59.944,1.0.0.105,1,1463925673,Professional,2.0.10.353,2.0.10.353,10/26/2018,10/26/2018 15:06,11:06:23,2.0.10.248,2,2,1,2,,,,,,,,TrainingProc,BlockList,25,2,Distractor2.bmp,2,0,,0,1,4273521,501,,0,0,purple,500,2,500,5,horizontal,purple,Distractor1.bmp,red,Distractor2.bmp,lime,Target2.bmp,cyan,Distractor2.bmp,yellow,Distractor1.bmp,blue,Distractor1.bmp,,,,TrialProc,,TrainingTrialList,1,2,-999999,1,4274022,0,2,750,4274772,Target2.bmp,lime,2,,,,3,2,25
KW_Experiment5A,48,1,"<?xml version=""1.0""?>\n<Clock xmlns:dt=""urn:schemas-microsoft-com:datatypes""><Description dt:dt=""string"">E-Prime Primary Realtime Clock</Description><StartTime><Timestamp dt:dt=""int"">0</Timestamp><DateUtc dt:dt=""string"">2018-10-26T15:06:23Z</DateUtc></StartTime><FrequencyChanges><FrequencyChange><Frequency dt:dt=""r8"">3215273</Frequency><Timestamp dt:dt=""r8"">1831119343536</Timestamp><Current dt:dt=""r8"">0</Current><DateUtc dt:dt=""string"">2018-10-26T15:06:23Z</DateUtc></FrequencyChange></FrequencyChanges></Clock>\n",KW_Experiment5A-48-1,59.944,1.0.0.105,1,1463925673,Professional,2.0.10.353,2.0.10.353,10/26/2018,10/26/2018 15:06,11:06:23,2.0.10.248,2,2,1,2,,,,,,,,TrainingProc,BlockList,26,1,Distractor1.bmp,1,0,,0,1,4275790,500,,0,0,lime,500,2,500,,vertical,lime,Distractor1.bmp,blue,Distractor1.bmp,purple,Distractor2.bmp,cyan,Distractor1.bmp,red,Target1.bmp,yellow,Distractor1.bmp,,,,TrialProc,6,TrainingTrialList,1,1,-999999,0,4276290,0,1,562,4276852,Target1.bmp,red,1,,,,11,2,26
KW_Experiment5A,48,1,"<?xml version=""1.0""?>\n<Clock xmlns:dt=""urn:schemas-microsoft-com:datatypes""><Description dt:dt=""string"">E-Prime Primary Realtime Clock</Description><StartTime><Timestamp dt:dt=""int"">0</Timestamp><DateUtc dt:dt=""string"">2018-10-26T15:06:23Z</DateUtc></StartTime><FrequencyChanges><FrequencyChange><Frequency dt:dt=""r8"">3215273</Frequency><Timestamp dt:dt=""r8"">1831119343536</Timestamp><Current dt:dt=""r8"">0</Current><DateUtc dt:dt=""string"">2018-10-26T15:06:23Z</DateUtc></FrequencyChange></FrequencyChanges></Clock>\n",KW_Experiment5A-48-1,59.944,1.0.0.105,1,1463925673,Professional,2.0.10.353,2.0.10.353,10/26/2018,10/26/2018 15:06,11:06:23,2.0.10.248,2,2,1,2,,,,,,,,TrainingProc,BlockList,27,2,Distractor2.bmp,2,0,,0,1,4277875,601,,0,0,yellow,600,3,600,2,horizontal,lime,Target2.bmp,yellow,Distractor2.bmp,purple,Distractor2.bmp,blue,Distractor1.bmp,cyan,Distractor1.bmp,red,Distractor2.bmp,,,,TrialProc,,TrainingTrialList,1,2,-999999,1,4278476,0,2,544,4279020,Target2.bmp,lime,2,,,,1,2,27
KW_Experiment5A,48,1,"<?xml version=""1.0""?>\n<Clock xmlns:dt=""urn:schemas-microsoft-com:datatypes""><Description dt:dt=""string"">E-Prime Primary Realtime Clock</Description><StartTime><Timestamp dt:dt=""int"">0</Timestamp><DateUtc dt:dt=""string"">2018-10-26T15:06:23Z</DateUtc></StartTime><FrequencyChanges><FrequencyChange><Frequency dt:dt=""r8"">3215273</Frequency><Timestamp dt:dt=""r8"">1831119343536</Timestamp><Current dt:dt=""r8"">0</Current><DateUtc dt:dt=""string"">2018-10-26T15:06:23Z</DateUtc></FrequencyChange></FrequencyChanges></Clock>\n",KW_Experiment5A-48-1,59.944,1.0.0.105,1,1463925673,Professional,2.0.10.353,2.0.10.353,10/26/2018,10/26/2018 15:06,11:06:23,2.0.10.248,2,2,1,2,,,,,,,,TrainingProc,BlockList,28,2,Distractor2.bmp,2,0,,0,1,4280044,500,,0,0,blue,500,2,500,3,horizontal,blue,Distractor2.bmp,purple,Distractor1.bmp,cyan,Distractor2.bmp,lime,Target2.bmp,red,Distractor2.bmp,yellow,Distractor2.bmp,,,,TrialProc,,TrainingTrialList,1,2,-999999,0,4280544,0,2,724,4281268,Target2.bmp,lime,2,,,,4,2,28
KW_Experiment5A,48,1,"<?xml version=""1.0""?>\n<Clock xmlns:dt=""urn:schemas-microsoft-com:datatypes""><Description dt:dt=""string"">E-Prime Primary Realtime Clock</Description><StartTime><Timestamp dt:dt=""int"">0</Timestamp><DateUtc dt:dt=""string"">2018-10-26T15:06:23Z</DateUtc></StartTime><FrequencyChanges><FrequencyChange><Frequency dt:dt=""r8"">3215273</Frequency><Timestamp dt:dt=""r8"">1831119343536</Timestamp><Current dt:dt=""r8"">0</Current><DateUtc dt:dt=""string"">2018-10-26T15:06:23Z</DateUtc></FrequencyChange></FrequencyChanges></Clock>\n",KW_Experiment5A-48-1,59.944,1.0.0.105,1,1463925673,Professional,2.0.10.353,2.0.10.353,10/26/2018,10/26/2018 15:06,11:06:23,2.0.10.248,2,2,1,2,,,,,,,,TrainingProc,BlockList,29,1,Distractor1.bmp,1,0,,0,1,4282279,501,,0,0,red,500,2,500,1,vertical,red,Distractor2.bmp,lime,Target1.bmp,blue,Distractor1.bmp,yellow,Distractor1.bmp,purple,Distractor1.bmp,cyan,Distractor2.bmp,,,,TrialProc,,TrainingTrialList,0,1,-999999,1,4282780,0,2,600,4283380,Target1.bmp,lime,1,,,,2,2,29
KW_Experiment5A,48,1,"<?xml version=""1.0""?>\n<Clock xmlns:dt=""urn:schemas-microsoft-com:datatypes""><Description dt:dt=""string"">E-Prime Primary Realtime Clock</Description><StartTime><Timestamp dt:dt=""int"">0</Timestamp><DateUtc dt:dt=""string"">2018-10-26T15:06:23Z</DateUtc></StartTime><FrequencyChanges><FrequencyChange><Frequency dt:dt=""r8"">3215273</Frequency><Timestamp dt:dt=""r8"">1831119343536</Timestamp><Current dt:dt=""r8"">0</Current><DateUtc dt:dt=""string"">2018-10-26T15:06:23Z</DateUtc></FrequencyChange></FrequencyChanges></Clock>\n",KW_Experiment5A-48-1,59.944,1.0.0.105,1,1463925673,Professional,2.0.10.353,2.0.10.353,10/26/2018,10/26/2018 15:06,11:06:23,2.0.10.248,2,2,1,2,,,,,,,,TrainingProc,BlockList,30,1,Distractor2.bmp,2,0,,0,1,4284398,600,,0,0,cyan,600,3,600,4,vertical,lime,Target1.bmp,cyan,Distractor2.bmp,purple,Distractor1.bmp,red,Distractor2.bmp,blue,Distractor2.bmp,yellow,Distractor2.bmp,,,,TrialProc,,TrainingTrialList,1,1,-999999,0,4284998,0,1,638,4285636,Target1.bmp,lime,1,,,,1,2,30
KW_Experiment5A,48,1,"<?xml version=""1.0""?>\n<Clock xmlns:dt=""urn:schemas-microsoft-com:datatypes""><Description dt:dt=""string"">E-Prime Primary Realtime Clock</Description><StartTime><Timestamp dt:dt=""int"">0</Timestamp><DateUtc dt:dt=""string"">2018-10-26T15:06:23Z</DateUtc></StartTime><FrequencyChanges><FrequencyChange><Frequency dt:dt=""r8"">3215273</Frequency><Timestamp dt:dt=""r8"">1831119343536</Timestamp><Current dt:dt=""r8"">0</Current><DateUtc dt:dt=""string"">2018-10-26T15:06:23Z</DateUtc></FrequencyChange></FrequencyChanges></Clock>\n",KW_Experiment5A-48-1,59.944,1.0.0.105,1,1463925673,Professional,2.0.10.353,2.0.10.353,10/26/2018,10/26/2018 15:06,11:06:23,2.0.10.248,2,2,1,2,,,,,,,,TrainingProc,BlockList,31,1,Distractor1.bmp,1,0,,0,1,4286650,500,,0,0,cyan,500,2,500,4,vertical,cyan,Distractor1.bmp,blue,Distractor1.bmp,red,Distractor1.bmp,yellow,Distractor1.bmp,purple,Distractor1.bmp,lime,Target1.bmp,,,,TrialProc,,TrainingTrialList,1,1,-999999,0,4287150,0,1,446,4287596,Target1.bmp,lime,1,,,,6,2,31
KW_Experiment5A,48,1,"<?xml version=""1.0""?>\n<Clock xmlns:dt=""urn:schemas-microsoft-com:datatypes""><Description dt:dt=""string"">E-Prime Primary Realtime Clock</Description><StartTime><Timestamp dt:dt=""int"">0</Timestamp><DateUtc dt:dt=""string"">2018-10-26T15:06:23Z</DateUtc></StartTime><FrequencyChanges><FrequencyChange><Frequency dt:dt=""r8"">3215273</Frequency><Timestamp dt:dt=""r8"">1831119343536</Timestamp><Current dt:dt=""r8"">0</Current><DateUtc dt:dt=""string"">2018-10-26T15:06:23Z</DateUtc></FrequencyChange></FrequencyChanges></Clock>\n",KW_Experiment5A-48-1,59.944,1.0.0.105,1,1463925673,Professional,2.0.10.353,2.0.10.353,10/26/2018,10/26/2018 15:06,11:06:23,2.0.10.248,2,2,1,2,,,,,,,,TrainingProc,BlockList,32,2,Distractor1.bmp,1,0,,0,1,4288618,501,,0,0,purple,500,2,500,5,horizontal,purple,Distractor1.bmp,lime,Target2.bmp,yellow,Distractor1.bmp,blue,Distractor1.bmp,red,Distractor2.bmp,cyan,Distractor2.bmp,,,,TrialProc,,TrainingTrialList,1,2,-999999,1,4289119,0,2,597,4289716,Target2.bmp,lime,2,,,,2,2,32
KW_Experiment5A,48,1,"<?xml version=""1.0""?>\n<Clock xmlns:dt=""urn:schemas-microsoft-com:datatypes""><Description dt:dt=""string"">E-Prime Primary Realtime Clock</Description><StartTime><Timestamp dt:dt=""int"">0</Timestamp><DateUtc dt:dt=""string"">2018-10-26T15:06:23Z</DateUtc></StartTime><FrequencyChanges><FrequencyChange><Frequency dt:dt=""r8"">3215273</Frequency><Timestamp dt:dt=""r8"">1831119343536</Timestamp><Current dt:dt=""r8"">0</Current><DateUtc dt:dt=""string"">2018-10-26T15:06:23Z</DateUtc></FrequencyChange></FrequencyChanges></Clock>\n",KW_Experiment5A-48-1,59.944,1.0.0.105,1,1463925673,Professional,2.0.10.353,2.0.10.353,10/26/2018,10/26/2018 15:06,11:06:23,2.0.10.248,2,2,1,2,,,,,,,,TrainingProc,BlockList,33,2,Distractor1.bmp,1,0,,0,1,4290737,600,,0,0,yellow,600,3,600,2,horizontal,yellow,Distractor1.bmp,purple,Distractor1.bmp,cyan,Distractor1.bmp,red,Distractor1.bmp,blue,Distractor2.bmp,lime,Target2.bmp,,,,TrialProc,,TrainingTrialList,1,2,-999999,0,4291337,0,2,651,4291988,Target2.bmp,lime,2,,,,6,2,33
KW_Experiment5A,48,1,"<?xml version=""1.0""?>\n<Clock xmlns:dt=""urn:schemas-microsoft-com:datatypes""><Description dt:dt=""string"">E-Prime Primary Realtime Clock</Description><StartTime><Timestamp dt:dt=""int"">0</Timestamp><DateUtc dt:dt=""string"">2018-10-26T15:06:23Z</DateUtc></StartTime><FrequencyChanges><FrequencyChange><Frequency dt:dt=""r8"">3215273</Frequency><Timestamp dt:dt=""r8"">1831119343536</Timestamp><Current dt:dt=""r8"">0</Current><DateUtc dt:dt=""string"">2018-10-26T15:06:23Z</DateUtc></FrequencyChange></FrequencyChanges></Clock>\n",KW_Experiment5A-48-1,59.944,1.0.0.105,1,1463925673,Professional,2.0.10.353,2.0.10.353,10/26/2018,10/26/2018 15:06,11:06:23,2.0.10.248,2,2,1,2,,,,,,,,TrainingProc,BlockList,34,1,Distractor2.bmp,2,0,,0,1,4293006,400,,0,0,blue,400,1,400,3,vertical,blue,Distractor2.bmp,yellow,Distractor2.bmp,lime,Target1.bmp,cyan,Distractor2.bmp,red,Distractor1.bmp,purple,Distractor2.bmp,,,,TrialProc,,TrainingTrialList,1,1,-999999,0,4293406,0,1,566,4293972,Target1.bmp,lime,1,,,,3,2,34
KW_Experiment5A,48,1,"<?xml version=""1.0""?>\n<Clock xmlns:dt=""urn:schemas-microsoft-com:datatypes""><Description dt:dt=""string"">E-Prime Primary Realtime Clock</Description><StartTime><Timestamp dt:dt=""int"">0</Timestamp><DateUtc dt:dt=""string"">2018-10-26T15:06:23Z</DateUtc></StartTime><FrequencyChanges><FrequencyChange><Frequency dt:dt=""r8"">3215273</Frequency><Timestamp dt:dt=""r8"">1831119343536</Timestamp><Current dt:dt=""r8"">0</Current><DateUtc dt:dt=""string"">2018-10-26T15:06:23Z</DateUtc></FrequencyChange></FrequencyChanges></Clock>\n",KW_Experiment5A-48-1,59.944,1.0.0.105,1,1463925673,Professional,2.0.10.353,2.0.10.353,10/26/2018,10/26/2018 15:06,11:06:23,2.0.10.248,2,2,1,2,,,,,,,,TrainingProc,BlockList,35,1,Distractor1.bmp,1,0,,0,1,4294991,400,,0,0,red,400,1,400,1,vertical,red,Distractor1.bmp,blue,Distractor2.bmp,purple,Distractor1.bmp,cyan,Distractor1.bmp,lime,Target1.bmp,yellow,Distractor1.bmp,,,,TrialProc,,TrainingTrialList,1,1,-999999,0,4295391,0,1,493,4295884,Target1.bmp,lime,1,,,,5,2,35
KW_Experiment5A,48,1,"<?xml version=""1.0""?>\n<Clock xmlns:dt=""urn:schemas-microsoft-com:datatypes""><Description dt:dt=""string"">E-Prime Primary Realtime Clock</Description><StartTime><Timestamp dt:dt=""int"">0</Timestamp><DateUtc dt:dt=""string"">2018-10-26T15:06:23Z</DateUtc></StartTime><FrequencyChanges><FrequencyChange><Frequency dt:dt=""r8"">3215273</Frequency><Timestamp dt:dt=""r8"">1831119343536</Timestamp><Current dt:dt=""r8"">0</Current><DateUtc dt:dt=""string"">2018-10-26T15:06:23Z</DateUtc></FrequencyChange></FrequencyChanges></Clock>\n",KW_Experiment5A-48-1,59.944,1.0.0.105,1,1463925673,Professional,2.0.10.353,2.0.10.353,10/26/2018,10/26/2018 15:06,11:06:23,2.0.10.248,2,2,1,2,,,,,,,,TrainingProc,BlockList,36,2,Distractor2.bmp,2,0,,0,1,4296909,601,,0,0,yellow,600,3,600,2,horizontal,yellow,Distractor2.bmp,purple,Distractor2.bmp,cyan,Distractor2.bmp,lime,Target2.bmp,blue,Distractor2.bmp,red,Distractor1.bmp,,,,TrialProc,,TrainingTrialList,1,2,-999999,1,4297510,0,2,566,4298076,Target2.bmp,lime,2,,,,4,2,36
KW_Experiment5A,48,1,"<?xml version=""1.0""?>\n<Clock xmlns:dt=""urn:schemas-microsoft-com:datatypes""><Description dt:dt=""string"">E-Prime Primary Realtime Clock</Description><StartTime><Timestamp dt:dt=""int"">0</Timestamp><DateUtc dt:dt=""string"">2018-10-26T15:06:23Z</DateUtc></StartTime><FrequencyChanges><FrequencyChange><Frequency dt:dt=""r8"">3215273</Frequency><Timestamp dt:dt=""r8"">1831119343536</Timestamp><Current dt:dt=""r8"">0</Current><DateUtc dt:dt=""string"">2018-10-26T15:06:23Z</DateUtc></FrequencyChange></FrequencyChanges></Clock>\n",KW_Experiment5A-48-1,59.944,1.0.0.105,1,1463925673,Professional,2.0.10.353,2.0.10.353,10/26/2018,10/26/2018 15:06,11:06:23,2.0.10.248,2,2,1,2,,,,,,,,TrainingProc,BlockList,37,2,Distractor1.bmp,1,0,,1,0,4299094,401,,0,0,cyan,400,1,400,4,horizontal,cyan,Distractor2.bmp,purple,Distractor2.bmp,lime,Target2.bmp,blue,Distractor1.bmp,red,Distractor1.bmp,yellow,Distractor1.bmp,,,,TrialProc,,TrainingTrialList,1,2,-999999,1,4299495,0,2,509,4300004,Target2.bmp,lime,2,,,,3,2,37
KW_Experiment5A,48,1,"<?xml version=""1.0""?>\n<Clock xmlns:dt=""urn:schemas-microsoft-com:datatypes""><Description dt:dt=""string"">E-Prime Primary Realtime Clock</Description><StartTime><Timestamp dt:dt=""int"">0</Timestamp><DateUtc dt:dt=""string"">2018-10-26T15:06:23Z</DateUtc></StartTime><FrequencyChanges><FrequencyChange><Frequency dt:dt=""r8"">3215273</Frequency><Timestamp dt:dt=""r8"">1831119343536</Timestamp><Current dt:dt=""r8"">0</Current><DateUtc dt:dt=""string"">2018-10-26T15:06:23Z</DateUtc></FrequencyChange></FrequencyChanges></Clock>\n",KW_Experiment5A-48-1,59.944,1.0.0.105,1,1463925673,Professional,2.0.10.353,2.0.10.353,10/26/2018,10/26/2018 15:06,11:06:23,2.0.10.248,2,2,1,2,,,,,,,,TrainingProc,BlockList,38,2,Distractor1.bmp,1,0,,0,1,4301030,600,,0,0,yellow,600,3,600,2,horizontal,yellow,Distractor2.bmp,blue,Distractor1.bmp,red,Distractor1.bmp,purple,Distractor1.bmp,lime,Target2.bmp,cyan,Distractor1.bmp,,,,TrialProc,,TrainingTrialList,1,2,-999999,0,4301630,0,2,622,4302252,Target2.bmp,lime,2,,,,5,2,38
KW_Experiment5A,48,1,"<?xml version=""1.0""?>\n<Clock xmlns:dt=""urn:schemas-microsoft-com:datatypes""><Description dt:dt=""string"">E-Prime Primary Realtime Clock</Description><StartTime><Timestamp dt:dt=""int"">0</Timestamp><DateUtc dt:dt=""string"">2018-10-26T15:06:23Z</DateUtc></StartTime><FrequencyChanges><FrequencyChange><Frequency dt:dt=""r8"">3215273</Frequency><Timestamp dt:dt=""r8"">1831119343536</Timestamp><Current dt:dt=""r8"">0</Current><DateUtc dt:dt=""string"">2018-10-26T15:06:23Z</DateUtc></FrequencyChange></FrequencyChanges></Clock>\n",KW_Experiment5A-48-1,59.944,1.0.0.105,1,1463925673,Professional,2.0.10.353,2.0.10.353,10/26/2018,10/26/2018 15:06,11:06:23,2.0.10.248,2,2,1,2,,,,,,,,TrainingProc,BlockList,39,1,Distractor2.bmp,2,0,,0,1,4303265,400,,0,0,blue,400,1,400,,vertical,red,Target1.bmp,lime,Distractor2.bmp,yellow,Distractor2.bmp,purple,Distractor1.bmp,cyan,Distractor1.bmp,blue,Distractor1.bmp,,,,TrialProc,3,TrainingTrialList,1,1,-999999,0,4303665,0,1,667,4304332,Target1.bmp,red,1,,,,7,2,39
KW_Experiment5A,48,1,"<?xml version=""1.0""?>\n<Clock xmlns:dt=""urn:schemas-microsoft-com:datatypes""><Description dt:dt=""string"">E-Prime Primary Realtime Clock</Description><StartTime><Timestamp dt:dt=""int"">0</Timestamp><DateUtc dt:dt=""string"">2018-10-26T15:06:23Z</DateUtc></StartTime><FrequencyChanges><FrequencyChange><Frequency dt:dt=""r8"">3215273</Frequency><Timestamp dt:dt=""r8"">1831119343536</Timestamp><Current dt:dt=""r8"">0</Current><DateUtc dt:dt=""string"">2018-10-26T15:06:23Z</DateUtc></FrequencyChange></FrequencyChanges></Clock>\n",KW_Experiment5A-48-1,59.944,1.0.0.105,1,1463925673,Professional,2.0.10.353,2.0.10.353,10/26/2018,10/26/2018 15:06,11:06:23,2.0.10.248,2,2,1,2,,,,,,,,TrainingProc,BlockList,40,1,Distractor2.bmp,2,0,,0,1,4305350,501,,0,0,cyan,500,2,500,,vertical,cyan,Distractor2.bmp,yellow,Distractor1.bmp,red,Target1.bmp,lime,Distractor2.bmp,blue,Distractor2.bmp,purple,Distractor2.bmp,,,,TrialProc,4,TrainingTrialList,0,1,-999999,1,4305851,0,2,617,4306468,Target1.bmp,red,1,,,,9,2,40
KW_Experiment5A,48,1,"<?xml version=""1.0""?>\n<Clock xmlns:dt=""urn:schemas-microsoft-com:datatypes""><Description dt:dt=""string"">E-Prime Primary Realtime Clock</Description><StartTime><Timestamp dt:dt=""int"">0</Timestamp><DateUtc dt:dt=""string"">2018-10-26T15:06:23Z</DateUtc></StartTime><FrequencyChanges><FrequencyChange><Frequency dt:dt=""r8"">3215273</Frequency><Timestamp dt:dt=""r8"">1831119343536</Timestamp><Current dt:dt=""r8"">0</Current><DateUtc dt:dt=""string"">2018-10-26T15:06:23Z</DateUtc></FrequencyChange></FrequencyChanges></Clock>\n",KW_Experiment5A-48-1,59.944,1.0.0.105,1,1463925673,Professional,2.0.10.353,2.0.10.353,10/26/2018,10/26/2018 15:06,11:06:23,2.0.10.248,2,2,1,2,,,,,,,,TrainingProc,BlockList,41,1,Distractor2.bmp,2,0,,0,1,4307486,500,,0,0,blue,500,2,500,,vertical,blue,Distractor2.bmp,lime,Distractor1.bmp,purple,Distractor1.bmp,yellow,Distractor1.bmp,cyan,Distractor2.bmp,red,Target1.bmp,,,,TrialProc,3,TrainingTrialList,1,1,-999999,0,4307986,0,1,690,4308676,Target1.bmp,red,1,,,,12,2,41
KW_Experiment5A,48,1,"<?xml version=""1.0""?>\n<Clock xmlns:dt=""urn:schemas-microsoft-com:datatypes""><Description dt:dt=""string"">E-Prime Primary Realtime Clock</Description><StartTime><Timestamp dt:dt=""int"">0</Timestamp><DateUtc dt:dt=""string"">2018-10-26T15:06:23Z</DateUtc></StartTime><FrequencyChanges><FrequencyChange><Frequency dt:dt=""r8"">3215273</Frequency><Timestamp dt:dt=""r8"">1831119343536</Timestamp><Current dt:dt=""r8"">0</Current><DateUtc dt:dt=""string"">2018-10-26T15:06:23Z</DateUtc></FrequencyChange></FrequencyChanges></Clock>\n",KW_Experiment5A-48-1,59.944,1.0.0.105,1,1463925673,Professional,2.0.10.353,2.0.10.353,10/26/2018,10/26/2018 15:06,11:06:23,2.0.10.248,2,2,1,2,,,,,,,,TrainingProc,BlockList,42,2,Distractor2.bmp,2,0,,0,1,4309688,400,,0,0,blue,400,1,400,3,horizontal,blue,Distractor2.bmp,cyan,Distractor1.bmp,yellow,Distractor2.bmp,lime,Target2.bmp,red,Distractor2.bmp,purple,Distractor2.bmp,,,,TrialProc,,TrainingTrialList,1,2,-999999,0,4310088,0,2,628,4310716,Target2.bmp,lime,2,,,,4,2,42
KW_Experiment5A,48,1,"<?xml version=""1.0""?>\n<Clock xmlns:dt=""urn:schemas-microsoft-com:datatypes""><Description dt:dt=""string"">E-Prime Primary Realtime Clock</Description><StartTime><Timestamp dt:dt=""int"">0</Timestamp><DateUtc dt:dt=""string"">2018-10-26T15:06:23Z</DateUtc></StartTime><FrequencyChanges><FrequencyChange><Frequency dt:dt=""r8"">3215273</Frequency><Timestamp dt:dt=""r8"">1831119343536</Timestamp><Current dt:dt=""r8"">0</Current><DateUtc dt:dt=""string"">2018-10-26T15:06:23Z</DateUtc></FrequencyChange></FrequencyChanges></Clock>\n",KW_Experiment5A-48-1,59.944,1.0.0.105,1,1463925673,Professional,2.0.10.353,2.0.10.353,10/26/2018,10/26/2018 15:06,11:06:23,2.0.10.248,2,2,1,2,,,,,,,,TrainingProc,BlockList,43,2,Distractor1.bmp,1,0,,0,0,4311739,401,,0,0,purple,400,1,400,5,horizontal,purple,Distractor1.bmp,yellow,Distractor1.bmp,blue,Distractor1.bmp,cyan,Distractor2.bmp,red,Distractor1.bmp,lime,Target2.bmp,,,,TrialProc,,TrainingTrialList,1,2,-999999,1,4312140,0,2,616,4312756,Target2.bmp,lime,2,,,,6,2,43
KW_Experiment5A,48,1,"<?xml version=""1.0""?>\n<Clock xmlns:dt=""urn:schemas-microsoft-com:datatypes""><Description dt:dt=""string"">E-Prime Primary Realtime Clock</Description><StartTime><Timestamp dt:dt=""int"">0</Timestamp><DateUtc dt:dt=""string"">2018-10-26T15:06:23Z</DateUtc></StartTime><FrequencyChanges><FrequencyChange><Frequency dt:dt=""r8"">3215273</Frequency><Timestamp dt:dt=""r8"">1831119343536</Timestamp><Current dt:dt=""r8"">0</Current><DateUtc dt:dt=""string"">2018-10-26T15:06:23Z</DateUtc></FrequencyChange></FrequencyChanges></Clock>\n",KW_Experiment5A-48-1,59.944,1.0.0.105,1,1463925673,Professional,2.0.10.353,2.0.10.353,10/26/2018,10/26/2018 15:06,11:06:23,2.0.10.248,2,2,1,2,,,,,,,,TrainingProc,BlockList,44,1,Distractor1.bmp,1,0,,0,1,4313775,500,,0,0,blue,500,2,500,,vertical,blue,Distractor2.bmp,red,Target1.bmp,yellow,Distractor1.bmp,cyan,Distractor2.bmp,lime,Distractor1.bmp,purple,Distractor1.bmp,,,,TrialProc,3,TrainingTrialList,0,1,-999999,0,4314275,0,2,809,4315084,Target1.bmp,red,1,,,,8,2,44
KW_Experiment5A,48,1,"<?xml version=""1.0""?>\n<Clock xmlns:dt=""urn:schemas-microsoft-com:datatypes""><Description dt:dt=""string"">E-Prime Primary Realtime Clock</Description><StartTime><Timestamp dt:dt=""int"">0</Timestamp><DateUtc dt:dt=""string"">2018-10-26T15:06:23Z</DateUtc></StartTime><FrequencyChanges><FrequencyChange><Frequency dt:dt=""r8"">3215273</Frequency><Timestamp dt:dt=""r8"">1831119343536</Timestamp><Current dt:dt=""r8"">0</Current><DateUtc dt:dt=""string"">2018-10-26T15:06:23Z</DateUtc></FrequencyChange></FrequencyChanges></Clock>\n",KW_Experiment5A-48-1,59.944,1.0.0.105,1,1463925673,Professional,2.0.10.353,2.0.10.353,10/26/2018,10/26/2018 15:06,11:06:23,2.0.10.248,2,2,1,2,,,,,,,,TrainingProc,BlockList,45,1,Distractor2.bmp,2,0,,0,1,4316110,601,,0,0,red,600,3,600,1,vertical,lime,Target1.bmp,red,Distractor2.bmp,purple,Distractor1.bmp,blue,Distractor2.bmp,cyan,Distractor2.bmp,yellow,Distractor1.bmp,,,,TrialProc,,TrainingTrialList,1,1,-999999,1,4316711,0,1,517,4317228,Target1.bmp,lime,1,,,,1,2,45
KW_Experiment5A,48,1,"<?xml version=""1.0""?>\n<Clock xmlns:dt=""urn:schemas-microsoft-com:datatypes""><Description dt:dt=""string"">E-Prime Primary Realtime Clock</Description><StartTime><Timestamp dt:dt=""int"">0</Timestamp><DateUtc dt:dt=""string"">2018-10-26T15:06:23Z</DateUtc></StartTime><FrequencyChanges><FrequencyChange><Frequency dt:dt=""r8"">3215273</Frequency><Timestamp dt:dt=""r8"">1831119343536</Timestamp><Current dt:dt=""r8"">0</Current><DateUtc dt:dt=""string"">2018-10-26T15:06:23Z</DateUtc></FrequencyChange></FrequencyChanges></Clock>\n",KW_Experiment5A-48-1,59.944,1.0.0.105,1,1463925673,Professional,2.0.10.353,2.0.10.353,10/26/2018,10/26/2018 15:06,11:06:23,2.0.10.248,2,2,1,2,,,,,,,,TrainingProc,BlockList,46,1,Distractor2.bmp,2,0,,0,1,4318245,501,,0,0,blue,500,2,500,3,vertical,blue,Distractor1.bmp,red,Distractor2.bmp,purple,Distractor1.bmp,yellow,Distractor2.bmp,lime,Target1.bmp,cyan,Distractor2.bmp,,,,TrialProc,,TrainingTrialList,1,1,-999999,1,4318746,0,1,506,4319252,Target1.bmp,lime,1,,,,5,2,46
KW_Experiment5A,48,1,"<?xml version=""1.0""?>\n<Clock xmlns:dt=""urn:schemas-microsoft-com:datatypes""><Description dt:dt=""string"">E-Prime Primary Realtime Clock</Description><StartTime><Timestamp dt:dt=""int"">0</Timestamp><DateUtc dt:dt=""string"">2018-10-26T15:06:23Z</DateUtc></StartTime><FrequencyChanges><FrequencyChange><Frequency dt:dt=""r8"">3215273</Frequency><Timestamp dt:dt=""r8"">1831119343536</Timestamp><Current dt:dt=""r8"">0</Current><DateUtc dt:dt=""string"">2018-10-26T15:06:23Z</DateUtc></FrequencyChange></FrequencyChanges></Clock>\n",KW_Experiment5A-48-1,59.944,1.0.0.105,1,1463925673,Professional,2.0.10.353,2.0.10.353,10/26/2018,10/26/2018 15:06,11:06:23,2.0.10.248,2,2,1,2,,,,,,,,TrainingProc,BlockList,47,2,Distractor1.bmp,1,0,,0,1,4320264,500,,0,0,blue,500,2,500,,horizontal,blue,Distractor1.bmp,lime,Distractor2.bmp,purple,Distractor1.bmp,red,Target2.bmp,cyan,Distractor1.bmp,yellow,Distractor2.bmp,,,,TrialProc,3,TrainingTrialList,0,2,-999999,0,4320764,0,1,752,4321516,Target2.bmp,red,2,,,,10,2,47
KW_Experiment5A,48,1,"<?xml version=""1.0""?>\n<Clock xmlns:dt=""urn:schemas-microsoft-com:datatypes""><Description dt:dt=""string"">E-Prime Primary Realtime Clock</Description><StartTime><Timestamp dt:dt=""int"">0</Timestamp><DateUtc dt:dt=""string"">2018-10-26T15:06:23Z</DateUtc></StartTime><FrequencyChanges><FrequencyChange><Frequency dt:dt=""r8"">3215273</Frequency><Timestamp dt:dt=""r8"">1831119343536</Timestamp><Current dt:dt=""r8"">0</Current><DateUtc dt:dt=""string"">2018-10-26T15:06:23Z</DateUtc></FrequencyChange></FrequencyChanges></Clock>\n",KW_Experiment5A-48-1,59.944,1.0.0.105,1,1463925673,Professional,2.0.10.353,2.0.10.353,10/26/2018,10/26/2018 15:06,11:06:23,2.0.10.248,2,2,1,2,,,,,,,,TrainingProc,BlockList,48,1,Distractor1.bmp,1,0,,0,1,4322533,500,,0,0,red,500,2,500,1,vertical,red,Distractor2.bmp,lime,Target1.bmp,blue,Distractor1.bmp,purple,Distractor2.bmp,cyan,Distractor2.bmp,yellow,Distractor2.bmp,,,,TrialProc,,TrainingTrialList,1,1,-999999,0,4323033,0,1,618,4323651,Target1.bmp,lime,1,,,,2,2,48
KW_Experiment5A,48,1,"<?xml version=""1.0""?>\n<Clock xmlns:dt=""urn:schemas-microsoft-com:datatypes""><Description dt:dt=""string"">E-Prime Primary Realtime Clock</Description><StartTime><Timestamp dt:dt=""int"">0</Timestamp><DateUtc dt:dt=""string"">2018-10-26T15:06:23Z</DateUtc></StartTime><FrequencyChanges><FrequencyChange><Frequency dt:dt=""r8"">3215273</Frequency><Timestamp dt:dt=""r8"">1831119343536</Timestamp><Current dt:dt=""r8"">0</Current><DateUtc dt:dt=""string"">2018-10-26T15:06:23Z</DateUtc></FrequencyChange></FrequencyChanges></Clock>\n",KW_Experiment5A-48-1,59.944,1.0.0.105,1,1463925673,Professional,2.0.10.353,2.0.10.353,10/26/2018,10/26/2018 15:06,11:06:23,2.0.10.248,3,2,1,3,,,,,,,,TrainingProc,BlockList,1,2,Distractor1.bmp,1,0,,0,19,4325686,400,,0,0,yellow,400,1,400,2,horizontal,yellow,Distractor2.bmp,lime,Target2.bmp,cyan,Distractor1.bmp,red,Distractor1.bmp,purple,Distractor1.bmp,blue,Distractor1.bmp,,,,TrialProc,,TrainingTrialList,1,2,-999999,0,4326086,0,2,765,4326851,Target2.bmp,lime,2,,,,2,3,49
KW_Experiment5A,48,1,"<?xml version=""1.0""?>\n<Clock xmlns:dt=""urn:schemas-microsoft-com:datatypes""><Description dt:dt=""string"">E-Prime Primary Realtime Clock</Description><StartTime><Timestamp dt:dt=""int"">0</Timestamp><DateUtc dt:dt=""string"">2018-10-26T15:06:23Z</DateUtc></StartTime><FrequencyChanges><FrequencyChange><Frequency dt:dt=""r8"">3215273</Frequency><Timestamp dt:dt=""r8"">1831119343536</Timestamp><Current dt:dt=""r8"">0</Current><DateUtc dt:dt=""string"">2018-10-26T15:06:23Z</DateUtc></FrequencyChange></FrequencyChanges></Clock>\n",KW_Experiment5A-48-1,59.944,1.0.0.105,1,1463925673,Professional,2.0.10.353,2.0.10.353,10/26/2018,10/26/2018 15:06,11:06:23,2.0.10.248,3,2,1,3,,,,,,,,TrainingProc,BlockList,2,1,Distractor2.bmp,2,0,,0,1,4327871,600,,0,0,yellow,600,3,600,,vertical,yellow,Distractor2.bmp,lime,Distractor1.bmp,purple,Distractor1.bmp,blue,Distractor2.bmp,cyan,Distractor2.bmp,red,Target1.bmp,,,,TrialProc,2,TrainingTrialList,1,1,-999999,0,4328471,0,1,484,4328955,Target1.bmp,red,1,,,,12,3,50
KW_Experiment5A,48,1,"<?xml version=""1.0""?>\n<Clock xmlns:dt=""urn:schemas-microsoft-com:datatypes""><Description dt:dt=""string"">E-Prime Primary Realtime Clock</Description><StartTime><Timestamp dt:dt=""int"">0</Timestamp><DateUtc dt:dt=""string"">2018-10-26T15:06:23Z</DateUtc></StartTime><FrequencyChanges><FrequencyChange><Frequency dt:dt=""r8"">3215273</Frequency><Timestamp dt:dt=""r8"">1831119343536</Timestamp><Current dt:dt=""r8"">0</Current><DateUtc dt:dt=""string"">2018-10-26T15:06:23Z</DateUtc></FrequencyChange></FrequencyChanges></Clock>\n",KW_Experiment5A-48-1,59.944,1.0.0.105,1,1463925673,Professional,2.0.10.353,2.0.10.353,10/26/2018,10/26/2018 15:06,11:06:23,2.0.10.248,3,2,1,3,,,,,,,,TrainingProc,BlockList,3,1,Distractor1.bmp,1,0,,0,1,4329973,400,,0,0,cyan,400,1,400,4,vertical,cyan,Distractor1.bmp,yellow,Distractor1.bmp,red,Distractor1.bmp,blue,Distractor1.bmp,purple,Distractor1.bmp,lime,Target1.bmp,,,,TrialProc,,TrainingTrialList,1,1,-999999,0,4330373,0,1,422,4330795,Target1.bmp,lime,1,,,,6,3,51
KW_Experiment5A,48,1,"<?xml version=""1.0""?>\n<Clock xmlns:dt=""urn:schemas-microsoft-com:datatypes""><Description dt:dt=""string"">E-Prime Primary Realtime Clock</Description><StartTime><Timestamp dt:dt=""int"">0</Timestamp><DateUtc dt:dt=""string"">2018-10-26T15:06:23Z</DateUtc></StartTime><FrequencyChanges><FrequencyChange><Frequency dt:dt=""r8"">3215273</Frequency><Timestamp dt:dt=""r8"">1831119343536</Timestamp><Current dt:dt=""r8"">0</Current><DateUtc dt:dt=""string"">2018-10-26T15:06:23Z</DateUtc></FrequencyChange></FrequencyChanges></Clock>\n",KW_Experiment5A-48-1,59.944,1.0.0.105,1,1463925673,Professional,2.0.10.353,2.0.10.353,10/26/2018,10/26/2018 15:06,11:06:23,2.0.10.248,3,2,1,3,,,,,,,,TrainingProc,BlockList,4,2,Distractor1.bmp,1,0,,0,1,4331808,500,,0,0,blue,500,2,500,3,horizontal,blue,Distractor1.bmp,purple,Distractor1.bmp,lime,Target2.bmp,red,Distractor1.bmp,cyan,Distractor1.bmp,yellow,Distractor2.bmp,,,,TrialProc,,TrainingTrialList,1,2,-999999,0,4332308,0,2,567,4332875,Target2.bmp,lime,2,,,,3,3,52
KW_Experiment5A,48,1,"<?xml version=""1.0""?>\n<Clock xmlns:dt=""urn:schemas-microsoft-com:datatypes""><Description dt:dt=""string"">E-Prime Primary Realtime Clock</Description><StartTime><Timestamp dt:dt=""int"">0</Timestamp><DateUtc dt:dt=""string"">2018-10-26T15:06:23Z</DateUtc></StartTime><FrequencyChanges><FrequencyChange><Frequency dt:dt=""r8"">3215273</Frequency><Timestamp dt:dt=""r8"">1831119343536</Timestamp><Current dt:dt=""r8"">0</Current><DateUtc dt:dt=""string"">2018-10-26T15:06:23Z</DateUtc></FrequencyChange></FrequencyChanges></Clock>\n",KW_Experiment5A-48-1,59.944,1.0.0.105,1,1463925673,Professional,2.0.10.353,2.0.10.353,10/26/2018,10/26/2018 15:06,11:06:23,2.0.10.248,3,2,1,3,,,,,,,,TrainingProc,BlockList,5,1,Distractor1.bmp,1,0,,0,1,4333893,500,,0,0,yellow,500,2,500,,vertical,yellow,Distractor1.bmp,red,Target1.bmp,blue,Distractor1.bmp,lime,Distractor1.bmp,purple,Distractor2.bmp,cyan,Distractor1.bmp,,,,TrialProc,2,TrainingTrialList,0,1,-999999,0,4334393,0,2,586,4334979,Target1.bmp,red,1,,,,8,3,53
KW_Experiment5A,48,1,"<?xml version=""1.0""?>\n<Clock xmlns:dt=""urn:schemas-microsoft-com:datatypes""><Description dt:dt=""string"">E-Prime Primary Realtime Clock</Description><StartTime><Timestamp dt:dt=""int"">0</Timestamp><DateUtc dt:dt=""string"">2018-10-26T15:06:23Z</DateUtc></StartTime><FrequencyChanges><FrequencyChange><Frequency dt:dt=""r8"">3215273</Frequency><Timestamp dt:dt=""r8"">1831119343536</Timestamp><Current dt:dt=""r8"">0</Current><DateUtc dt:dt=""string"">2018-10-26T15:06:23Z</DateUtc></FrequencyChange></FrequencyChanges></Clock>\n",KW_Experiment5A-48-1,59.944,1.0.0.105,1,1463925673,Professional,2.0.10.353,2.0.10.353,10/26/2018,10/26/2018 15:06,11:06:23,2.0.10.248,3,2,1,3,,,,,,,,TrainingProc,BlockList,6,1,Distractor1.bmp,1,0,,0,1,4335995,600,,0,0,blue,600,3,600,3,vertical,blue,Distractor1.bmp,lime,Target1.bmp,red,Distractor1.bmp,yellow,Distractor2.bmp,purple,Distractor1.bmp,cyan,Distractor2.bmp,,,,TrialProc,,TrainingTrialList,1,1,-999999,0,4336595,0,1,416,4337011,Target1.bmp,lime,1,,,,2,3,54
KW_Experiment5A,48,1,"<?xml version=""1.0""?>\n<Clock xmlns:dt=""urn:schemas-microsoft-com:datatypes""><Description dt:dt=""string"">E-Prime Primary Realtime Clock</Description><StartTime><Timestamp dt:dt=""int"">0</Timestamp><DateUtc dt:dt=""string"">2018-10-26T15:06:23Z</DateUtc></StartTime><FrequencyChanges><FrequencyChange><Frequency dt:dt=""r8"">3215273</Frequency><Timestamp dt:dt=""r8"">1831119343536</Timestamp><Current dt:dt=""r8"">0</Current><DateUtc dt:dt=""string"">2018-10-26T15:06:23Z</DateUtc></FrequencyChange></FrequencyChanges></Clock>\n",KW_Experiment5A-48-1,59.944,1.0.0.105,1,1463925673,Professional,2.0.10.353,2.0.10.353,10/26/2018,10/26/2018 15:06,11:06:23,2.0.10.248,3,2,1,3,,,,,,,,TrainingProc,BlockList,7,1,Distractor1.bmp,1,0,,0,1,4338030,401,,0,0,blue,400,1,400,3,vertical,blue,Distractor2.bmp,purple,Distractor2.bmp,cyan,Distractor2.bmp,red,Distractor1.bmp,lime,Target1.bmp,yellow,Distractor1.bmp,,,,TrialProc,,TrainingTrialList,1,1,-999999,1,4338431,0,1,356,4338787,Target1.bmp,lime,1,,,,5,3,55
KW_Experiment5A,48,1,"<?xml version=""1.0""?>\n<Clock xmlns:dt=""urn:schemas-microsoft-com:datatypes""><Description dt:dt=""string"">E-Prime Primary Realtime Clock</Description><StartTime><Timestamp dt:dt=""int"">0</Timestamp><DateUtc dt:dt=""string"">2018-10-26T15:06:23Z</DateUtc></StartTime><FrequencyChanges><FrequencyChange><Frequency dt:dt=""r8"">3215273</Frequency><Timestamp dt:dt=""r8"">1831119343536</Timestamp><Current dt:dt=""r8"">0</Current><DateUtc dt:dt=""string"">2018-10-26T15:06:23Z</DateUtc></FrequencyChange></FrequencyChanges></Clock>\n",KW_Experiment5A-48-1,59.944,1.0.0.105,1,1463925673,Professional,2.0.10.353,2.0.10.353,10/26/2018,10/26/2018 15:06,11:06:23,2.0.10.248,3,2,1,3,,,,,,,,TrainingProc,BlockList,8,2,Distractor2.bmp,2,0,,0,1,4339798,601,,0,0,cyan,600,3,600,4,horizontal,cyan,Distractor1.bmp,red,Distractor1.bmp,purple,Distractor1.bmp,lime,Target2.bmp,yellow,Distractor2.bmp,blue,Distractor2.bmp,,,,TrialProc,,TrainingTrialList,1,2,-999999,1,4340399,0,2,524,4340923,Target2.bmp,lime,2,,,,4,3,56
KW_Experiment5A,48,1,"<?xml version=""1.0""?>\n<Clock xmlns:dt=""urn:schemas-microsoft-com:datatypes""><Description dt:dt=""string"">E-Prime Primary Realtime Clock</Description><StartTime><Timestamp dt:dt=""int"">0</Timestamp><DateUtc dt:dt=""string"">2018-10-26T15:06:23Z</DateUtc></StartTime><FrequencyChanges><FrequencyChange><Frequency dt:dt=""r8"">3215273</Frequency><Timestamp dt:dt=""r8"">1831119343536</Timestamp><Current dt:dt=""r8"">0</Current><DateUtc dt:dt=""string"">2018-10-26T15:06:23Z</DateUtc></FrequencyChange></FrequencyChanges></Clock>\n",KW_Experiment5A-48-1,59.944,1.0.0.105,1,1463925673,Professional,2.0.10.353,2.0.10.353,10/26/2018,10/26/2018 15:06,11:06:23,2.0.10.248,3,2,1,3,,,,,,,,TrainingProc,BlockList,9,2,Distractor2.bmp,2,0,,0,1,4341934,600,,0,0,blue,600,3,600,3,horizontal,blue,Distractor1.bmp,yellow,Distractor1.bmp,lime,Target2.bmp,cyan,Distractor2.bmp,red,Distractor1.bmp,purple,Distractor1.bmp,,,,TrialProc,,TrainingTrialList,1,2,-999999,0,4342534,0,2,533,4343067,Target2.bmp,lime,2,,,,3,3,57
KW_Experiment5A,48,1,"<?xml version=""1.0""?>\n<Clock xmlns:dt=""urn:schemas-microsoft-com:datatypes""><Description dt:dt=""string"">E-Prime Primary Realtime Clock</Description><StartTime><Timestamp dt:dt=""int"">0</Timestamp><DateUtc dt:dt=""string"">2018-10-26T15:06:23Z</DateUtc></StartTime><FrequencyChanges><FrequencyChange><Frequency dt:dt=""r8"">3215273</Frequency><Timestamp dt:dt=""r8"">1831119343536</Timestamp><Current dt:dt=""r8"">0</Current><DateUtc dt:dt=""string"">2018-10-26T15:06:23Z</DateUtc></FrequencyChange></FrequencyChanges></Clock>\n",KW_Experiment5A-48-1,59.944,1.0.0.105,1,1463925673,Professional,2.0.10.353,2.0.10.353,10/26/2018,10/26/2018 15:06,11:06:23,2.0.10.248,3,2,1,3,,,,,,,,TrainingProc,BlockList,10,2,Distractor1.bmp,1,0,,0,1,4344086,600,,0,0,yellow,600,3,600,,horizontal,yellow,Distractor2.bmp,purple,Distractor2.bmp,cyan,Distractor1.bmp,red,Target2.bmp,blue,Distractor1.bmp,lime,Distractor1.bmp,,,,TrialProc,2,TrainingTrialList,0,2,-999999,0,4344686,0,1,557,4345243,Target2.bmp,red,2,,,,10,3,58
KW_Experiment5A,48,1,"<?xml version=""1.0""?>\n<Clock xmlns:dt=""urn:schemas-microsoft-com:datatypes""><Description dt:dt=""string"">E-Prime Primary Realtime Clock</Description><StartTime><Timestamp dt:dt=""int"">0</Timestamp><DateUtc dt:dt=""string"">2018-10-26T15:06:23Z</DateUtc></StartTime><FrequencyChanges><FrequencyChange><Frequency dt:dt=""r8"">3215273</Frequency><Timestamp dt:dt=""r8"">1831119343536</Timestamp><Current dt:dt=""r8"">0</Current><DateUtc dt:dt=""string"">2018-10-26T15:06:23Z</DateUtc></FrequencyChange></FrequencyChanges></Clock>\n",KW_Experiment5A-48-1,59.944,1.0.0.105,1,1463925673,Professional,2.0.10.353,2.0.10.353,10/26/2018,10/26/2018 15:06,11:06:23,2.0.10.248,3,2,1,3,,,,,,,,TrainingProc,BlockList,11,1,Distractor2.bmp,2,0,,0,1,4346254,501,,0,0,cyan,500,2,500,4,vertical,cyan,Distractor2.bmp,purple,Distractor1.bmp,red,Distractor2.bmp,lime,Target1.bmp,blue,Distractor2.bmp,yellow,Distractor1.bmp,,,,TrialProc,,TrainingTrialList,1,1,-999999,1,4346755,0,1,872,4347627,Target1.bmp,lime,1,,,,4,3,59
KW_Experiment5A,48,1,"<?xml version=""1.0""?>\n<Clock xmlns:dt=""urn:schemas-microsoft-com:datatypes""><Description dt:dt=""string"">E-Prime Primary Realtime Clock</Description><StartTime><Timestamp dt:dt=""int"">0</Timestamp><DateUtc dt:dt=""string"">2018-10-26T15:06:23Z</DateUtc></StartTime><FrequencyChanges><FrequencyChange><Frequency dt:dt=""r8"">3215273</Frequency><Timestamp dt:dt=""r8"">1831119343536</Timestamp><Current dt:dt=""r8"">0</Current><DateUtc dt:dt=""string"">2018-10-26T15:06:23Z</DateUtc></FrequencyChange></FrequencyChanges></Clock>\n",KW_Experiment5A-48-1,59.944,1.0.0.105,1,1463925673,Professional,2.0.10.353,2.0.10.353,10/26/2018,10/26/2018 15:06,11:06:23,2.0.10.248,3,2,1,3,,,,,,,,TrainingProc,BlockList,12,2,Distractor1.bmp,1,0,,0,1,4348640,400,,0,0,lime,400,1,400,,horizontal,red,Target2.bmp,blue,Distractor1.bmp,yellow,Distractor2.bmp,purple,Distractor1.bmp,cyan,Distractor2.bmp,lime,Distractor1.bmp,,,,TrialProc,6,TrainingTrialList,1,2,-999999,0,4349040,0,2,635,4349675,Target2.bmp,red,2,,,,7,3,60
KW_Experiment5A,48,1,"<?xml version=""1.0""?>\n<Clock xmlns:dt=""urn:schemas-microsoft-com:datatypes""><Description dt:dt=""string"">E-Prime Primary Realtime Clock</Description><StartTime><Timestamp dt:dt=""int"">0</Timestamp><DateUtc dt:dt=""string"">2018-10-26T15:06:23Z</DateUtc></StartTime><FrequencyChanges><FrequencyChange><Frequency dt:dt=""r8"">3215273</Frequency><Timestamp dt:dt=""r8"">1831119343536</Timestamp><Current dt:dt=""r8"">0</Current><DateUtc dt:dt=""string"">2018-10-26T15:06:23Z</DateUtc></FrequencyChange></FrequencyChanges></Clock>\n",KW_Experiment5A-48-1,59.944,1.0.0.105,1,1463925673,Professional,2.0.10.353,2.0.10.353,10/26/2018,10/26/2018 15:06,11:06:23,2.0.10.248,3,2,1,3,,,,,,,,TrainingProc,BlockList,13,2,Distractor2.bmp,2,0,,0,1,4350692,400,,0,0,purple,400,1,400,5,horizontal,purple,Distractor1.bmp,red,Distractor2.bmp,lime,Target2.bmp,blue,Distractor2.bmp,cyan,Distractor2.bmp,yellow,Distractor1.bmp,,,,TrialProc,,TrainingTrialList,1,2,-999999,0,4351092,0,2,215,4351307,Target2.bmp,lime,2,,,,3,3,61
KW_Experiment5A,48,1,"<?xml version=""1.0""?>\n<Clock xmlns:dt=""urn:schemas-microsoft-com:datatypes""><Description dt:dt=""string"">E-Prime Primary Realtime Clock</Description><StartTime><Timestamp dt:dt=""int"">0</Timestamp><DateUtc dt:dt=""string"">2018-10-26T15:06:23Z</DateUtc></StartTime><FrequencyChanges><FrequencyChange><Frequency dt:dt=""r8"">3215273</Frequency><Timestamp dt:dt=""r8"">1831119343536</Timestamp><Current dt:dt=""r8"">0</Current><DateUtc dt:dt=""string"">2018-10-26T15:06:23Z</DateUtc></FrequencyChange></FrequencyChanges></Clock>\n",KW_Experiment5A-48-1,59.944,1.0.0.105,1,1463925673,Professional,2.0.10.353,2.0.10.353,10/26/2018,10/26/2018 15:06,11:06:23,2.0.10.248,3,2,1,3,,,,,,,,TrainingProc,BlockList,14,2,Distractor2.bmp,2,0,,0,1,4352327,500,,0,0,purple,500,2,500,,horizontal,purple,Distractor2.bmp,yellow,Distractor1.bmp,red,Target2.bmp,blue,Distractor2.bmp,lime,Distractor1.bmp,cyan,Distractor1.bmp,,,,TrialProc,5,TrainingTrialList,0,2,-999999,0,4352827,0,1,232,4353059,Target2.bmp,red,2,,,,9,3,62
KW_Experiment5A,48,1,"<?xml version=""1.0""?>\n<Clock xmlns:dt=""urn:schemas-microsoft-com:datatypes""><Description dt:dt=""string"">E-Prime Primary Realtime Clock</Description><StartTime><Timestamp dt:dt=""int"">0</Timestamp><DateUtc dt:dt=""string"">2018-10-26T15:06:23Z</DateUtc></StartTime><FrequencyChanges><FrequencyChange><Frequency dt:dt=""r8"">3215273</Frequency><Timestamp dt:dt=""r8"">1831119343536</Timestamp><Current dt:dt=""r8"">0</Current><DateUtc dt:dt=""string"">2018-10-26T15:06:23Z</DateUtc></FrequencyChange></FrequencyChanges></Clock>\n",KW_Experiment5A-48-1,59.944,1.0.0.105,1,1463925673,Professional,2.0.10.353,2.0.10.353,10/26/2018,10/26/2018 15:06,11:06:23,2.0.10.248,3,2,1,3,,,,,,,,TrainingProc,BlockList,15,1,Distractor2.bmp,2,0,,0,1,4354078,400,,0,0,cyan,400,1,400,4,vertical,cyan,Distractor2.bmp,red,Distractor2.bmp,purple,Distractor1.bmp,yellow,Distractor2.bmp,lime,Target1.bmp,blue,Distractor2.bmp,,,,TrialProc,,TrainingTrialList,0,1,-999999,0,4354478,0,2,397,4354875,Target1.bmp,lime,1,,,,5,3,63
KW_Experiment5A,48,1,"<?xml version=""1.0""?>\n<Clock xmlns:dt=""urn:schemas-microsoft-com:datatypes""><Description dt:dt=""string"">E-Prime Primary Realtime Clock</Description><StartTime><Timestamp dt:dt=""int"">0</Timestamp><DateUtc dt:dt=""string"">2018-10-26T15:06:23Z</DateUtc></StartTime><FrequencyChanges><FrequencyChange><Frequency dt:dt=""r8"">3215273</Frequency><Timestamp dt:dt=""r8"">1831119343536</Timestamp><Current dt:dt=""r8"">0</Current><DateUtc dt:dt=""string"">2018-10-26T15:06:23Z</DateUtc></FrequencyChange></FrequencyChanges></Clock>\n",KW_Experiment5A-48-1,59.944,1.0.0.105,1,1463925673,Professional,2.0.10.353,2.0.10.353,10/26/2018,10/26/2018 15:06,11:06:23,2.0.10.248,3,2,1,3,,,,,,,,TrainingProc,BlockList,16,1,Distractor1.bmp,1,0,,1,0,4355896,401,,0,0,yellow,400,1,400,2,vertical,lime,Target1.bmp,yellow,Distractor1.bmp,red,Distractor2.bmp,cyan,Distractor1.bmp,purple,Distractor1.bmp,blue,Distractor1.bmp,,,,TrialProc,,TrainingTrialList,0,1,-999999,1,4356297,0,2,42,4356339,Target1.bmp,lime,1,,,,1,3,64
KW_Experiment5A,48,1,"<?xml version=""1.0""?>\n<Clock xmlns:dt=""urn:schemas-microsoft-com:datatypes""><Description dt:dt=""string"">E-Prime Primary Realtime Clock</Description><StartTime><Timestamp dt:dt=""int"">0</Timestamp><DateUtc dt:dt=""string"">2018-10-26T15:06:23Z</DateUtc></StartTime><FrequencyChanges><FrequencyChange><Frequency dt:dt=""r8"">3215273</Frequency><Timestamp dt:dt=""r8"">1831119343536</Timestamp><Current dt:dt=""r8"">0</Current><DateUtc dt:dt=""string"">2018-10-26T15:06:23Z</DateUtc></FrequencyChange></FrequencyChanges></Clock>\n",KW_Experiment5A-48-1,59.944,1.0.0.105,1,1463925673,Professional,2.0.10.353,2.0.10.353,10/26/2018,10/26/2018 15:06,11:06:23,2.0.10.248,3,2,1,3,,,,,,,,TrainingProc,BlockList,17,2,Distractor2.bmp,2,0,,1,0,4357364,501,,0,0,yellow,500,2,500,2,horizontal,yellow,Distractor2.bmp,blue,Distractor2.bmp,purple,Distractor2.bmp,lime,Target2.bmp,cyan,Distractor2.bmp,red,Distractor1.bmp,,,,TrialProc,,TrainingTrialList,0,2,-999999,1,4357865,0,1,162,4358027,Target2.bmp,lime,2,,,,4,3,65
KW_Experiment5A,48,1,"<?xml version=""1.0""?>\n<Clock xmlns:dt=""urn:schemas-microsoft-com:datatypes""><Description dt:dt=""string"">E-Prime Primary Realtime Clock</Description><StartTime><Timestamp dt:dt=""int"">0</Timestamp><DateUtc dt:dt=""string"">2018-10-26T15:06:23Z</DateUtc></StartTime><FrequencyChanges><FrequencyChange><Frequency dt:dt=""r8"">3215273</Frequency><Timestamp dt:dt=""r8"">1831119343536</Timestamp><Current dt:dt=""r8"">0</Current><DateUtc dt:dt=""string"">2018-10-26T15:06:23Z</DateUtc></FrequencyChange></FrequencyChanges></Clock>\n",KW_Experiment5A-48-1,59.944,1.0.0.105,1,1463925673,Professional,2.0.10.353,2.0.10.353,10/26/2018,10/26/2018 15:06,11:06:23,2.0.10.248,3,2,1,3,,,,,,,,TrainingProc,BlockList,18,2,Distractor2.bmp,2,0,,0,1,4359049,601,,0,0,cyan,600,3,600,,horizontal,cyan,Distractor1.bmp,yellow,Distractor2.bmp,lime,Distractor2.bmp,blue,Distractor2.bmp,red,Target2.bmp,purple,Distractor2.bmp,,,,TrialProc,4,TrainingTrialList,0,2,-999999,1,4359650,0,1,697,4360347,Target2.bmp,red,2,,,,11,3,66
KW_Experiment5A,48,1,"<?xml version=""1.0""?>\n<Clock xmlns:dt=""urn:schemas-microsoft-com:datatypes""><Description dt:dt=""string"">E-Prime Primary Realtime Clock</Description><StartTime><Timestamp dt:dt=""int"">0</Timestamp><DateUtc dt:dt=""string"">2018-10-26T15:06:23Z</DateUtc></StartTime><FrequencyChanges><FrequencyChange><Frequency dt:dt=""r8"">3215273</Frequency><Timestamp dt:dt=""r8"">1831119343536</Timestamp><Current dt:dt=""r8"">0</Current><DateUtc dt:dt=""string"">2018-10-26T15:06:23Z</DateUtc></FrequencyChange></FrequencyChanges></Clock>\n",KW_Experiment5A-48-1,59.944,1.0.0.105,1,1463925673,Professional,2.0.10.353,2.0.10.353,10/26/2018,10/26/2018 15:06,11:06:23,2.0.10.248,3,2,1,3,,,,,,,,TrainingProc,BlockList,19,1,Distractor2.bmp,2,0,,0,1,4361368,501,,0,0,blue,500,2,500,3,vertical,blue,Distractor2.bmp,red,Distractor2.bmp,yellow,Distractor1.bmp,purple,Distractor2.bmp,cyan,Distractor2.bmp,lime,Target1.bmp,,,,TrialProc,,TrainingTrialList,1,1,-999999,1,4361869,0,1,462,4362331,Target1.bmp,lime,1,,,,6,3,67
KW_Experiment5A,48,1,"<?xml version=""1.0""?>\n<Clock xmlns:dt=""urn:schemas-microsoft-com:datatypes""><Description dt:dt=""string"">E-Prime Primary Realtime Clock</Description><StartTime><Timestamp dt:dt=""int"">0</Timestamp><DateUtc dt:dt=""string"">2018-10-26T15:06:23Z</DateUtc></StartTime><FrequencyChanges><FrequencyChange><Frequency dt:dt=""r8"">3215273</Frequency><Timestamp dt:dt=""r8"">1831119343536</Timestamp><Current dt:dt=""r8"">0</Current><DateUtc dt:dt=""string"">2018-10-26T15:06:23Z</DateUtc></FrequencyChange></FrequencyChanges></Clock>\n",KW_Experiment5A-48-1,59.944,1.0.0.105,1,1463925673,Professional,2.0.10.353,2.0.10.353,10/26/2018,10/26/2018 15:06,11:06:23,2.0.10.248,3,2,1,3,,,,,,,,TrainingProc,BlockList,20,1,Distractor1.bmp,1,0,,0,1,4363353,501,,0,0,yellow,500,2,500,2,vertical,lime,Target1.bmp,yellow,Distractor1.bmp,cyan,Distractor1.bmp,purple,Distractor2.bmp,blue,Distractor1.bmp,red,Distractor1.bmp,,,,TrialProc,,TrainingTrialList,1,1,-999999,1,4363854,0,1,509,4364363,Target1.bmp,lime,1,,,,1,3,68
KW_Experiment5A,48,1,"<?xml version=""1.0""?>\n<Clock xmlns:dt=""urn:schemas-microsoft-com:datatypes""><Description dt:dt=""string"">E-Prime Primary Realtime Clock</Description><StartTime><Timestamp dt:dt=""int"">0</Timestamp><DateUtc dt:dt=""string"">2018-10-26T15:06:23Z</DateUtc></StartTime><FrequencyChanges><FrequencyChange><Frequency dt:dt=""r8"">3215273</Frequency><Timestamp dt:dt=""r8"">1831119343536</Timestamp><Current dt:dt=""r8"">0</Current><DateUtc dt:dt=""string"">2018-10-26T15:06:23Z</DateUtc></FrequencyChange></FrequencyChanges></Clock>\n",KW_Experiment5A-48-1,59.944,1.0.0.105,1,1463925673,Professional,2.0.10.353,2.0.10.353,10/26/2018,10/26/2018 15:06,11:06:23,2.0.10.248,3,2,1,3,,,,,,,,TrainingProc,BlockList,21,2,Distractor2.bmp,2,0,,1,0,4365388,501,,0,0,purple,500,2,500,5,horizontal,purple,Distractor2.bmp,yellow,Distractor2.bmp,red,Distractor1.bmp,blue,Distractor2.bmp,lime,Target2.bmp,cyan,Distractor2.bmp,,,,TrialProc,,TrainingTrialList,1,2,-999999,1,4365889,0,2,610,4366499,Target2.bmp,lime,2,,,,5,3,69
KW_Experiment5A,48,1,"<?xml version=""1.0""?>\n<Clock xmlns:dt=""urn:schemas-microsoft-com:datatypes""><Description dt:dt=""string"">E-Prime Primary Realtime Clock</Description><StartTime><Timestamp dt:dt=""int"">0</Timestamp><DateUtc dt:dt=""string"">2018-10-26T15:06:23Z</DateUtc></StartTime><FrequencyChanges><FrequencyChange><Frequency dt:dt=""r8"">3215273</Frequency><Timestamp dt:dt=""r8"">1831119343536</Timestamp><Current dt:dt=""r8"">0</Current><DateUtc dt:dt=""string"">2018-10-26T15:06:23Z</DateUtc></FrequencyChange></FrequencyChanges></Clock>\n",KW_Experiment5A-48-1,59.944,1.0.0.105,1,1463925673,Professional,2.0.10.353,2.0.10.353,10/26/2018,10/26/2018 15:06,11:06:23,2.0.10.248,3,2,1,3,,,,,,,,TrainingProc,BlockList,22,2,Distractor2.bmp,2,0,,0,1,4367524,400,,0,0,blue,400,1,400,3,horizontal,blue,Distractor1.bmp,lime,Target2.bmp,purple,Distractor2.bmp,red,Distractor2.bmp,yellow,Distractor1.bmp,cyan,Distractor2.bmp,,,,TrialProc,,TrainingTrialList,1,2,-999999,0,4367924,0,2,479,4368403,Target2.bmp,lime,2,,,,2,3,70
KW_Experiment5A,48,1,"<?xml version=""1.0""?>\n<Clock xmlns:dt=""urn:schemas-microsoft-com:datatypes""><Description dt:dt=""string"">E-Prime Primary Realtime Clock</Description><StartTime><Timestamp dt:dt=""int"">0</Timestamp><DateUtc dt:dt=""string"">2018-10-26T15:06:23Z</DateUtc></StartTime><FrequencyChanges><FrequencyChange><Frequency dt:dt=""r8"">3215273</Frequency><Timestamp dt:dt=""r8"">1831119343536</Timestamp><Current dt:dt=""r8"">0</Current><DateUtc dt:dt=""string"">2018-10-26T15:06:23Z</DateUtc></FrequencyChange></FrequencyChanges></Clock>\n",KW_Experiment5A-48-1,59.944,1.0.0.105,1,1463925673,Professional,2.0.10.353,2.0.10.353,10/26/2018,10/26/2018 15:06,11:06:23,2.0.10.248,3,2,1,3,,,,,,,,TrainingProc,BlockList,23,2,Distractor1.bmp,1,0,,0,1,4369426,400,,0,0,blue,400,1,400,3,horizontal,blue,Distractor1.bmp,yellow,Distractor2.bmp,red,Distractor2.bmp,cyan,Distractor1.bmp,purple,Distractor2.bmp,lime,Target2.bmp,,,,TrialProc,,TrainingTrialList,0,2,-999999,0,4369826,0,1,409,4370235,Target2.bmp,lime,2,,,,6,3,71
KW_Experiment5A,48,1,"<?xml version=""1.0""?>\n<Clock xmlns:dt=""urn:schemas-microsoft-com:datatypes""><Description dt:dt=""string"">E-Prime Primary Realtime Clock</Description><StartTime><Timestamp dt:dt=""int"">0</Timestamp><DateUtc dt:dt=""string"">2018-10-26T15:06:23Z</DateUtc></StartTime><FrequencyChanges><FrequencyChange><Frequency dt:dt=""r8"">3215273</Frequency><Timestamp dt:dt=""r8"">1831119343536</Timestamp><Current dt:dt=""r8"">0</Current><DateUtc dt:dt=""string"">2018-10-26T15:06:23Z</DateUtc></FrequencyChange></FrequencyChanges></Clock>\n",KW_Experiment5A-48-1,59.944,1.0.0.105,1,1463925673,Professional,2.0.10.353,2.0.10.353,10/26/2018,10/26/2018 15:06,11:06:23,2.0.10.248,3,2,1,3,,,,,,,,TrainingProc,BlockList,24,1,Distractor1.bmp,1,0,,0,1,4371261,500,,0,0,yellow,500,2,500,2,vertical,lime,Target1.bmp,yellow,Distractor1.bmp,cyan,Distractor2.bmp,blue,Distractor2.bmp,red,Distractor2.bmp,purple,Distractor2.bmp,,,,TrialProc,,TrainingTrialList,1,1,-999999,0,4371761,0,1,506,4372267,Target1.bmp,lime,1,,,,1,3,72
KW_Experiment5A,48,1,"<?xml version=""1.0""?>\n<Clock xmlns:dt=""urn:schemas-microsoft-com:datatypes""><Description dt:dt=""string"">E-Prime Primary Realtime Clock</Description><StartTime><Timestamp dt:dt=""int"">0</Timestamp><DateUtc dt:dt=""string"">2018-10-26T15:06:23Z</DateUtc></StartTime><FrequencyChanges><FrequencyChange><Frequency dt:dt=""r8"">3215273</Frequency><Timestamp dt:dt=""r8"">1831119343536</Timestamp><Current dt:dt=""r8"">0</Current><DateUtc dt:dt=""string"">2018-10-26T15:06:23Z</DateUtc></FrequencyChange></FrequencyChanges></Clock>\n",KW_Experiment5A-48-1,59.944,1.0.0.105,1,1463925673,Professional,2.0.10.353,2.0.10.353,10/26/2018,10/26/2018 15:06,11:06:23,2.0.10.248,3,2,1,3,,,,,,,,TrainingProc,BlockList,25,2,Distractor2.bmp,2,0,,0,1,4373279,501,,0,0,purple,500,2,500,5,horizontal,lime,Target2.bmp,purple,Distractor2.bmp,red,Distractor1.bmp,cyan,Distractor1.bmp,yellow,Distractor2.bmp,blue,Distractor1.bmp,,,,TrialProc,,TrainingTrialList,1,2,-999999,1,4373780,0,2,439,4374219,Target2.bmp,lime,2,,,,1,4,73
KW_Experiment5A,48,1,"<?xml version=""1.0""?>\n<Clock xmlns:dt=""urn:schemas-microsoft-com:datatypes""><Description dt:dt=""string"">E-Prime Primary Realtime Clock</Description><StartTime><Timestamp dt:dt=""int"">0</Timestamp><DateUtc dt:dt=""string"">2018-10-26T15:06:23Z</DateUtc></StartTime><FrequencyChanges><FrequencyChange><Frequency dt:dt=""r8"">3215273</Frequency><Timestamp dt:dt=""r8"">1831119343536</Timestamp><Current dt:dt=""r8"">0</Current><DateUtc dt:dt=""string"">2018-10-26T15:06:23Z</DateUtc></FrequencyChange></FrequencyChanges></Clock>\n",KW_Experiment5A-48-1,59.944,1.0.0.105,1,1463925673,Professional,2.0.10.353,2.0.10.353,10/26/2018,10/26/2018 15:06,11:06:23,2.0.10.248,3,2,1,3,,,,,,,,TrainingProc,BlockList,26,1,Distractor1.bmp,1,0,,0,1,4375231,400,,0,0,blue,400,1,400,3,vertical,blue,Distractor1.bmp,cyan,Distractor2.bmp,red,Distractor1.bmp,purple,Distractor1.bmp,yellow,Distractor1.bmp,lime,Target1.bmp,,,,TrialProc,,TrainingTrialList,1,1,-999999,0,4375631,0,1,475,4376106,Target1.bmp,lime,1,,,,6,4,74
KW_Experiment5A,48,1,"<?xml version=""1.0""?>\n<Clock xmlns:dt=""urn:schemas-microsoft-com:datatypes""><Description dt:dt=""string"">E-Prime Primary Realtime Clock</Description><StartTime><Timestamp dt:dt=""int"">0</Timestamp><DateUtc dt:dt=""string"">2018-10-26T15:06:23Z</DateUtc></StartTime><FrequencyChanges><FrequencyChange><Frequency dt:dt=""r8"">3215273</Frequency><Timestamp dt:dt=""r8"">1831119343536</Timestamp><Current dt:dt=""r8"">0</Current><DateUtc dt:dt=""string"">2018-10-26T15:06:23Z</DateUtc></FrequencyChange></FrequencyChanges></Clock>\n",KW_Experiment5A-48-1,59.944,1.0.0.105,1,1463925673,Professional,2.0.10.353,2.0.10.353,10/26/2018,10/26/2018 15:06,11:06:23,2.0.10.248,3,2,1,3,,,,,,,,TrainingProc,BlockList,27,2,Distractor1.bmp,1,0,,0,1,4377116,500,,0,0,lime,500,2,500,,horizontal,lime,Distractor1.bmp,red,Target2.bmp,blue,Distractor1.bmp,purple,Distractor2.bmp,yellow,Distractor2.bmp,cyan,Distractor1.bmp,,,,TrialProc,6,TrainingTrialList,1,2,-999999,0,4377616,0,2,810,4378426,Target2.bmp,red,2,,,,8,4,75
KW_Experiment5A,48,1,"<?xml version=""1.0""?>\n<Clock xmlns:dt=""urn:schemas-microsoft-com:datatypes""><Description dt:dt=""string"">E-Prime Primary Realtime Clock</Description><StartTime><Timestamp dt:dt=""int"">0</Timestamp><DateUtc dt:dt=""string"">2018-10-26T15:06:23Z</DateUtc></StartTime><FrequencyChanges><FrequencyChange><Frequency dt:dt=""r8"">3215273</Frequency><Timestamp dt:dt=""r8"">1831119343536</Timestamp><Current dt:dt=""r8"">0</Current><DateUtc dt:dt=""string"">2018-10-26T15:06:23Z</DateUtc></FrequencyChange></FrequencyChanges></Clock>\n",KW_Experiment5A-48-1,59.944,1.0.0.105,1,1463925673,Professional,2.0.10.353,2.0.10.353,10/26/2018,10/26/2018 15:06,11:06:23,2.0.10.248,3,2,1,3,,,,,,,,TrainingProc,BlockList,28,1,Distractor2.bmp,2,0,,0,1,4379451,501,,0,0,yellow,500,2,500,,vertical,yellow,Distractor2.bmp,cyan,Distractor1.bmp,red,Target1.bmp,purple,Distractor2.bmp,lime,Distractor2.bmp,blue,Distractor1.bmp,,,,TrialProc,2,TrainingTrialList,1,1,-999999,1,4379952,0,1,618,4380570,Target1.bmp,red,1,,,,9,4,76
KW_Experiment5A,48,1,"<?xml version=""1.0""?>\n<Clock xmlns:dt=""urn:schemas-microsoft-com:datatypes""><Description dt:dt=""string"">E-Prime Primary Realtime Clock</Description><StartTime><Timestamp dt:dt=""int"">0</Timestamp><DateUtc dt:dt=""string"">2018-10-26T15:06:23Z</DateUtc></StartTime><FrequencyChanges><FrequencyChange><Frequency dt:dt=""r8"">3215273</Frequency><Timestamp dt:dt=""r8"">1831119343536</Timestamp><Current dt:dt=""r8"">0</Current><DateUtc dt:dt=""string"">2018-10-26T15:06:23Z</DateUtc></FrequencyChange></FrequencyChanges></Clock>\n",KW_Experiment5A-48-1,59.944,1.0.0.105,1,1463925673,Professional,2.0.10.353,2.0.10.353,10/26/2018,10/26/2018 15:06,11:06:23,2.0.10.248,3,2,1,3,,,,,,,,TrainingProc,BlockList,29,2,Distractor2.bmp,2,0,,0,1,4381587,500,,0,0,red,500,2,500,1,horizontal,red,Distractor2.bmp,blue,Distractor1.bmp,lime,Target2.bmp,purple,Distractor2.bmp,yellow,Distractor2.bmp,cyan,Distractor1.bmp,,,,TrialProc,,TrainingTrialList,1,2,-999999,0,4382087,0,2,635,4382722,Target2.bmp,lime,2,,,,3,4,77
KW_Experiment5A,48,1,"<?xml version=""1.0""?>\n<Clock xmlns:dt=""urn:schemas-microsoft-com:datatypes""><Description dt:dt=""string"">E-Prime Primary Realtime Clock</Description><StartTime><Timestamp dt:dt=""int"">0</Timestamp><DateUtc dt:dt=""string"">2018-10-26T15:06:23Z</DateUtc></StartTime><FrequencyChanges><FrequencyChange><Frequency dt:dt=""r8"">3215273</Frequency><Timestamp dt:dt=""r8"">1831119343536</Timestamp><Current dt:dt=""r8"">0</Current><DateUtc dt:dt=""string"">2018-10-26T15:06:23Z</DateUtc></FrequencyChange></FrequencyChanges></Clock>\n",KW_Experiment5A-48-1,59.944,1.0.0.105,1,1463925673,Professional,2.0.10.353,2.0.10.353,10/26/2018,10/26/2018 15:06,11:06:23,2.0.10.248,3,2,1,3,,,,,,,,TrainingProc,BlockList,30,1,Distractor1.bmp,1,0,,0,1,4383739,500,,0,0,lime,500,2,500,,vertical,lime,Distractor2.bmp,blue,Distractor1.bmp,yellow,Distractor2.bmp,red,Target1.bmp,cyan,Distractor1.bmp,purple,Distractor2.bmp,,,,TrialProc,6,TrainingTrialList,1,1,-999999,0,4384239,0,1,499,4384738,Target1.bmp,red,1,,,,10,4,78
KW_Experiment5A,48,1,"<?xml version=""1.0""?>\n<Clock xmlns:dt=""urn:schemas-microsoft-com:datatypes""><Description dt:dt=""string"">E-Prime Primary Realtime Clock</Description><StartTime><Timestamp dt:dt=""int"">0</Timestamp><DateUtc dt:dt=""string"">2018-10-26T15:06:23Z</DateUtc></StartTime><FrequencyChanges><FrequencyChange><Frequency dt:dt=""r8"">3215273</Frequency><Timestamp dt:dt=""r8"">1831119343536</Timestamp><Current dt:dt=""r8"">0</Current><DateUtc dt:dt=""string"">2018-10-26T15:06:23Z</DateUtc></FrequencyChange></FrequencyChanges></Clock>\n",KW_Experiment5A-48-1,59.944,1.0.0.105,1,1463925673,Professional,2.0.10.353,2.0.10.353,10/26/2018,10/26/2018 15:06,11:06:23,2.0.10.248,3,2,1,3,,,,,,,,TrainingProc,BlockList,31,1,Distractor1.bmp,1,0,,0,1,4385757,601,,0,0,cyan,600,3,600,4,vertical,cyan,Distractor1.bmp,purple,Distractor1.bmp,blue,Distractor1.bmp,yellow,Distractor1.bmp,lime,Target1.bmp,red,Distractor1.bmp,,,,TrialProc,,TrainingTrialList,1,1,-999999,1,4386358,0,1,532,4386890,Target1.bmp,lime,1,,,,5,4,79
KW_Experiment5A,48,1,"<?xml version=""1.0""?>\n<Clock xmlns:dt=""urn:schemas-microsoft-com:datatypes""><Description dt:dt=""string"">E-Prime Primary Realtime Clock</Description><StartTime><Timestamp dt:dt=""int"">0</Timestamp><DateUtc dt:dt=""string"">2018-10-26T15:06:23Z</DateUtc></StartTime><FrequencyChanges><FrequencyChange><Frequency dt:dt=""r8"">3215273</Frequency><Timestamp dt:dt=""r8"">1831119343536</Timestamp><Current dt:dt=""r8"">0</Current><DateUtc dt:dt=""string"">2018-10-26T15:06:23Z</DateUtc></FrequencyChange></FrequencyChanges></Clock>\n",KW_Experiment5A-48-1,59.944,1.0.0.105,1,1463925673,Professional,2.0.10.353,2.0.10.353,10/26/2018,10/26/2018 15:06,11:06:23,2.0.10.248,3,2,1,3,,,,,,,,TrainingProc,BlockList,32,1,Distractor2.bmp,2,0,,0,1,4387909,601,,0,0,purple,600,3,600,5,vertical,lime,Target1.bmp,purple,Distractor2.bmp,yellow,Distractor1.bmp,blue,Distractor1.bmp,red,Distractor1.bmp,cyan,Distractor1.bmp,,,,TrialProc,,TrainingTrialList,1,1,-999999,1,4388510,0,1,636,4389146,Target1.bmp,lime,1,,,,1,4,80
KW_Experiment5A,48,1,"<?xml version=""1.0""?>\n<Clock xmlns:dt=""urn:schemas-microsoft-com:datatypes""><Description dt:dt=""string"">E-Prime Primary Realtime Clock</Description><StartTime><Timestamp dt:dt=""int"">0</Timestamp><DateUtc dt:dt=""string"">2018-10-26T15:06:23Z</DateUtc></StartTime><FrequencyChanges><FrequencyChange><Frequency dt:dt=""r8"">3215273</Frequency><Timestamp dt:dt=""r8"">1831119343536</Timestamp><Current dt:dt=""r8"">0</Current><DateUtc dt:dt=""string"">2018-10-26T15:06:23Z</DateUtc></FrequencyChange></FrequencyChanges></Clock>\n",KW_Experiment5A-48-1,59.944,1.0.0.105,1,1463925673,Professional,2.0.10.353,2.0.10.353,10/26/2018,10/26/2018 15:06,11:06:23,2.0.10.248,3,2,1,3,,,,,,,,TrainingProc,BlockList,33,2,Distractor1.bmp,1,0,,0,1,4390161,501,,0,0,red,500,2,500,1,horizontal,red,Distractor2.bmp,yellow,Distractor1.bmp,blue,Distractor2.bmp,lime,Target2.bmp,purple,Distractor1.bmp,cyan,Distractor1.bmp,,,,TrialProc,,TrainingTrialList,1,2,-999999,1,4390662,0,2,596,4391258,Target2.bmp,lime,2,,,,4,4,81
KW_Experiment5A,48,1,"<?xml version=""1.0""?>\n<Clock xmlns:dt=""urn:schemas-microsoft-com:datatypes""><Description dt:dt=""string"">E-Prime Primary Realtime Clock</Description><StartTime><Timestamp dt:dt=""int"">0</Timestamp><DateUtc dt:dt=""string"">2018-10-26T15:06:23Z</DateUtc></StartTime><FrequencyChanges><FrequencyChange><Frequency dt:dt=""r8"">3215273</Frequency><Timestamp dt:dt=""r8"">1831119343536</Timestamp><Current dt:dt=""r8"">0</Current><DateUtc dt:dt=""string"">2018-10-26T15:06:23Z</DateUtc></FrequencyChange></FrequencyChanges></Clock>\n",KW_Experiment5A-48-1,59.944,1.0.0.105,1,1463925673,Professional,2.0.10.353,2.0.10.353,10/26/2018,10/26/2018 15:06,11:06:23,2.0.10.248,3,2,1,3,,,,,,,,TrainingProc,BlockList,34,2,Distractor1.bmp,1,0,,0,1,4392280,500,,0,0,purple,500,2,500,5,horizontal,lime,Target2.bmp,purple,Distractor1.bmp,red,Distractor1.bmp,yellow,Distractor1.bmp,blue,Distractor1.bmp,cyan,Distractor1.bmp,,,,TrialProc,,TrainingTrialList,1,2,-999999,0,4392780,0,2,598,4393378,Target2.bmp,lime,2,,,,1,4,82
KW_Experiment5A,48,1,"<?xml version=""1.0""?>\n<Clock xmlns:dt=""urn:schemas-microsoft-com:datatypes""><Description dt:dt=""string"">E-Prime Primary Realtime Clock</Description><StartTime><Timestamp dt:dt=""int"">0</Timestamp><DateUtc dt:dt=""string"">2018-10-26T15:06:23Z</DateUtc></StartTime><FrequencyChanges><FrequencyChange><Frequency dt:dt=""r8"">3215273</Frequency><Timestamp dt:dt=""r8"">1831119343536</Timestamp><Current dt:dt=""r8"">0</Current><DateUtc dt:dt=""string"">2018-10-26T15:06:23Z</DateUtc></FrequencyChange></FrequencyChanges></Clock>\n",KW_Experiment5A-48-1,59.944,1.0.0.105,1,1463925673,Professional,2.0.10.353,2.0.10.353,10/26/2018,10/26/2018 15:06,11:06:23,2.0.10.248,3,2,1,3,,,,,,,,TrainingProc,BlockList,35,1,Distractor2.bmp,2,0,,0,1,4394398,401,,0,0,yellow,400,1,400,2,vertical,yellow,Distractor1.bmp,red,Distractor1.bmp,cyan,Distractor2.bmp,lime,Target1.bmp,blue,Distractor2.bmp,purple,Distractor1.bmp,,,,TrialProc,,TrainingTrialList,1,1,-999999,1,4394799,0,1,531,4395330,Target1.bmp,lime,1,,,,4,4,83
KW_Experiment5A,48,1,"<?xml version=""1.0""?>\n<Clock xmlns:dt=""urn:schemas-microsoft-com:datatypes""><Description dt:dt=""string"">E-Prime Primary Realtime Clock</Description><StartTime><Timestamp dt:dt=""int"">0</Timestamp><DateUtc dt:dt=""string"">2018-10-26T15:06:23Z</DateUtc></StartTime><FrequencyChanges><FrequencyChange><Frequency dt:dt=""r8"">3215273</Frequency><Timestamp dt:dt=""r8"">1831119343536</Timestamp><Current dt:dt=""r8"">0</Current><DateUtc dt:dt=""string"">2018-10-26T15:06:23Z</DateUtc></FrequencyChange></FrequencyChanges></Clock>\n",KW_Experiment5A-48-1,59.944,1.0.0.105,1,1463925673,Professional,2.0.10.353,2.0.10.353,10/26/2018,10/26/2018 15:06,11:06:23,2.0.10.248,3,2,1,3,,,,,,,,TrainingProc,BlockList,36,2,Distractor1.bmp,1,0,,0,1,4396350,401,,0,0,blue,400,1,400,3,horizontal,blue,Distractor1.bmp,cyan,Distractor1.bmp,red,Distractor1.bmp,yellow,Distractor1.bmp,purple,Distractor2.bmp,lime,Target2.bmp,,,,TrialProc,,TrainingTrialList,1,2,-999999,1,4396751,0,2,619,4397370,Target2.bmp,lime,2,,,,6,4,84
KW_Experiment5A,48,1,"<?xml version=""1.0""?>\n<Clock xmlns:dt=""urn:schemas-microsoft-com:datatypes""><Description dt:dt=""string"">E-Prime Primary Realtime Clock</Description><StartTime><Timestamp dt:dt=""int"">0</Timestamp><DateUtc dt:dt=""string"">2018-10-26T15:06:23Z</DateUtc></StartTime><FrequencyChanges><FrequencyChange><Frequency dt:dt=""r8"">3215273</Frequency><Timestamp dt:dt=""r8"">1831119343536</Timestamp><Current dt:dt=""r8"">0</Current><DateUtc dt:dt=""string"">2018-10-26T15:06:23Z</DateUtc></FrequencyChange></FrequencyChanges></Clock>\n",KW_Experiment5A-48-1,59.944,1.0.0.105,1,1463925673,Professional,2.0.10.353,2.0.10.353,10/26/2018,10/26/2018 15:06,11:06:23,2.0.10.248,3,2,1,3,,,,,,,,TrainingProc,BlockList,37,1,Distractor1.bmp,1,0,,0,1,4398385,501,,0,0,blue,500,2,500,3,vertical,blue,Distractor2.bmp,red,Distractor2.bmp,lime,Target1.bmp,yellow,Distractor1.bmp,purple,Distractor2.bmp,cyan,Distractor2.bmp,,,,TrialProc,,TrainingTrialList,0,1,-999999,1,4398886,0,2,572,4399458,Target1.bmp,lime,1,,,,3,4,85
KW_Experiment5A,48,1,"<?xml version=""1.0""?>\n<Clock xmlns:dt=""urn:schemas-microsoft-com:datatypes""><Description dt:dt=""string"">E-Prime Primary Realtime Clock</Description><StartTime><Timestamp dt:dt=""int"">0</Timestamp><DateUtc dt:dt=""string"">2018-10-26T15:06:23Z</DateUtc></StartTime><FrequencyChanges><FrequencyChange><Frequency dt:dt=""r8"">3215273</Frequency><Timestamp dt:dt=""r8"">1831119343536</Timestamp><Current dt:dt=""r8"">0</Current><DateUtc dt:dt=""string"">2018-10-26T15:06:23Z</DateUtc></FrequencyChange></FrequencyChanges></Clock>\n",KW_Experiment5A-48-1,59.944,1.0.0.105,1,1463925673,Professional,2.0.10.353,2.0.10.353,10/26/2018,10/26/2018 15:06,11:06:23,2.0.10.248,3,2,1,3,,,,,,,,TrainingProc,BlockList,38,2,Distractor2.bmp,2,0,,0,1,4400471,600,,0,0,blue,600,3,600,,horizontal,blue,Distractor1.bmp,purple,Distractor2.bmp,lime,Distractor1.bmp,cyan,Distractor1.bmp,red,Target2.bmp,yellow,Distractor2.bmp,,,,TrialProc,3,TrainingTrialList,1,2,-999999,0,4401071,0,2,723,4401794,Target2.bmp,red,2,,,,11,4,86
KW_Experiment5A,48,1,"<?xml version=""1.0""?>\n<Clock xmlns:dt=""urn:schemas-microsoft-com:datatypes""><Description dt:dt=""string"">E-Prime Primary Realtime Clock</Description><StartTime><Timestamp dt:dt=""int"">0</Timestamp><DateUtc dt:dt=""string"">2018-10-26T15:06:23Z</DateUtc></StartTime><FrequencyChanges><FrequencyChange><Frequency dt:dt=""r8"">3215273</Frequency><Timestamp dt:dt=""r8"">1831119343536</Timestamp><Current dt:dt=""r8"">0</Current><DateUtc dt:dt=""string"">2018-10-26T15:06:23Z</DateUtc></FrequencyChange></FrequencyChanges></Clock>\n",KW_Experiment5A-48-1,59.944,1.0.0.105,1,1463925673,Professional,2.0.10.353,2.0.10.353,10/26/2018,10/26/2018 15:06,11:06:23,2.0.10.248,3,2,1,3,,,,,,,,TrainingProc,BlockList,39,1,Distractor1.bmp,1,0,,0,1,4402806,500,,0,0,purple,500,2,500,5,vertical,purple,Distractor2.bmp,cyan,Distractor2.bmp,lime,Target1.bmp,blue,Distractor1.bmp,red,Distractor1.bmp,yellow,Distractor1.bmp,,,,TrialProc,,TrainingTrialList,1,1,-999999,0,4403306,0,1,584,4403890,Target1.bmp,lime,1,,,,3,4,87
KW_Experiment5A,48,1,"<?xml version=""1.0""?>\n<Clock xmlns:dt=""urn:schemas-microsoft-com:datatypes""><Description dt:dt=""string"">E-Prime Primary Realtime Clock</Description><StartTime><Timestamp dt:dt=""int"">0</Timestamp><DateUtc dt:dt=""string"">2018-10-26T15:06:23Z</DateUtc></StartTime><FrequencyChanges><FrequencyChange><Frequency dt:dt=""r8"">3215273</Frequency><Timestamp dt:dt=""r8"">1831119343536</Timestamp><Current dt:dt=""r8"">0</Current><DateUtc dt:dt=""string"">2018-10-26T15:06:23Z</DateUtc></FrequencyChange></FrequencyChanges></Clock>\n",KW_Experiment5A-48-1,59.944,1.0.0.105,1,1463925673,Professional,2.0.10.353,2.0.10.353,10/26/2018,10/26/2018 15:06,11:06:23,2.0.10.248,3,2,1,3,,,,,,,,TrainingProc,BlockList,40,2,Distractor1.bmp,1,0,,0,1,4404908,500,,0,0,red,500,2,500,1,horizontal,red,Distractor1.bmp,blue,Distractor2.bmp,purple,Distractor2.bmp,cyan,Distractor1.bmp,lime,Target2.bmp,yellow,Distractor1.bmp,,,,TrialProc,,TrainingTrialList,1,2,-999999,0,4405408,0,2,642,4406050,Target2.bmp,lime,2,,,,5,4,88
KW_Experiment5A,48,1,"<?xml version=""1.0""?>\n<Clock xmlns:dt=""urn:schemas-microsoft-com:datatypes""><Description dt:dt=""string"">E-Prime Primary Realtime Clock</Description><StartTime><Timestamp dt:dt=""int"">0</Timestamp><DateUtc dt:dt=""string"">2018-10-26T15:06:23Z</DateUtc></StartTime><FrequencyChanges><FrequencyChange><Frequency dt:dt=""r8"">3215273</Frequency><Timestamp dt:dt=""r8"">1831119343536</Timestamp><Current dt:dt=""r8"">0</Current><DateUtc dt:dt=""string"">2018-10-26T15:06:23Z</DateUtc></FrequencyChange></FrequencyChanges></Clock>\n",KW_Experiment5A-48-1,59.944,1.0.0.105,1,1463925673,Professional,2.0.10.353,2.0.10.353,10/26/2018,10/26/2018 15:06,11:06:23,2.0.10.248,3,2,1,3,,,,,,,,TrainingProc,BlockList,41,2,Distractor1.bmp,1,0,,0,1,4407060,600,,0,0,yellow,600,3,600,2,horizontal,yellow,Distractor2.bmp,lime,Target2.bmp,red,Distractor1.bmp,purple,Distractor1.bmp,blue,Distractor2.bmp,cyan,Distractor1.bmp,,,,TrialProc,,TrainingTrialList,1,2,-999999,0,4407660,0,2,446,4408106,Target2.bmp,lime,2,,,,2,4,89
