ExperimentName,Subject,Session,Clock.Information,DataFile.Basename,Display.RefreshRate,ExperimentVersion,Group,RandomSeed,RuntimeCapabilities,RuntimeVersion,RuntimeVersionExpected,SessionDate,SessionStartDateTimeUtc,SessionTime,StudioVersion,Block,BlockList,BlockList.Cycle,BlockList.Sample,PostTestQ1.RESP,PostTestQ1CJ.RESP,PostTestQ2.RESP,PostTestQ2CJ.RESP,PostTestQ3.RESP,PostTestQ3CJ.RESP,PostTestSlide.RESP,Procedure[Block],Running[Block],Trial,CorrectResponse,Distractor,DistractorList,Fixation.ACC,Fixation.CRESP,Fixation.DurationError,Fixation.OnsetDelay,Fixation.OnsetTime,Fixation.OnsetToOnsetTime,Fixation.RESP,Fixation.RT,Fixation.RTTime,ItemColor,Jitter,JitterList,JitterTime,Lime0List,Orientation,Pos1Color,Pos1Item,Pos2Color,Pos2Item,Pos3Color,Pos3Item,Pos4Color,Pos4Item,Pos5Color,Pos5Item,Pos6Color,Pos6Item,PracticeTrialList,PracticeTrialList.Cycle,PracticeTrialList.Sample,Procedure[Trial],Red0List,Running[Trial],Stimulus.ACC,Stimulus.CRESP,Stimulus.DurationError,Stimulus.OnsetDelay,Stimulus.OnsetTime,Stimulus.OnsetToOnsetTime,Stimulus.RESP,Stimulus.RT,Stimulus.RTTime,Target,TargetColor,TargetList,TestTrialList,TestTrialList.Cycle,TestTrialList.Sample,TrainingTrialList,TrainingTrialList.Cycle,TrainingTrialList.Sample
KW_Experiment5A,10,1,"<?xml version=""1.0""?>\n<Clock xmlns:dt=""urn:schemas-microsoft-com:datatypes""><Description dt:dt=""string"">E-Prime Primary Realtime Clock</Description><StartTime><Timestamp dt:dt=""int"">0</Timestamp><DateUtc dt:dt=""string"">2018-10-10T17:09:31Z</DateUtc></StartTime><FrequencyChanges><FrequencyChange><Frequency dt:dt=""r8"">3215244</Frequency><Timestamp dt:dt=""r8"">5188698723450</Timestamp><Current dt:dt=""r8"">0</Current><DateUtc dt:dt=""string"">2018-10-10T17:09:31Z</DateUtc></FrequencyChange></FrequencyChanges></Clock>\n",KW_Experiment5A-10-1,59.946,1.0.0.105,2,378842381,Professional,2.0.10.353,2.0.10.353,10/10/2018,10/10/2018 17:09,13:09:32,2.0.10.248,1,1,1,1,,,,,,,,PracticeProc,BlockList,1,1,Distractor2.bmp,2,0,,0,45,360020,600,,0,0,cyan,600,3,600,4,vertical,red,Distractor2.bmp,yellow,Distractor1.bmp,blue,Distractor2.bmp,cyan,Distractor1.bmp,lime,Target1.bmp,purple,Distractor2.bmp,5,1,1,TrialProc,,PracticeTrialList,1,1,-999999,0,360620,0,1,4827,365447,Target1.bmp,lime,1,,,,,,
KW_Experiment5A,10,1,"<?xml version=""1.0""?>\n<Clock xmlns:dt=""urn:schemas-microsoft-com:datatypes""><Description dt:dt=""string"">E-Prime Primary Realtime Clock</Description><StartTime><Timestamp dt:dt=""int"">0</Timestamp><DateUtc dt:dt=""string"">2018-10-10T17:09:31Z</DateUtc></StartTime><FrequencyChanges><FrequencyChange><Frequency dt:dt=""r8"">3215244</Frequency><Timestamp dt:dt=""r8"">5188698723450</Timestamp><Current dt:dt=""r8"">0</Current><DateUtc dt:dt=""string"">2018-10-10T17:09:31Z</DateUtc></FrequencyChange></FrequencyChanges></Clock>\n",KW_Experiment5A-10-1,59.946,1.0.0.105,2,378842381,Professional,2.0.10.353,2.0.10.353,10/10/2018,10/10/2018 17:09,13:09:32,2.0.10.248,1,1,1,1,,,,,,,,PracticeProc,BlockList,2,1,Distractor2.bmp,2,0,,0,1,366459,400,,0,0,cyan,400,1,400,4,vertical,yellow,Distractor2.bmp,cyan,Distractor1.bmp,lime,Target1.bmp,purple,Distractor2.bmp,blue,Distractor1.bmp,red,Distractor2.bmp,3,1,2,TrialProc,,PracticeTrialList,1,1,-999999,0,366859,0,1,1108,367967,Target1.bmp,lime,1,,,,,,
KW_Experiment5A,10,1,"<?xml version=""1.0""?>\n<Clock xmlns:dt=""urn:schemas-microsoft-com:datatypes""><Description dt:dt=""string"">E-Prime Primary Realtime Clock</Description><StartTime><Timestamp dt:dt=""int"">0</Timestamp><DateUtc dt:dt=""string"">2018-10-10T17:09:31Z</DateUtc></StartTime><FrequencyChanges><FrequencyChange><Frequency dt:dt=""r8"">3215244</Frequency><Timestamp dt:dt=""r8"">5188698723450</Timestamp><Current dt:dt=""r8"">0</Current><DateUtc dt:dt=""string"">2018-10-10T17:09:31Z</DateUtc></FrequencyChange></FrequencyChanges></Clock>\n",KW_Experiment5A-10-1,59.946,1.0.0.105,2,378842381,Professional,2.0.10.353,2.0.10.353,10/10/2018,10/10/2018 17:09,13:09:32,2.0.10.248,1,1,1,1,,,,,,,,PracticeProc,BlockList,3,2,Distractor1.bmp,1,0,,0,1,368978,601,,0,0,cyan,600,3,600,,horizontal,yellow,Distractor1.bmp,purple,Distractor1.bmp,lime,Distractor2.bmp,blue,Distractor2.bmp,cyan,Distractor1.bmp,red,Target2.bmp,6,1,3,TrialProc,4,PracticeTrialList,1,2,-999999,1,369579,0,2,1268,370847,Target2.bmp,red,2,,,,,,
KW_Experiment5A,10,1,"<?xml version=""1.0""?>\n<Clock xmlns:dt=""urn:schemas-microsoft-com:datatypes""><Description dt:dt=""string"">E-Prime Primary Realtime Clock</Description><StartTime><Timestamp dt:dt=""int"">0</Timestamp><DateUtc dt:dt=""string"">2018-10-10T17:09:31Z</DateUtc></StartTime><FrequencyChanges><FrequencyChange><Frequency dt:dt=""r8"">3215244</Frequency><Timestamp dt:dt=""r8"">5188698723450</Timestamp><Current dt:dt=""r8"">0</Current><DateUtc dt:dt=""string"">2018-10-10T17:09:31Z</DateUtc></FrequencyChange></FrequencyChanges></Clock>\n",KW_Experiment5A-10-1,59.946,1.0.0.105,2,378842381,Professional,2.0.10.353,2.0.10.353,10/10/2018,10/10/2018 17:09,13:09:32,2.0.10.248,1,1,1,1,,,,,,,,PracticeProc,BlockList,4,2,Distractor2.bmp,2,0,,0,1,371864,501,,0,0,blue,500,2,500,3,horizontal,lime,Target2.bmp,red,Distractor2.bmp,cyan,Distractor2.bmp,yellow,Distractor2.bmp,purple,Distractor2.bmp,blue,Distractor1.bmp,1,1,4,TrialProc,,PracticeTrialList,1,2,-999999,1,372365,0,2,3114,375479,Target2.bmp,lime,2,,,,,,
KW_Experiment5A,10,1,"<?xml version=""1.0""?>\n<Clock xmlns:dt=""urn:schemas-microsoft-com:datatypes""><Description dt:dt=""string"">E-Prime Primary Realtime Clock</Description><StartTime><Timestamp dt:dt=""int"">0</Timestamp><DateUtc dt:dt=""string"">2018-10-10T17:09:31Z</DateUtc></StartTime><FrequencyChanges><FrequencyChange><Frequency dt:dt=""r8"">3215244</Frequency><Timestamp dt:dt=""r8"">5188698723450</Timestamp><Current dt:dt=""r8"">0</Current><DateUtc dt:dt=""string"">2018-10-10T17:09:31Z</DateUtc></FrequencyChange></FrequencyChanges></Clock>\n",KW_Experiment5A-10-1,59.946,1.0.0.105,2,378842381,Professional,2.0.10.353,2.0.10.353,10/10/2018,10/10/2018 17:09,13:09:32,2.0.10.248,1,1,1,1,,,,,,,,PracticeProc,BlockList,5,1,Distractor2.bmp,2,0,,0,1,376502,500,,0,0,lime,500,2,500,,vertical,blue,Distractor2.bmp,yellow,Distractor1.bmp,lime,Distractor2.bmp,red,Target1.bmp,purple,Distractor2.bmp,cyan,Distractor1.bmp,4,1,5,TrialProc,6,PracticeTrialList,0,1,-999999,0,377002,0,2,3037,380039,Target1.bmp,red,1,,,,,,
KW_Experiment5A,10,1,"<?xml version=""1.0""?>\n<Clock xmlns:dt=""urn:schemas-microsoft-com:datatypes""><Description dt:dt=""string"">E-Prime Primary Realtime Clock</Description><StartTime><Timestamp dt:dt=""int"">0</Timestamp><DateUtc dt:dt=""string"">2018-10-10T17:09:31Z</DateUtc></StartTime><FrequencyChanges><FrequencyChange><Frequency dt:dt=""r8"">3215244</Frequency><Timestamp dt:dt=""r8"">5188698723450</Timestamp><Current dt:dt=""r8"">0</Current><DateUtc dt:dt=""string"">2018-10-10T17:09:31Z</DateUtc></FrequencyChange></FrequencyChanges></Clock>\n",KW_Experiment5A-10-1,59.946,1.0.0.105,2,378842381,Professional,2.0.10.353,2.0.10.353,10/10/2018,10/10/2018 17:09,13:09:32,2.0.10.248,1,1,1,1,,,,,,,,PracticeProc,BlockList,6,2,Distractor1.bmp,1,0,,0,1,381056,600,,0,0,lime,600,3,600,,horizontal,lime,Distractor2.bmp,red,Target2.bmp,cyan,Distractor1.bmp,blue,Distractor1.bmp,purple,Distractor1.bmp,yellow,Distractor2.bmp,2,1,6,TrialProc,6,PracticeTrialList,0,2,-999999,0,381656,0,1,1359,383015,Target2.bmp,red,2,,,,,,
KW_Experiment5A,10,1,"<?xml version=""1.0""?>\n<Clock xmlns:dt=""urn:schemas-microsoft-com:datatypes""><Description dt:dt=""string"">E-Prime Primary Realtime Clock</Description><StartTime><Timestamp dt:dt=""int"">0</Timestamp><DateUtc dt:dt=""string"">2018-10-10T17:09:31Z</DateUtc></StartTime><FrequencyChanges><FrequencyChange><Frequency dt:dt=""r8"">3215244</Frequency><Timestamp dt:dt=""r8"">5188698723450</Timestamp><Current dt:dt=""r8"">0</Current><DateUtc dt:dt=""string"">2018-10-10T17:09:31Z</DateUtc></FrequencyChange></FrequencyChanges></Clock>\n",KW_Experiment5A-10-1,59.946,1.0.0.105,2,378842381,Professional,2.0.10.353,2.0.10.353,10/10/2018,10/10/2018 17:09,13:09:32,2.0.10.248,2,2,1,2,,,,,,,,TrainingProc,BlockList,1,2,Distractor1.bmp,1,0,,0,31,391966,500,,0,0,cyan,500,2,500,,horizontal,cyan,Distractor1.bmp,blue,Distractor2.bmp,red,Target2.bmp,purple,Distractor1.bmp,yellow,Distractor2.bmp,lime,Distractor2.bmp,,,,TrialProc,4,TrainingTrialList,1,2,-999999,0,392466,0,2,3165,395631,Target2.bmp,red,2,,,,9,2,1
KW_Experiment5A,10,1,"<?xml version=""1.0""?>\n<Clock xmlns:dt=""urn:schemas-microsoft-com:datatypes""><Description dt:dt=""string"">E-Prime Primary Realtime Clock</Description><StartTime><Timestamp dt:dt=""int"">0</Timestamp><DateUtc dt:dt=""string"">2018-10-10T17:09:31Z</DateUtc></StartTime><FrequencyChanges><FrequencyChange><Frequency dt:dt=""r8"">3215244</Frequency><Timestamp dt:dt=""r8"">5188698723450</Timestamp><Current dt:dt=""r8"">0</Current><DateUtc dt:dt=""string"">2018-10-10T17:09:31Z</DateUtc></FrequencyChange></FrequencyChanges></Clock>\n",KW_Experiment5A-10-1,59.946,1.0.0.105,2,378842381,Professional,2.0.10.353,2.0.10.353,10/10/2018,10/10/2018 17:09,13:09:32,2.0.10.248,2,2,1,2,,,,,,,,TrainingProc,BlockList,2,2,Distractor2.bmp,2,0,,0,1,396654,500,,0,0,cyan,500,2,500,,horizontal,cyan,Distractor1.bmp,blue,Distractor1.bmp,lime,Distractor2.bmp,yellow,Distractor2.bmp,red,Target2.bmp,purple,Distractor2.bmp,,,,TrialProc,4,TrainingTrialList,1,2,-999999,0,397154,0,2,1773,398927,Target2.bmp,red,2,,,,11,2,2
KW_Experiment5A,10,1,"<?xml version=""1.0""?>\n<Clock xmlns:dt=""urn:schemas-microsoft-com:datatypes""><Description dt:dt=""string"">E-Prime Primary Realtime Clock</Description><StartTime><Timestamp dt:dt=""int"">0</Timestamp><DateUtc dt:dt=""string"">2018-10-10T17:09:31Z</DateUtc></StartTime><FrequencyChanges><FrequencyChange><Frequency dt:dt=""r8"">3215244</Frequency><Timestamp dt:dt=""r8"">5188698723450</Timestamp><Current dt:dt=""r8"">0</Current><DateUtc dt:dt=""string"">2018-10-10T17:09:31Z</DateUtc></FrequencyChange></FrequencyChanges></Clock>\n",KW_Experiment5A-10-1,59.946,1.0.0.105,2,378842381,Professional,2.0.10.353,2.0.10.353,10/10/2018,10/10/2018 17:09,13:09:32,2.0.10.248,2,2,1,2,,,,,,,,TrainingProc,BlockList,3,1,Distractor2.bmp,2,0,,0,1,399940,400,,0,0,yellow,400,1,400,2,vertical,yellow,Distractor1.bmp,cyan,Distractor1.bmp,lime,Target1.bmp,red,Distractor2.bmp,purple,Distractor2.bmp,blue,Distractor1.bmp,,,,TrialProc,,TrainingTrialList,1,1,-999999,0,400340,0,1,1763,402103,Target1.bmp,lime,1,,,,3,2,3
KW_Experiment5A,10,1,"<?xml version=""1.0""?>\n<Clock xmlns:dt=""urn:schemas-microsoft-com:datatypes""><Description dt:dt=""string"">E-Prime Primary Realtime Clock</Description><StartTime><Timestamp dt:dt=""int"">0</Timestamp><DateUtc dt:dt=""string"">2018-10-10T17:09:31Z</DateUtc></StartTime><FrequencyChanges><FrequencyChange><Frequency dt:dt=""r8"">3215244</Frequency><Timestamp dt:dt=""r8"">5188698723450</Timestamp><Current dt:dt=""r8"">0</Current><DateUtc dt:dt=""string"">2018-10-10T17:09:31Z</DateUtc></FrequencyChange></FrequencyChanges></Clock>\n",KW_Experiment5A-10-1,59.946,1.0.0.105,2,378842381,Professional,2.0.10.353,2.0.10.353,10/10/2018,10/10/2018 17:09,13:09:32,2.0.10.248,2,2,1,2,,,,,,,,TrainingProc,BlockList,4,1,Distractor2.bmp,2,0,,0,1,403126,401,,0,0,cyan,400,1,400,,vertical,cyan,Distractor1.bmp,blue,Distractor1.bmp,purple,Distractor1.bmp,red,Target1.bmp,yellow,Distractor2.bmp,lime,Distractor1.bmp,,,,TrialProc,4,TrainingTrialList,1,1,-999999,1,403527,0,1,800,404327,Target1.bmp,red,1,,,,10,2,4
KW_Experiment5A,10,1,"<?xml version=""1.0""?>\n<Clock xmlns:dt=""urn:schemas-microsoft-com:datatypes""><Description dt:dt=""string"">E-Prime Primary Realtime Clock</Description><StartTime><Timestamp dt:dt=""int"">0</Timestamp><DateUtc dt:dt=""string"">2018-10-10T17:09:31Z</DateUtc></StartTime><FrequencyChanges><FrequencyChange><Frequency dt:dt=""r8"">3215244</Frequency><Timestamp dt:dt=""r8"">5188698723450</Timestamp><Current dt:dt=""r8"">0</Current><DateUtc dt:dt=""string"">2018-10-10T17:09:31Z</DateUtc></FrequencyChange></FrequencyChanges></Clock>\n",KW_Experiment5A-10-1,59.946,1.0.0.105,2,378842381,Professional,2.0.10.353,2.0.10.353,10/10/2018,10/10/2018 17:09,13:09:32,2.0.10.248,2,2,1,2,,,,,,,,TrainingProc,BlockList,5,2,Distractor2.bmp,2,0,,0,1,405345,601,,0,0,purple,600,3,600,,horizontal,purple,Distractor2.bmp,red,Target2.bmp,cyan,Distractor2.bmp,lime,Distractor2.bmp,blue,Distractor2.bmp,yellow,Distractor2.bmp,,,,TrialProc,5,TrainingTrialList,1,2,-999999,1,405946,0,2,453,406399,Target2.bmp,red,2,,,,8,2,5
KW_Experiment5A,10,1,"<?xml version=""1.0""?>\n<Clock xmlns:dt=""urn:schemas-microsoft-com:datatypes""><Description dt:dt=""string"">E-Prime Primary Realtime Clock</Description><StartTime><Timestamp dt:dt=""int"">0</Timestamp><DateUtc dt:dt=""string"">2018-10-10T17:09:31Z</DateUtc></StartTime><FrequencyChanges><FrequencyChange><Frequency dt:dt=""r8"">3215244</Frequency><Timestamp dt:dt=""r8"">5188698723450</Timestamp><Current dt:dt=""r8"">0</Current><DateUtc dt:dt=""string"">2018-10-10T17:09:31Z</DateUtc></FrequencyChange></FrequencyChanges></Clock>\n",KW_Experiment5A-10-1,59.946,1.0.0.105,2,378842381,Professional,2.0.10.353,2.0.10.353,10/10/2018,10/10/2018 17:09,13:09:32,2.0.10.248,2,2,1,2,,,,,,,,TrainingProc,BlockList,6,2,Distractor1.bmp,1,0,,0,1,407414,600,,0,0,purple,600,3,600,5,horizontal,purple,Distractor1.bmp,red,Distractor2.bmp,yellow,Distractor1.bmp,cyan,Distractor2.bmp,blue,Distractor1.bmp,lime,Target2.bmp,,,,TrialProc,,TrainingTrialList,0,2,-999999,0,408014,0,1,969,408983,Target2.bmp,lime,2,,,,6,2,6
KW_Experiment5A,10,1,"<?xml version=""1.0""?>\n<Clock xmlns:dt=""urn:schemas-microsoft-com:datatypes""><Description dt:dt=""string"">E-Prime Primary Realtime Clock</Description><StartTime><Timestamp dt:dt=""int"">0</Timestamp><DateUtc dt:dt=""string"">2018-10-10T17:09:31Z</DateUtc></StartTime><FrequencyChanges><FrequencyChange><Frequency dt:dt=""r8"">3215244</Frequency><Timestamp dt:dt=""r8"">5188698723450</Timestamp><Current dt:dt=""r8"">0</Current><DateUtc dt:dt=""string"">2018-10-10T17:09:31Z</DateUtc></FrequencyChange></FrequencyChanges></Clock>\n",KW_Experiment5A-10-1,59.946,1.0.0.105,2,378842381,Professional,2.0.10.353,2.0.10.353,10/10/2018,10/10/2018 17:09,13:09:32,2.0.10.248,2,2,1,2,,,,,,,,TrainingProc,BlockList,7,1,Distractor2.bmp,2,0,,0,1,409999,401,,0,0,lime,400,1,400,,vertical,lime,Distractor1.bmp,purple,Distractor2.bmp,cyan,Distractor1.bmp,red,Target1.bmp,yellow,Distractor2.bmp,blue,Distractor2.bmp,,,,TrialProc,6,TrainingTrialList,1,1,-999999,1,410400,0,1,1247,411647,Target1.bmp,red,1,,,,10,2,7
KW_Experiment5A,10,1,"<?xml version=""1.0""?>\n<Clock xmlns:dt=""urn:schemas-microsoft-com:datatypes""><Description dt:dt=""string"">E-Prime Primary Realtime Clock</Description><StartTime><Timestamp dt:dt=""int"">0</Timestamp><DateUtc dt:dt=""string"">2018-10-10T17:09:31Z</DateUtc></StartTime><FrequencyChanges><FrequencyChange><Frequency dt:dt=""r8"">3215244</Frequency><Timestamp dt:dt=""r8"">5188698723450</Timestamp><Current dt:dt=""r8"">0</Current><DateUtc dt:dt=""string"">2018-10-10T17:09:31Z</DateUtc></FrequencyChange></FrequencyChanges></Clock>\n",KW_Experiment5A-10-1,59.946,1.0.0.105,2,378842381,Professional,2.0.10.353,2.0.10.353,10/10/2018,10/10/2018 17:09,13:09:32,2.0.10.248,2,2,1,2,,,,,,,,TrainingProc,BlockList,8,2,Distractor1.bmp,1,0,,0,1,412668,501,,0,0,purple,500,2,500,,horizontal,purple,Distractor1.bmp,yellow,Distractor1.bmp,lime,Distractor2.bmp,blue,Distractor1.bmp,cyan,Distractor2.bmp,red,Target2.bmp,,,,TrialProc,5,TrainingTrialList,1,2,-999999,1,413169,0,2,806,413975,Target2.bmp,red,2,,,,12,2,8
KW_Experiment5A,10,1,"<?xml version=""1.0""?>\n<Clock xmlns:dt=""urn:schemas-microsoft-com:datatypes""><Description dt:dt=""string"">E-Prime Primary Realtime Clock</Description><StartTime><Timestamp dt:dt=""int"">0</Timestamp><DateUtc dt:dt=""string"">2018-10-10T17:09:31Z</DateUtc></StartTime><FrequencyChanges><FrequencyChange><Frequency dt:dt=""r8"">3215244</Frequency><Timestamp dt:dt=""r8"">5188698723450</Timestamp><Current dt:dt=""r8"">0</Current><DateUtc dt:dt=""string"">2018-10-10T17:09:31Z</DateUtc></FrequencyChange></FrequencyChanges></Clock>\n",KW_Experiment5A-10-1,59.946,1.0.0.105,2,378842381,Professional,2.0.10.353,2.0.10.353,10/10/2018,10/10/2018 17:09,13:09:32,2.0.10.248,2,2,1,2,,,,,,,,TrainingProc,BlockList,9,2,Distractor1.bmp,1,0,,0,1,414987,501,,0,0,blue,500,2,500,,horizontal,red,Target2.bmp,lime,Distractor1.bmp,yellow,Distractor1.bmp,cyan,Distractor2.bmp,purple,Distractor1.bmp,blue,Distractor2.bmp,,,,TrialProc,3,TrainingTrialList,0,2,-999999,1,415488,0,1,527,416015,Target2.bmp,red,2,,,,7,2,9
KW_Experiment5A,10,1,"<?xml version=""1.0""?>\n<Clock xmlns:dt=""urn:schemas-microsoft-com:datatypes""><Description dt:dt=""string"">E-Prime Primary Realtime Clock</Description><StartTime><Timestamp dt:dt=""int"">0</Timestamp><DateUtc dt:dt=""string"">2018-10-10T17:09:31Z</DateUtc></StartTime><FrequencyChanges><FrequencyChange><Frequency dt:dt=""r8"">3215244</Frequency><Timestamp dt:dt=""r8"">5188698723450</Timestamp><Current dt:dt=""r8"">0</Current><DateUtc dt:dt=""string"">2018-10-10T17:09:31Z</DateUtc></FrequencyChange></FrequencyChanges></Clock>\n",KW_Experiment5A-10-1,59.946,1.0.0.105,2,378842381,Professional,2.0.10.353,2.0.10.353,10/10/2018,10/10/2018 17:09,13:09:32,2.0.10.248,2,2,1,2,,,,,,,,TrainingProc,BlockList,10,2,Distractor2.bmp,2,0,,0,1,417039,601,,0,0,yellow,600,3,600,,horizontal,red,Target2.bmp,purple,Distractor2.bmp,lime,Distractor1.bmp,cyan,Distractor2.bmp,blue,Distractor1.bmp,yellow,Distractor1.bmp,,,,TrialProc,2,TrainingTrialList,1,2,-999999,1,417640,0,2,599,418239,Target2.bmp,red,2,,,,7,2,10
KW_Experiment5A,10,1,"<?xml version=""1.0""?>\n<Clock xmlns:dt=""urn:schemas-microsoft-com:datatypes""><Description dt:dt=""string"">E-Prime Primary Realtime Clock</Description><StartTime><Timestamp dt:dt=""int"">0</Timestamp><DateUtc dt:dt=""string"">2018-10-10T17:09:31Z</DateUtc></StartTime><FrequencyChanges><FrequencyChange><Frequency dt:dt=""r8"">3215244</Frequency><Timestamp dt:dt=""r8"">5188698723450</Timestamp><Current dt:dt=""r8"">0</Current><DateUtc dt:dt=""string"">2018-10-10T17:09:31Z</DateUtc></FrequencyChange></FrequencyChanges></Clock>\n",KW_Experiment5A-10-1,59.946,1.0.0.105,2,378842381,Professional,2.0.10.353,2.0.10.353,10/10/2018,10/10/2018 17:09,13:09:32,2.0.10.248,2,2,1,2,,,,,,,,TrainingProc,BlockList,11,2,Distractor2.bmp,2,0,,0,1,419258,500,,0,0,cyan,500,2,500,,horizontal,cyan,Distractor2.bmp,lime,Distractor1.bmp,blue,Distractor1.bmp,purple,Distractor1.bmp,yellow,Distractor2.bmp,red,Target2.bmp,,,,TrialProc,4,TrainingTrialList,1,2,-999999,0,419758,0,2,705,420463,Target2.bmp,red,2,,,,12,2,11
KW_Experiment5A,10,1,"<?xml version=""1.0""?>\n<Clock xmlns:dt=""urn:schemas-microsoft-com:datatypes""><Description dt:dt=""string"">E-Prime Primary Realtime Clock</Description><StartTime><Timestamp dt:dt=""int"">0</Timestamp><DateUtc dt:dt=""string"">2018-10-10T17:09:31Z</DateUtc></StartTime><FrequencyChanges><FrequencyChange><Frequency dt:dt=""r8"">3215244</Frequency><Timestamp dt:dt=""r8"">5188698723450</Timestamp><Current dt:dt=""r8"">0</Current><DateUtc dt:dt=""string"">2018-10-10T17:09:31Z</DateUtc></FrequencyChange></FrequencyChanges></Clock>\n",KW_Experiment5A-10-1,59.946,1.0.0.105,2,378842381,Professional,2.0.10.353,2.0.10.353,10/10/2018,10/10/2018 17:09,13:09:32,2.0.10.248,2,2,1,2,,,,,,,,TrainingProc,BlockList,12,1,Distractor2.bmp,2,0,,1,0,421476,601,,0,0,red,600,3,600,1,vertical,lime,Target1.bmp,red,Distractor2.bmp,cyan,Distractor1.bmp,blue,Distractor2.bmp,yellow,Distractor1.bmp,purple,Distractor1.bmp,,,,TrialProc,,TrainingTrialList,1,1,-999999,1,422077,0,1,746,422823,Target1.bmp,lime,1,,,,1,2,12
KW_Experiment5A,10,1,"<?xml version=""1.0""?>\n<Clock xmlns:dt=""urn:schemas-microsoft-com:datatypes""><Description dt:dt=""string"">E-Prime Primary Realtime Clock</Description><StartTime><Timestamp dt:dt=""int"">0</Timestamp><DateUtc dt:dt=""string"">2018-10-10T17:09:31Z</DateUtc></StartTime><FrequencyChanges><FrequencyChange><Frequency dt:dt=""r8"">3215244</Frequency><Timestamp dt:dt=""r8"">5188698723450</Timestamp><Current dt:dt=""r8"">0</Current><DateUtc dt:dt=""string"">2018-10-10T17:09:31Z</DateUtc></FrequencyChange></FrequencyChanges></Clock>\n",KW_Experiment5A-10-1,59.946,1.0.0.105,2,378842381,Professional,2.0.10.353,2.0.10.353,10/10/2018,10/10/2018 17:09,13:09:32,2.0.10.248,2,2,1,2,,,,,,,,TrainingProc,BlockList,13,2,Distractor2.bmp,2,0,,0,1,423845,401,,0,0,cyan,400,1,400,4,horizontal,cyan,Distractor1.bmp,lime,Target2.bmp,purple,Distractor2.bmp,blue,Distractor1.bmp,red,Distractor1.bmp,yellow,Distractor1.bmp,,,,TrialProc,,TrainingTrialList,0,2,-999999,1,424246,0,1,1048,425294,Target2.bmp,lime,2,,,,2,2,13
KW_Experiment5A,10,1,"<?xml version=""1.0""?>\n<Clock xmlns:dt=""urn:schemas-microsoft-com:datatypes""><Description dt:dt=""string"">E-Prime Primary Realtime Clock</Description><StartTime><Timestamp dt:dt=""int"">0</Timestamp><DateUtc dt:dt=""string"">2018-10-10T17:09:31Z</DateUtc></StartTime><FrequencyChanges><FrequencyChange><Frequency dt:dt=""r8"">3215244</Frequency><Timestamp dt:dt=""r8"">5188698723450</Timestamp><Current dt:dt=""r8"">0</Current><DateUtc dt:dt=""string"">2018-10-10T17:09:31Z</DateUtc></FrequencyChange></FrequencyChanges></Clock>\n",KW_Experiment5A-10-1,59.946,1.0.0.105,2,378842381,Professional,2.0.10.353,2.0.10.353,10/10/2018,10/10/2018 17:09,13:09:32,2.0.10.248,2,2,1,2,,,,,,,,TrainingProc,BlockList,14,1,Distractor2.bmp,2,0,,0,1,426314,501,,0,0,lime,500,2,500,,vertical,lime,Distractor2.bmp,red,Target1.bmp,blue,Distractor2.bmp,cyan,Distractor1.bmp,yellow,Distractor2.bmp,purple,Distractor2.bmp,,,,TrialProc,6,TrainingTrialList,0,1,-999999,1,426815,0,2,1343,428158,Target1.bmp,red,1,,,,8,2,14
KW_Experiment5A,10,1,"<?xml version=""1.0""?>\n<Clock xmlns:dt=""urn:schemas-microsoft-com:datatypes""><Description dt:dt=""string"">E-Prime Primary Realtime Clock</Description><StartTime><Timestamp dt:dt=""int"">0</Timestamp><DateUtc dt:dt=""string"">2018-10-10T17:09:31Z</DateUtc></StartTime><FrequencyChanges><FrequencyChange><Frequency dt:dt=""r8"">3215244</Frequency><Timestamp dt:dt=""r8"">5188698723450</Timestamp><Current dt:dt=""r8"">0</Current><DateUtc dt:dt=""string"">2018-10-10T17:09:31Z</DateUtc></FrequencyChange></FrequencyChanges></Clock>\n",KW_Experiment5A-10-1,59.946,1.0.0.105,2,378842381,Professional,2.0.10.353,2.0.10.353,10/10/2018,10/10/2018 17:09,13:09:32,2.0.10.248,2,2,1,2,,,,,,,,TrainingProc,BlockList,15,2,Distractor2.bmp,2,0,,0,1,429184,600,,0,0,yellow,600,3,600,,horizontal,yellow,Distractor1.bmp,lime,Distractor2.bmp,cyan,Distractor2.bmp,blue,Distractor2.bmp,red,Target2.bmp,purple,Distractor2.bmp,,,,TrialProc,2,TrainingTrialList,1,2,-999999,0,429784,0,2,846,430630,Target2.bmp,red,2,,,,11,2,15
KW_Experiment5A,10,1,"<?xml version=""1.0""?>\n<Clock xmlns:dt=""urn:schemas-microsoft-com:datatypes""><Description dt:dt=""string"">E-Prime Primary Realtime Clock</Description><StartTime><Timestamp dt:dt=""int"">0</Timestamp><DateUtc dt:dt=""string"">2018-10-10T17:09:31Z</DateUtc></StartTime><FrequencyChanges><FrequencyChange><Frequency dt:dt=""r8"">3215244</Frequency><Timestamp dt:dt=""r8"">5188698723450</Timestamp><Current dt:dt=""r8"">0</Current><DateUtc dt:dt=""string"">2018-10-10T17:09:31Z</DateUtc></FrequencyChange></FrequencyChanges></Clock>\n",KW_Experiment5A-10-1,59.946,1.0.0.105,2,378842381,Professional,2.0.10.353,2.0.10.353,10/10/2018,10/10/2018 17:09,13:09:32,2.0.10.248,2,2,1,2,,,,,,,,TrainingProc,BlockList,16,2,Distractor2.bmp,2,0,,0,1,431653,400,,0,0,red,400,1,400,1,horizontal,red,Distractor2.bmp,purple,Distractor1.bmp,blue,Distractor1.bmp,yellow,Distractor2.bmp,lime,Target2.bmp,cyan,Distractor2.bmp,,,,TrialProc,,TrainingTrialList,1,2,-999999,0,432053,0,2,1305,433358,Target2.bmp,lime,2,,,,5,2,16
KW_Experiment5A,10,1,"<?xml version=""1.0""?>\n<Clock xmlns:dt=""urn:schemas-microsoft-com:datatypes""><Description dt:dt=""string"">E-Prime Primary Realtime Clock</Description><StartTime><Timestamp dt:dt=""int"">0</Timestamp><DateUtc dt:dt=""string"">2018-10-10T17:09:31Z</DateUtc></StartTime><FrequencyChanges><FrequencyChange><Frequency dt:dt=""r8"">3215244</Frequency><Timestamp dt:dt=""r8"">5188698723450</Timestamp><Current dt:dt=""r8"">0</Current><DateUtc dt:dt=""string"">2018-10-10T17:09:31Z</DateUtc></FrequencyChange></FrequencyChanges></Clock>\n",KW_Experiment5A-10-1,59.946,1.0.0.105,2,378842381,Professional,2.0.10.353,2.0.10.353,10/10/2018,10/10/2018 17:09,13:09:32,2.0.10.248,2,2,1,2,,,,,,,,TrainingProc,BlockList,17,1,Distractor1.bmp,1,0,,0,1,434372,600,,0,0,yellow,600,3,600,,vertical,yellow,Distractor2.bmp,red,Target1.bmp,purple,Distractor1.bmp,lime,Distractor2.bmp,cyan,Distractor1.bmp,blue,Distractor1.bmp,,,,TrialProc,2,TrainingTrialList,0,1,-999999,0,434972,0,2,826,435798,Target1.bmp,red,1,,,,8,2,17
KW_Experiment5A,10,1,"<?xml version=""1.0""?>\n<Clock xmlns:dt=""urn:schemas-microsoft-com:datatypes""><Description dt:dt=""string"">E-Prime Primary Realtime Clock</Description><StartTime><Timestamp dt:dt=""int"">0</Timestamp><DateUtc dt:dt=""string"">2018-10-10T17:09:31Z</DateUtc></StartTime><FrequencyChanges><FrequencyChange><Frequency dt:dt=""r8"">3215244</Frequency><Timestamp dt:dt=""r8"">5188698723450</Timestamp><Current dt:dt=""r8"">0</Current><DateUtc dt:dt=""string"">2018-10-10T17:09:31Z</DateUtc></FrequencyChange></FrequencyChanges></Clock>\n",KW_Experiment5A-10-1,59.946,1.0.0.105,2,378842381,Professional,2.0.10.353,2.0.10.353,10/10/2018,10/10/2018 17:09,13:09:32,2.0.10.248,2,2,1,2,,,,,,,,TrainingProc,BlockList,18,1,Distractor2.bmp,2,0,,0,1,436824,400,,0,0,cyan,400,1,400,,vertical,cyan,Distractor1.bmp,lime,Distractor1.bmp,red,Target1.bmp,blue,Distractor2.bmp,purple,Distractor2.bmp,yellow,Distractor2.bmp,,,,TrialProc,4,TrainingTrialList,1,1,-999999,0,437224,0,1,798,438022,Target1.bmp,red,1,,,,9,2,18
KW_Experiment5A,10,1,"<?xml version=""1.0""?>\n<Clock xmlns:dt=""urn:schemas-microsoft-com:datatypes""><Description dt:dt=""string"">E-Prime Primary Realtime Clock</Description><StartTime><Timestamp dt:dt=""int"">0</Timestamp><DateUtc dt:dt=""string"">2018-10-10T17:09:31Z</DateUtc></StartTime><FrequencyChanges><FrequencyChange><Frequency dt:dt=""r8"">3215244</Frequency><Timestamp dt:dt=""r8"">5188698723450</Timestamp><Current dt:dt=""r8"">0</Current><DateUtc dt:dt=""string"">2018-10-10T17:09:31Z</DateUtc></FrequencyChange></FrequencyChanges></Clock>\n",KW_Experiment5A-10-1,59.946,1.0.0.105,2,378842381,Professional,2.0.10.353,2.0.10.353,10/10/2018,10/10/2018 17:09,13:09:32,2.0.10.248,2,2,1,2,,,,,,,,TrainingProc,BlockList,19,2,Distractor2.bmp,2,0,,0,1,439043,400,,0,0,yellow,400,1,400,,horizontal,yellow,Distractor1.bmp,cyan,Distractor1.bmp,blue,Distractor2.bmp,lime,Distractor2.bmp,red,Target2.bmp,purple,Distractor2.bmp,,,,TrialProc,2,TrainingTrialList,1,2,-999999,0,439443,0,2,707,440150,Target2.bmp,red,2,,,,11,2,19
KW_Experiment5A,10,1,"<?xml version=""1.0""?>\n<Clock xmlns:dt=""urn:schemas-microsoft-com:datatypes""><Description dt:dt=""string"">E-Prime Primary Realtime Clock</Description><StartTime><Timestamp dt:dt=""int"">0</Timestamp><DateUtc dt:dt=""string"">2018-10-10T17:09:31Z</DateUtc></StartTime><FrequencyChanges><FrequencyChange><Frequency dt:dt=""r8"">3215244</Frequency><Timestamp dt:dt=""r8"">5188698723450</Timestamp><Current dt:dt=""r8"">0</Current><DateUtc dt:dt=""string"">2018-10-10T17:09:31Z</DateUtc></FrequencyChange></FrequencyChanges></Clock>\n",KW_Experiment5A-10-1,59.946,1.0.0.105,2,378842381,Professional,2.0.10.353,2.0.10.353,10/10/2018,10/10/2018 17:09,13:09:32,2.0.10.248,2,2,1,2,,,,,,,,TrainingProc,BlockList,20,2,Distractor1.bmp,1,0,,0,1,441161,601,,0,0,cyan,600,3,600,,horizontal,cyan,Distractor1.bmp,yellow,Distractor2.bmp,purple,Distractor2.bmp,lime,Distractor2.bmp,blue,Distractor1.bmp,red,Target2.bmp,,,,TrialProc,4,TrainingTrialList,1,2,-999999,1,441762,0,2,828,442590,Target2.bmp,red,2,,,,12,2,20
KW_Experiment5A,10,1,"<?xml version=""1.0""?>\n<Clock xmlns:dt=""urn:schemas-microsoft-com:datatypes""><Description dt:dt=""string"">E-Prime Primary Realtime Clock</Description><StartTime><Timestamp dt:dt=""int"">0</Timestamp><DateUtc dt:dt=""string"">2018-10-10T17:09:31Z</DateUtc></StartTime><FrequencyChanges><FrequencyChange><Frequency dt:dt=""r8"">3215244</Frequency><Timestamp dt:dt=""r8"">5188698723450</Timestamp><Current dt:dt=""r8"">0</Current><DateUtc dt:dt=""string"">2018-10-10T17:09:31Z</DateUtc></FrequencyChange></FrequencyChanges></Clock>\n",KW_Experiment5A-10-1,59.946,1.0.0.105,2,378842381,Professional,2.0.10.353,2.0.10.353,10/10/2018,10/10/2018 17:09,13:09:32,2.0.10.248,2,2,1,2,,,,,,,,TrainingProc,BlockList,21,2,Distractor2.bmp,2,0,,0,1,443614,600,,0,0,yellow,600,3,600,,horizontal,red,Target2.bmp,lime,Distractor2.bmp,blue,Distractor1.bmp,cyan,Distractor2.bmp,purple,Distractor1.bmp,yellow,Distractor1.bmp,,,,TrialProc,2,TrainingTrialList,1,2,-999999,0,444214,0,2,1120,445334,Target2.bmp,red,2,,,,7,2,21
KW_Experiment5A,10,1,"<?xml version=""1.0""?>\n<Clock xmlns:dt=""urn:schemas-microsoft-com:datatypes""><Description dt:dt=""string"">E-Prime Primary Realtime Clock</Description><StartTime><Timestamp dt:dt=""int"">0</Timestamp><DateUtc dt:dt=""string"">2018-10-10T17:09:31Z</DateUtc></StartTime><FrequencyChanges><FrequencyChange><Frequency dt:dt=""r8"">3215244</Frequency><Timestamp dt:dt=""r8"">5188698723450</Timestamp><Current dt:dt=""r8"">0</Current><DateUtc dt:dt=""string"">2018-10-10T17:09:31Z</DateUtc></FrequencyChange></FrequencyChanges></Clock>\n",KW_Experiment5A-10-1,59.946,1.0.0.105,2,378842381,Professional,2.0.10.353,2.0.10.353,10/10/2018,10/10/2018 17:09,13:09:32,2.0.10.248,2,2,1,2,,,,,,,,TrainingProc,BlockList,22,1,Distractor2.bmp,2,0,,0,0,446349,601,,0,0,purple,600,3,600,,vertical,purple,Distractor2.bmp,cyan,Distractor1.bmp,red,Target1.bmp,yellow,Distractor2.bmp,lime,Distractor1.bmp,blue,Distractor2.bmp,,,,TrialProc,5,TrainingTrialList,1,1,-999999,1,446950,0,1,640,447590,Target1.bmp,red,1,,,,9,2,22
KW_Experiment5A,10,1,"<?xml version=""1.0""?>\n<Clock xmlns:dt=""urn:schemas-microsoft-com:datatypes""><Description dt:dt=""string"">E-Prime Primary Realtime Clock</Description><StartTime><Timestamp dt:dt=""int"">0</Timestamp><DateUtc dt:dt=""string"">2018-10-10T17:09:31Z</DateUtc></StartTime><FrequencyChanges><FrequencyChange><Frequency dt:dt=""r8"">3215244</Frequency><Timestamp dt:dt=""r8"">5188698723450</Timestamp><Current dt:dt=""r8"">0</Current><DateUtc dt:dt=""string"">2018-10-10T17:09:31Z</DateUtc></FrequencyChange></FrequencyChanges></Clock>\n",KW_Experiment5A-10-1,59.946,1.0.0.105,2,378842381,Professional,2.0.10.353,2.0.10.353,10/10/2018,10/10/2018 17:09,13:09:32,2.0.10.248,2,2,1,2,,,,,,,,TrainingProc,BlockList,23,2,Distractor2.bmp,2,0,,0,1,448602,500,,0,0,blue,500,2,500,,horizontal,blue,Distractor1.bmp,yellow,Distractor2.bmp,lime,Distractor2.bmp,red,Target2.bmp,purple,Distractor2.bmp,cyan,Distractor2.bmp,,,,TrialProc,3,TrainingTrialList,0,2,-999999,0,449102,0,1,704,449806,Target2.bmp,red,2,,,,10,2,23
KW_Experiment5A,10,1,"<?xml version=""1.0""?>\n<Clock xmlns:dt=""urn:schemas-microsoft-com:datatypes""><Description dt:dt=""string"">E-Prime Primary Realtime Clock</Description><StartTime><Timestamp dt:dt=""int"">0</Timestamp><DateUtc dt:dt=""string"">2018-10-10T17:09:31Z</DateUtc></StartTime><FrequencyChanges><FrequencyChange><Frequency dt:dt=""r8"">3215244</Frequency><Timestamp dt:dt=""r8"">5188698723450</Timestamp><Current dt:dt=""r8"">0</Current><DateUtc dt:dt=""string"">2018-10-10T17:09:31Z</DateUtc></FrequencyChange></FrequencyChanges></Clock>\n",KW_Experiment5A-10-1,59.946,1.0.0.105,2,378842381,Professional,2.0.10.353,2.0.10.353,10/10/2018,10/10/2018 17:09,13:09:32,2.0.10.248,2,2,1,2,,,,,,,,TrainingProc,BlockList,24,2,Distractor2.bmp,2,0,,0,1,450820,401,,0,0,purple,400,1,400,5,horizontal,purple,Distractor1.bmp,red,Distractor2.bmp,yellow,Distractor2.bmp,lime,Target2.bmp,cyan,Distractor2.bmp,blue,Distractor1.bmp,,,,TrialProc,,TrainingTrialList,1,2,-999999,1,451221,0,2,921,452142,Target2.bmp,lime,2,,,,4,2,24
KW_Experiment5A,10,1,"<?xml version=""1.0""?>\n<Clock xmlns:dt=""urn:schemas-microsoft-com:datatypes""><Description dt:dt=""string"">E-Prime Primary Realtime Clock</Description><StartTime><Timestamp dt:dt=""int"">0</Timestamp><DateUtc dt:dt=""string"">2018-10-10T17:09:31Z</DateUtc></StartTime><FrequencyChanges><FrequencyChange><Frequency dt:dt=""r8"">3215244</Frequency><Timestamp dt:dt=""r8"">5188698723450</Timestamp><Current dt:dt=""r8"">0</Current><DateUtc dt:dt=""string"">2018-10-10T17:09:31Z</DateUtc></FrequencyChange></FrequencyChanges></Clock>\n",KW_Experiment5A-10-1,59.946,1.0.0.105,2,378842381,Professional,2.0.10.353,2.0.10.353,10/10/2018,10/10/2018 17:09,13:09:32,2.0.10.248,2,2,1,2,,,,,,,,TrainingProc,BlockList,25,2,Distractor2.bmp,2,0,,0,1,453156,400,,0,0,yellow,400,1,400,,horizontal,yellow,Distractor1.bmp,cyan,Distractor1.bmp,blue,Distractor1.bmp,red,Target2.bmp,purple,Distractor2.bmp,lime,Distractor1.bmp,,,,TrialProc,2,TrainingTrialList,1,2,-999999,0,453556,0,2,890,454446,Target2.bmp,red,2,,,,10,3,25
KW_Experiment5A,10,1,"<?xml version=""1.0""?>\n<Clock xmlns:dt=""urn:schemas-microsoft-com:datatypes""><Description dt:dt=""string"">E-Prime Primary Realtime Clock</Description><StartTime><Timestamp dt:dt=""int"">0</Timestamp><DateUtc dt:dt=""string"">2018-10-10T17:09:31Z</DateUtc></StartTime><FrequencyChanges><FrequencyChange><Frequency dt:dt=""r8"">3215244</Frequency><Timestamp dt:dt=""r8"">5188698723450</Timestamp><Current dt:dt=""r8"">0</Current><DateUtc dt:dt=""string"">2018-10-10T17:09:31Z</DateUtc></FrequencyChange></FrequencyChanges></Clock>\n",KW_Experiment5A-10-1,59.946,1.0.0.105,2,378842381,Professional,2.0.10.353,2.0.10.353,10/10/2018,10/10/2018 17:09,13:09:32,2.0.10.248,2,2,1,2,,,,,,,,TrainingProc,BlockList,26,2,Distractor2.bmp,2,0,,0,1,455458,600,,0,0,purple,600,3,600,,horizontal,purple,Distractor2.bmp,yellow,Distractor1.bmp,blue,Distractor2.bmp,red,Target2.bmp,lime,Distractor2.bmp,cyan,Distractor2.bmp,,,,TrialProc,5,TrainingTrialList,1,2,-999999,0,456058,0,2,580,456638,Target2.bmp,red,2,,,,10,3,26
KW_Experiment5A,10,1,"<?xml version=""1.0""?>\n<Clock xmlns:dt=""urn:schemas-microsoft-com:datatypes""><Description dt:dt=""string"">E-Prime Primary Realtime Clock</Description><StartTime><Timestamp dt:dt=""int"">0</Timestamp><DateUtc dt:dt=""string"">2018-10-10T17:09:31Z</DateUtc></StartTime><FrequencyChanges><FrequencyChange><Frequency dt:dt=""r8"">3215244</Frequency><Timestamp dt:dt=""r8"">5188698723450</Timestamp><Current dt:dt=""r8"">0</Current><DateUtc dt:dt=""string"">2018-10-10T17:09:31Z</DateUtc></FrequencyChange></FrequencyChanges></Clock>\n",KW_Experiment5A-10-1,59.946,1.0.0.105,2,378842381,Professional,2.0.10.353,2.0.10.353,10/10/2018,10/10/2018 17:09,13:09:32,2.0.10.248,2,2,1,2,,,,,,,,TrainingProc,BlockList,27,1,Distractor2.bmp,2,0,,0,1,457660,500,,0,0,cyan,500,2,500,,vertical,cyan,Distractor1.bmp,purple,Distractor2.bmp,yellow,Distractor2.bmp,blue,Distractor1.bmp,red,Target1.bmp,lime,Distractor2.bmp,,,,TrialProc,4,TrainingTrialList,1,1,-999999,0,458160,0,1,942,459102,Target1.bmp,red,1,,,,11,3,27
KW_Experiment5A,10,1,"<?xml version=""1.0""?>\n<Clock xmlns:dt=""urn:schemas-microsoft-com:datatypes""><Description dt:dt=""string"">E-Prime Primary Realtime Clock</Description><StartTime><Timestamp dt:dt=""int"">0</Timestamp><DateUtc dt:dt=""string"">2018-10-10T17:09:31Z</DateUtc></StartTime><FrequencyChanges><FrequencyChange><Frequency dt:dt=""r8"">3215244</Frequency><Timestamp dt:dt=""r8"">5188698723450</Timestamp><Current dt:dt=""r8"">0</Current><DateUtc dt:dt=""string"">2018-10-10T17:09:31Z</DateUtc></FrequencyChange></FrequencyChanges></Clock>\n",KW_Experiment5A-10-1,59.946,1.0.0.105,2,378842381,Professional,2.0.10.353,2.0.10.353,10/10/2018,10/10/2018 17:09,13:09:32,2.0.10.248,2,2,1,2,,,,,,,,TrainingProc,BlockList,28,1,Distractor2.bmp,2,0,,0,1,460112,401,,0,0,purple,400,1,400,5,vertical,purple,Distractor1.bmp,lime,Target1.bmp,blue,Distractor2.bmp,yellow,Distractor1.bmp,red,Distractor2.bmp,cyan,Distractor2.bmp,,,,TrialProc,,TrainingTrialList,0,1,-999999,1,460513,0,2,573,461086,Target1.bmp,lime,1,,,,2,3,28
KW_Experiment5A,10,1,"<?xml version=""1.0""?>\n<Clock xmlns:dt=""urn:schemas-microsoft-com:datatypes""><Description dt:dt=""string"">E-Prime Primary Realtime Clock</Description><StartTime><Timestamp dt:dt=""int"">0</Timestamp><DateUtc dt:dt=""string"">2018-10-10T17:09:31Z</DateUtc></StartTime><FrequencyChanges><FrequencyChange><Frequency dt:dt=""r8"">3215244</Frequency><Timestamp dt:dt=""r8"">5188698723450</Timestamp><Current dt:dt=""r8"">0</Current><DateUtc dt:dt=""string"">2018-10-10T17:09:31Z</DateUtc></FrequencyChange></FrequencyChanges></Clock>\n",KW_Experiment5A-10-1,59.946,1.0.0.105,2,378842381,Professional,2.0.10.353,2.0.10.353,10/10/2018,10/10/2018 17:09,13:09:32,2.0.10.248,2,2,1,2,,,,,,,,TrainingProc,BlockList,29,1,Distractor1.bmp,1,0,,0,1,462097,501,,0,0,cyan,500,2,500,,vertical,cyan,Distractor1.bmp,purple,Distractor1.bmp,red,Target1.bmp,blue,Distractor1.bmp,yellow,Distractor1.bmp,lime,Distractor2.bmp,,,,TrialProc,4,TrainingTrialList,0,1,-999999,1,462598,0,2,800,463398,Target1.bmp,red,1,,,,9,3,29
KW_Experiment5A,10,1,"<?xml version=""1.0""?>\n<Clock xmlns:dt=""urn:schemas-microsoft-com:datatypes""><Description dt:dt=""string"">E-Prime Primary Realtime Clock</Description><StartTime><Timestamp dt:dt=""int"">0</Timestamp><DateUtc dt:dt=""string"">2018-10-10T17:09:31Z</DateUtc></StartTime><FrequencyChanges><FrequencyChange><Frequency dt:dt=""r8"">3215244</Frequency><Timestamp dt:dt=""r8"">5188698723450</Timestamp><Current dt:dt=""r8"">0</Current><DateUtc dt:dt=""string"">2018-10-10T17:09:31Z</DateUtc></FrequencyChange></FrequencyChanges></Clock>\n",KW_Experiment5A-10-1,59.946,1.0.0.105,2,378842381,Professional,2.0.10.353,2.0.10.353,10/10/2018,10/10/2018 17:09,13:09:32,2.0.10.248,2,2,1,2,,,,,,,,TrainingProc,BlockList,30,1,Distractor2.bmp,2,0,,0,1,464416,400,,0,0,blue,400,1,400,3,vertical,lime,Target1.bmp,blue,Distractor2.bmp,yellow,Distractor2.bmp,purple,Distractor1.bmp,cyan,Distractor1.bmp,red,Distractor1.bmp,,,,TrialProc,,TrainingTrialList,0,1,-999999,0,464816,0,2,878,465694,Target1.bmp,lime,1,,,,1,3,30
KW_Experiment5A,10,1,"<?xml version=""1.0""?>\n<Clock xmlns:dt=""urn:schemas-microsoft-com:datatypes""><Description dt:dt=""string"">E-Prime Primary Realtime Clock</Description><StartTime><Timestamp dt:dt=""int"">0</Timestamp><DateUtc dt:dt=""string"">2018-10-10T17:09:31Z</DateUtc></StartTime><FrequencyChanges><FrequencyChange><Frequency dt:dt=""r8"">3215244</Frequency><Timestamp dt:dt=""r8"">5188698723450</Timestamp><Current dt:dt=""r8"">0</Current><DateUtc dt:dt=""string"">2018-10-10T17:09:31Z</DateUtc></FrequencyChange></FrequencyChanges></Clock>\n",KW_Experiment5A-10-1,59.946,1.0.0.105,2,378842381,Professional,2.0.10.353,2.0.10.353,10/10/2018,10/10/2018 17:09,13:09:32,2.0.10.248,2,2,1,2,,,,,,,,TrainingProc,BlockList,31,2,Distractor1.bmp,1,0,,0,1,466718,501,,0,0,purple,500,2,500,5,horizontal,purple,Distractor1.bmp,red,Distractor2.bmp,yellow,Distractor1.bmp,blue,Distractor1.bmp,lime,Target2.bmp,cyan,Distractor1.bmp,,,,TrialProc,,TrainingTrialList,1,2,-999999,1,467219,0,2,1203,468422,Target2.bmp,lime,2,,,,5,3,31
KW_Experiment5A,10,1,"<?xml version=""1.0""?>\n<Clock xmlns:dt=""urn:schemas-microsoft-com:datatypes""><Description dt:dt=""string"">E-Prime Primary Realtime Clock</Description><StartTime><Timestamp dt:dt=""int"">0</Timestamp><DateUtc dt:dt=""string"">2018-10-10T17:09:31Z</DateUtc></StartTime><FrequencyChanges><FrequencyChange><Frequency dt:dt=""r8"">3215244</Frequency><Timestamp dt:dt=""r8"">5188698723450</Timestamp><Current dt:dt=""r8"">0</Current><DateUtc dt:dt=""string"">2018-10-10T17:09:31Z</DateUtc></FrequencyChange></FrequencyChanges></Clock>\n",KW_Experiment5A-10-1,59.946,1.0.0.105,2,378842381,Professional,2.0.10.353,2.0.10.353,10/10/2018,10/10/2018 17:09,13:09:32,2.0.10.248,2,2,1,2,,,,,,,,TrainingProc,BlockList,32,1,Distractor1.bmp,1,0,,0,0,469437,401,,0,0,lime,400,1,400,,vertical,red,Target1.bmp,yellow,Distractor1.bmp,purple,Distractor1.bmp,blue,Distractor1.bmp,cyan,Distractor2.bmp,lime,Distractor2.bmp,,,,TrialProc,6,TrainingTrialList,1,1,-999999,1,469838,0,1,936,470774,Target1.bmp,red,1,,,,7,3,32
KW_Experiment5A,10,1,"<?xml version=""1.0""?>\n<Clock xmlns:dt=""urn:schemas-microsoft-com:datatypes""><Description dt:dt=""string"">E-Prime Primary Realtime Clock</Description><StartTime><Timestamp dt:dt=""int"">0</Timestamp><DateUtc dt:dt=""string"">2018-10-10T17:09:31Z</DateUtc></StartTime><FrequencyChanges><FrequencyChange><Frequency dt:dt=""r8"">3215244</Frequency><Timestamp dt:dt=""r8"">5188698723450</Timestamp><Current dt:dt=""r8"">0</Current><DateUtc dt:dt=""string"">2018-10-10T17:09:31Z</DateUtc></FrequencyChange></FrequencyChanges></Clock>\n",KW_Experiment5A-10-1,59.946,1.0.0.105,2,378842381,Professional,2.0.10.353,2.0.10.353,10/10/2018,10/10/2018 17:09,13:09:32,2.0.10.248,2,2,1,2,,,,,,,,TrainingProc,BlockList,33,2,Distractor1.bmp,1,0,,0,1,471790,400,,0,0,red,400,1,400,1,horizontal,red,Distractor1.bmp,cyan,Distractor2.bmp,yellow,Distractor1.bmp,purple,Distractor1.bmp,blue,Distractor1.bmp,lime,Target2.bmp,,,,TrialProc,,TrainingTrialList,0,2,-999999,0,472190,0,1,928,473118,Target2.bmp,lime,2,,,,6,3,33
KW_Experiment5A,10,1,"<?xml version=""1.0""?>\n<Clock xmlns:dt=""urn:schemas-microsoft-com:datatypes""><Description dt:dt=""string"">E-Prime Primary Realtime Clock</Description><StartTime><Timestamp dt:dt=""int"">0</Timestamp><DateUtc dt:dt=""string"">2018-10-10T17:09:31Z</DateUtc></StartTime><FrequencyChanges><FrequencyChange><Frequency dt:dt=""r8"">3215244</Frequency><Timestamp dt:dt=""r8"">5188698723450</Timestamp><Current dt:dt=""r8"">0</Current><DateUtc dt:dt=""string"">2018-10-10T17:09:31Z</DateUtc></FrequencyChange></FrequencyChanges></Clock>\n",KW_Experiment5A-10-1,59.946,1.0.0.105,2,378842381,Professional,2.0.10.353,2.0.10.353,10/10/2018,10/10/2018 17:09,13:09:32,2.0.10.248,2,2,1,2,,,,,,,,TrainingProc,BlockList,34,1,Distractor1.bmp,1,0,,0,1,474142,400,,0,0,purple,400,1,400,5,vertical,purple,Distractor2.bmp,blue,Distractor2.bmp,red,Distractor1.bmp,lime,Target1.bmp,yellow,Distractor1.bmp,cyan,Distractor1.bmp,,,,TrialProc,,TrainingTrialList,0,1,-999999,0,474542,0,2,792,475334,Target1.bmp,lime,1,,,,4,3,34
KW_Experiment5A,10,1,"<?xml version=""1.0""?>\n<Clock xmlns:dt=""urn:schemas-microsoft-com:datatypes""><Description dt:dt=""string"">E-Prime Primary Realtime Clock</Description><StartTime><Timestamp dt:dt=""int"">0</Timestamp><DateUtc dt:dt=""string"">2018-10-10T17:09:31Z</DateUtc></StartTime><FrequencyChanges><FrequencyChange><Frequency dt:dt=""r8"">3215244</Frequency><Timestamp dt:dt=""r8"">5188698723450</Timestamp><Current dt:dt=""r8"">0</Current><DateUtc dt:dt=""string"">2018-10-10T17:09:31Z</DateUtc></FrequencyChange></FrequencyChanges></Clock>\n",KW_Experiment5A-10-1,59.946,1.0.0.105,2,378842381,Professional,2.0.10.353,2.0.10.353,10/10/2018,10/10/2018 17:09,13:09:32,2.0.10.248,2,2,1,2,,,,,,,,TrainingProc,BlockList,35,2,Distractor1.bmp,1,0,,1,0,476360,401,,0,0,purple,400,1,400,,horizontal,purple,Distractor1.bmp,yellow,Distractor1.bmp,red,Target2.bmp,cyan,Distractor1.bmp,blue,Distractor2.bmp,lime,Distractor1.bmp,,,,TrialProc,5,TrainingTrialList,1,2,-999999,1,476761,0,2,709,477470,Target2.bmp,red,2,,,,9,3,35
KW_Experiment5A,10,1,"<?xml version=""1.0""?>\n<Clock xmlns:dt=""urn:schemas-microsoft-com:datatypes""><Description dt:dt=""string"">E-Prime Primary Realtime Clock</Description><StartTime><Timestamp dt:dt=""int"">0</Timestamp><DateUtc dt:dt=""string"">2018-10-10T17:09:31Z</DateUtc></StartTime><FrequencyChanges><FrequencyChange><Frequency dt:dt=""r8"">3215244</Frequency><Timestamp dt:dt=""r8"">5188698723450</Timestamp><Current dt:dt=""r8"">0</Current><DateUtc dt:dt=""string"">2018-10-10T17:09:31Z</DateUtc></FrequencyChange></FrequencyChanges></Clock>\n",KW_Experiment5A-10-1,59.946,1.0.0.105,2,378842381,Professional,2.0.10.353,2.0.10.353,10/10/2018,10/10/2018 17:09,13:09:32,2.0.10.248,2,2,1,2,,,,,,,,TrainingProc,BlockList,36,1,Distractor1.bmp,1,0,,0,1,478479,601,,0,0,cyan,600,3,600,4,vertical,cyan,Distractor1.bmp,yellow,Distractor1.bmp,lime,Target1.bmp,purple,Distractor1.bmp,red,Distractor2.bmp,blue,Distractor2.bmp,,,,TrialProc,,TrainingTrialList,0,1,-999999,1,479080,0,2,838,479918,Target1.bmp,lime,1,,,,3,3,36
KW_Experiment5A,10,1,"<?xml version=""1.0""?>\n<Clock xmlns:dt=""urn:schemas-microsoft-com:datatypes""><Description dt:dt=""string"">E-Prime Primary Realtime Clock</Description><StartTime><Timestamp dt:dt=""int"">0</Timestamp><DateUtc dt:dt=""string"">2018-10-10T17:09:31Z</DateUtc></StartTime><FrequencyChanges><FrequencyChange><Frequency dt:dt=""r8"">3215244</Frequency><Timestamp dt:dt=""r8"">5188698723450</Timestamp><Current dt:dt=""r8"">0</Current><DateUtc dt:dt=""string"">2018-10-10T17:09:31Z</DateUtc></FrequencyChange></FrequencyChanges></Clock>\n",KW_Experiment5A-10-1,59.946,1.0.0.105,2,378842381,Professional,2.0.10.353,2.0.10.353,10/10/2018,10/10/2018 17:09,13:09:32,2.0.10.248,2,2,1,2,,,,,,,,TrainingProc,BlockList,37,1,Distractor2.bmp,2,0,,0,1,480931,401,,0,0,lime,400,1,400,,vertical,lime,Distractor1.bmp,red,Target1.bmp,yellow,Distractor2.bmp,blue,Distractor2.bmp,purple,Distractor2.bmp,cyan,Distractor2.bmp,,,,TrialProc,6,TrainingTrialList,1,1,-999999,1,481332,0,1,722,482054,Target1.bmp,red,1,,,,8,3,37
KW_Experiment5A,10,1,"<?xml version=""1.0""?>\n<Clock xmlns:dt=""urn:schemas-microsoft-com:datatypes""><Description dt:dt=""string"">E-Prime Primary Realtime Clock</Description><StartTime><Timestamp dt:dt=""int"">0</Timestamp><DateUtc dt:dt=""string"">2018-10-10T17:09:31Z</DateUtc></StartTime><FrequencyChanges><FrequencyChange><Frequency dt:dt=""r8"">3215244</Frequency><Timestamp dt:dt=""r8"">5188698723450</Timestamp><Current dt:dt=""r8"">0</Current><DateUtc dt:dt=""string"">2018-10-10T17:09:31Z</DateUtc></FrequencyChange></FrequencyChanges></Clock>\n",KW_Experiment5A-10-1,59.946,1.0.0.105,2,378842381,Professional,2.0.10.353,2.0.10.353,10/10/2018,10/10/2018 17:09,13:09:32,2.0.10.248,2,2,1,2,,,,,,,,TrainingProc,BlockList,38,1,Distractor2.bmp,2,0,,0,1,483067,600,,0,0,yellow,600,3,600,,vertical,yellow,Distractor2.bmp,purple,Distractor2.bmp,cyan,Distractor2.bmp,blue,Distractor1.bmp,lime,Distractor2.bmp,red,Target1.bmp,,,,TrialProc,2,TrainingTrialList,1,1,-999999,0,483667,0,1,835,484502,Target1.bmp,red,1,,,,12,3,38
KW_Experiment5A,10,1,"<?xml version=""1.0""?>\n<Clock xmlns:dt=""urn:schemas-microsoft-com:datatypes""><Description dt:dt=""string"">E-Prime Primary Realtime Clock</Description><StartTime><Timestamp dt:dt=""int"">0</Timestamp><DateUtc dt:dt=""string"">2018-10-10T17:09:31Z</DateUtc></StartTime><FrequencyChanges><FrequencyChange><Frequency dt:dt=""r8"">3215244</Frequency><Timestamp dt:dt=""r8"">5188698723450</Timestamp><Current dt:dt=""r8"">0</Current><DateUtc dt:dt=""string"">2018-10-10T17:09:31Z</DateUtc></FrequencyChange></FrequencyChanges></Clock>\n",KW_Experiment5A-10-1,59.946,1.0.0.105,2,378842381,Professional,2.0.10.353,2.0.10.353,10/10/2018,10/10/2018 17:09,13:09:32,2.0.10.248,2,2,1,2,,,,,,,,TrainingProc,BlockList,39,1,Distractor1.bmp,1,0,,0,1,485519,400,,0,0,cyan,400,1,400,,vertical,cyan,Distractor2.bmp,blue,Distractor2.bmp,yellow,Distractor1.bmp,red,Target1.bmp,purple,Distractor1.bmp,lime,Distractor2.bmp,,,,TrialProc,4,TrainingTrialList,1,1,-999999,0,485919,0,1,639,486558,Target1.bmp,red,1,,,,10,3,39
KW_Experiment5A,10,1,"<?xml version=""1.0""?>\n<Clock xmlns:dt=""urn:schemas-microsoft-com:datatypes""><Description dt:dt=""string"">E-Prime Primary Realtime Clock</Description><StartTime><Timestamp dt:dt=""int"">0</Timestamp><DateUtc dt:dt=""string"">2018-10-10T17:09:31Z</DateUtc></StartTime><FrequencyChanges><FrequencyChange><Frequency dt:dt=""r8"">3215244</Frequency><Timestamp dt:dt=""r8"">5188698723450</Timestamp><Current dt:dt=""r8"">0</Current><DateUtc dt:dt=""string"">2018-10-10T17:09:31Z</DateUtc></FrequencyChange></FrequencyChanges></Clock>\n",KW_Experiment5A-10-1,59.946,1.0.0.105,2,378842381,Professional,2.0.10.353,2.0.10.353,10/10/2018,10/10/2018 17:09,13:09:32,2.0.10.248,2,2,1,2,,,,,,,,TrainingProc,BlockList,40,1,Distractor2.bmp,2,0,,0,1,487571,600,,0,0,purple,600,3,600,,vertical,red,Target1.bmp,lime,Distractor2.bmp,yellow,Distractor1.bmp,blue,Distractor1.bmp,cyan,Distractor1.bmp,purple,Distractor2.bmp,,,,TrialProc,5,TrainingTrialList,1,1,-999999,0,488171,0,1,587,488758,Target1.bmp,red,1,,,,7,3,40
KW_Experiment5A,10,1,"<?xml version=""1.0""?>\n<Clock xmlns:dt=""urn:schemas-microsoft-com:datatypes""><Description dt:dt=""string"">E-Prime Primary Realtime Clock</Description><StartTime><Timestamp dt:dt=""int"">0</Timestamp><DateUtc dt:dt=""string"">2018-10-10T17:09:31Z</DateUtc></StartTime><FrequencyChanges><FrequencyChange><Frequency dt:dt=""r8"">3215244</Frequency><Timestamp dt:dt=""r8"">5188698723450</Timestamp><Current dt:dt=""r8"">0</Current><DateUtc dt:dt=""string"">2018-10-10T17:09:31Z</DateUtc></FrequencyChange></FrequencyChanges></Clock>\n",KW_Experiment5A-10-1,59.946,1.0.0.105,2,378842381,Professional,2.0.10.353,2.0.10.353,10/10/2018,10/10/2018 17:09,13:09:32,2.0.10.248,2,2,1,2,,,,,,,,TrainingProc,BlockList,41,2,Distractor1.bmp,1,0,,0,1,489773,400,,0,0,cyan,400,1,400,,horizontal,cyan,Distractor1.bmp,red,Target2.bmp,blue,Distractor1.bmp,purple,Distractor1.bmp,lime,Distractor2.bmp,yellow,Distractor2.bmp,,,,TrialProc,4,TrainingTrialList,1,2,-999999,0,490173,0,2,697,490870,Target2.bmp,red,2,,,,8,3,41
KW_Experiment5A,10,1,"<?xml version=""1.0""?>\n<Clock xmlns:dt=""urn:schemas-microsoft-com:datatypes""><Description dt:dt=""string"">E-Prime Primary Realtime Clock</Description><StartTime><Timestamp dt:dt=""int"">0</Timestamp><DateUtc dt:dt=""string"">2018-10-10T17:09:31Z</DateUtc></StartTime><FrequencyChanges><FrequencyChange><Frequency dt:dt=""r8"">3215244</Frequency><Timestamp dt:dt=""r8"">5188698723450</Timestamp><Current dt:dt=""r8"">0</Current><DateUtc dt:dt=""string"">2018-10-10T17:09:31Z</DateUtc></FrequencyChange></FrequencyChanges></Clock>\n",KW_Experiment5A-10-1,59.946,1.0.0.105,2,378842381,Professional,2.0.10.353,2.0.10.353,10/10/2018,10/10/2018 17:09,13:09:32,2.0.10.248,2,2,1,2,,,,,,,,TrainingProc,BlockList,42,2,Distractor2.bmp,2,0,,1,0,491891,501,,0,0,purple,500,2,500,,horizontal,red,Target2.bmp,cyan,Distractor2.bmp,blue,Distractor2.bmp,lime,Distractor2.bmp,yellow,Distractor1.bmp,purple,Distractor2.bmp,,,,TrialProc,5,TrainingTrialList,1,2,-999999,1,492392,0,2,846,493238,Target2.bmp,red,2,,,,7,3,42
KW_Experiment5A,10,1,"<?xml version=""1.0""?>\n<Clock xmlns:dt=""urn:schemas-microsoft-com:datatypes""><Description dt:dt=""string"">E-Prime Primary Realtime Clock</Description><StartTime><Timestamp dt:dt=""int"">0</Timestamp><DateUtc dt:dt=""string"">2018-10-10T17:09:31Z</DateUtc></StartTime><FrequencyChanges><FrequencyChange><Frequency dt:dt=""r8"">3215244</Frequency><Timestamp dt:dt=""r8"">5188698723450</Timestamp><Current dt:dt=""r8"">0</Current><DateUtc dt:dt=""string"">2018-10-10T17:09:31Z</DateUtc></FrequencyChange></FrequencyChanges></Clock>\n",KW_Experiment5A-10-1,59.946,1.0.0.105,2,378842381,Professional,2.0.10.353,2.0.10.353,10/10/2018,10/10/2018 17:09,13:09:32,2.0.10.248,2,2,1,2,,,,,,,,TrainingProc,BlockList,43,1,Distractor2.bmp,2,0,,0,1,494260,601,,0,0,lime,600,3,600,,vertical,lime,Distractor2.bmp,purple,Distractor2.bmp,cyan,Distractor2.bmp,yellow,Distractor2.bmp,blue,Distractor1.bmp,red,Target1.bmp,,,,TrialProc,6,TrainingTrialList,1,1,-999999,1,494861,0,1,665,495526,Target1.bmp,red,1,,,,12,3,43
KW_Experiment5A,10,1,"<?xml version=""1.0""?>\n<Clock xmlns:dt=""urn:schemas-microsoft-com:datatypes""><Description dt:dt=""string"">E-Prime Primary Realtime Clock</Description><StartTime><Timestamp dt:dt=""int"">0</Timestamp><DateUtc dt:dt=""string"">2018-10-10T17:09:31Z</DateUtc></StartTime><FrequencyChanges><FrequencyChange><Frequency dt:dt=""r8"">3215244</Frequency><Timestamp dt:dt=""r8"">5188698723450</Timestamp><Current dt:dt=""r8"">0</Current><DateUtc dt:dt=""string"">2018-10-10T17:09:31Z</DateUtc></FrequencyChange></FrequencyChanges></Clock>\n",KW_Experiment5A-10-1,59.946,1.0.0.105,2,378842381,Professional,2.0.10.353,2.0.10.353,10/10/2018,10/10/2018 17:09,13:09:32,2.0.10.248,2,2,1,2,,,,,,,,TrainingProc,BlockList,44,1,Distractor1.bmp,1,0,,0,1,496546,500,,0,0,yellow,500,2,500,,vertical,yellow,Distractor1.bmp,cyan,Distractor1.bmp,red,Target1.bmp,purple,Distractor1.bmp,blue,Distractor1.bmp,lime,Distractor2.bmp,,,,TrialProc,2,TrainingTrialList,1,1,-999999,0,497046,0,1,624,497670,Target1.bmp,red,1,,,,9,3,44
KW_Experiment5A,10,1,"<?xml version=""1.0""?>\n<Clock xmlns:dt=""urn:schemas-microsoft-com:datatypes""><Description dt:dt=""string"">E-Prime Primary Realtime Clock</Description><StartTime><Timestamp dt:dt=""int"">0</Timestamp><DateUtc dt:dt=""string"">2018-10-10T17:09:31Z</DateUtc></StartTime><FrequencyChanges><FrequencyChange><Frequency dt:dt=""r8"">3215244</Frequency><Timestamp dt:dt=""r8"">5188698723450</Timestamp><Current dt:dt=""r8"">0</Current><DateUtc dt:dt=""string"">2018-10-10T17:09:31Z</DateUtc></FrequencyChange></FrequencyChanges></Clock>\n",KW_Experiment5A-10-1,59.946,1.0.0.105,2,378842381,Professional,2.0.10.353,2.0.10.353,10/10/2018,10/10/2018 17:09,13:09:32,2.0.10.248,2,2,1,2,,,,,,,,TrainingProc,BlockList,45,1,Distractor1.bmp,1,0,,0,1,498681,601,,0,0,cyan,600,3,600,,vertical,cyan,Distractor1.bmp,red,Target1.bmp,yellow,Distractor1.bmp,blue,Distractor2.bmp,lime,Distractor2.bmp,purple,Distractor1.bmp,,,,TrialProc,4,TrainingTrialList,1,1,-999999,1,499282,0,1,692,499974,Target1.bmp,red,1,,,,8,3,45
KW_Experiment5A,10,1,"<?xml version=""1.0""?>\n<Clock xmlns:dt=""urn:schemas-microsoft-com:datatypes""><Description dt:dt=""string"">E-Prime Primary Realtime Clock</Description><StartTime><Timestamp dt:dt=""int"">0</Timestamp><DateUtc dt:dt=""string"">2018-10-10T17:09:31Z</DateUtc></StartTime><FrequencyChanges><FrequencyChange><Frequency dt:dt=""r8"">3215244</Frequency><Timestamp dt:dt=""r8"">5188698723450</Timestamp><Current dt:dt=""r8"">0</Current><DateUtc dt:dt=""string"">2018-10-10T17:09:31Z</DateUtc></FrequencyChange></FrequencyChanges></Clock>\n",KW_Experiment5A-10-1,59.946,1.0.0.105,2,378842381,Professional,2.0.10.353,2.0.10.353,10/10/2018,10/10/2018 17:09,13:09:32,2.0.10.248,2,2,1,2,,,,,,,,TrainingProc,BlockList,46,2,Distractor2.bmp,2,0,,0,1,500983,401,,0,0,yellow,400,1,400,,horizontal,yellow,Distractor2.bmp,lime,Distractor2.bmp,blue,Distractor2.bmp,purple,Distractor2.bmp,cyan,Distractor2.bmp,red,Target2.bmp,,,,TrialProc,2,TrainingTrialList,1,2,-999999,1,501384,0,2,886,502270,Target2.bmp,red,2,,,,12,3,46
KW_Experiment5A,10,1,"<?xml version=""1.0""?>\n<Clock xmlns:dt=""urn:schemas-microsoft-com:datatypes""><Description dt:dt=""string"">E-Prime Primary Realtime Clock</Description><StartTime><Timestamp dt:dt=""int"">0</Timestamp><DateUtc dt:dt=""string"">2018-10-10T17:09:31Z</DateUtc></StartTime><FrequencyChanges><FrequencyChange><Frequency dt:dt=""r8"">3215244</Frequency><Timestamp dt:dt=""r8"">5188698723450</Timestamp><Current dt:dt=""r8"">0</Current><DateUtc dt:dt=""string"">2018-10-10T17:09:31Z</DateUtc></FrequencyChange></FrequencyChanges></Clock>\n",KW_Experiment5A-10-1,59.946,1.0.0.105,2,378842381,Professional,2.0.10.353,2.0.10.353,10/10/2018,10/10/2018 17:09,13:09:32,2.0.10.248,2,2,1,2,,,,,,,,TrainingProc,BlockList,47,2,Distractor1.bmp,1,0,,0,1,503285,401,,0,0,lime,400,1,400,,horizontal,lime,Distractor1.bmp,cyan,Distractor2.bmp,yellow,Distractor2.bmp,blue,Distractor2.bmp,red,Target2.bmp,purple,Distractor1.bmp,,,,TrialProc,6,TrainingTrialList,1,2,-999999,1,503686,0,2,816,504502,Target2.bmp,red,2,,,,11,3,47
KW_Experiment5A,10,1,"<?xml version=""1.0""?>\n<Clock xmlns:dt=""urn:schemas-microsoft-com:datatypes""><Description dt:dt=""string"">E-Prime Primary Realtime Clock</Description><StartTime><Timestamp dt:dt=""int"">0</Timestamp><DateUtc dt:dt=""string"">2018-10-10T17:09:31Z</DateUtc></StartTime><FrequencyChanges><FrequencyChange><Frequency dt:dt=""r8"">3215244</Frequency><Timestamp dt:dt=""r8"">5188698723450</Timestamp><Current dt:dt=""r8"">0</Current><DateUtc dt:dt=""string"">2018-10-10T17:09:31Z</DateUtc></FrequencyChange></FrequencyChanges></Clock>\n",KW_Experiment5A-10-1,59.946,1.0.0.105,2,378842381,Professional,2.0.10.353,2.0.10.353,10/10/2018,10/10/2018 17:09,13:09:32,2.0.10.248,2,2,1,2,,,,,,,,TrainingProc,BlockList,48,2,Distractor2.bmp,2,0,,0,1,505521,500,,0,0,purple,500,2,500,,horizontal,purple,Distractor1.bmp,yellow,Distractor2.bmp,lime,Distractor2.bmp,blue,Distractor2.bmp,red,Target2.bmp,cyan,Distractor2.bmp,,,,TrialProc,5,TrainingTrialList,1,2,-999999,0,506021,0,2,561,506582,Target2.bmp,red,2,,,,11,3,48
KW_Experiment5A,10,1,"<?xml version=""1.0""?>\n<Clock xmlns:dt=""urn:schemas-microsoft-com:datatypes""><Description dt:dt=""string"">E-Prime Primary Realtime Clock</Description><StartTime><Timestamp dt:dt=""int"">0</Timestamp><DateUtc dt:dt=""string"">2018-10-10T17:09:31Z</DateUtc></StartTime><FrequencyChanges><FrequencyChange><Frequency dt:dt=""r8"">3215244</Frequency><Timestamp dt:dt=""r8"">5188698723450</Timestamp><Current dt:dt=""r8"">0</Current><DateUtc dt:dt=""string"">2018-10-10T17:09:31Z</DateUtc></FrequencyChange></FrequencyChanges></Clock>\n",KW_Experiment5A-10-1,59.946,1.0.0.105,2,378842381,Professional,2.0.10.353,2.0.10.353,10/10/2018,10/10/2018 17:09,13:09:32,2.0.10.248,3,2,1,3,,,,,,,,TrainingProc,BlockList,1,2,Distractor2.bmp,2,0,,0,14,509908,501,,0,0,red,500,2,500,1,horizontal,red,Distractor2.bmp,lime,Target2.bmp,blue,Distractor2.bmp,cyan,Distractor2.bmp,yellow,Distractor2.bmp,purple,Distractor2.bmp,,,,TrialProc,,TrainingTrialList,1,2,-999999,1,510409,0,2,733,511142,Target2.bmp,lime,2,,,,2,4,49
KW_Experiment5A,10,1,"<?xml version=""1.0""?>\n<Clock xmlns:dt=""urn:schemas-microsoft-com:datatypes""><Description dt:dt=""string"">E-Prime Primary Realtime Clock</Description><StartTime><Timestamp dt:dt=""int"">0</Timestamp><DateUtc dt:dt=""string"">2018-10-10T17:09:31Z</DateUtc></StartTime><FrequencyChanges><FrequencyChange><Frequency dt:dt=""r8"">3215244</Frequency><Timestamp dt:dt=""r8"">5188698723450</Timestamp><Current dt:dt=""r8"">0</Current><DateUtc dt:dt=""string"">2018-10-10T17:09:31Z</DateUtc></FrequencyChange></FrequencyChanges></Clock>\n",KW_Experiment5A-10-1,59.946,1.0.0.105,2,378842381,Professional,2.0.10.353,2.0.10.353,10/10/2018,10/10/2018 17:09,13:09:32,2.0.10.248,3,2,1,3,,,,,,,,TrainingProc,BlockList,2,2,Distractor2.bmp,2,0,,0,1,512160,401,,0,0,lime,400,1,400,,horizontal,red,Target2.bmp,yellow,Distractor2.bmp,purple,Distractor1.bmp,cyan,Distractor2.bmp,blue,Distractor1.bmp,lime,Distractor1.bmp,,,,TrialProc,6,TrainingTrialList,1,2,-999999,1,512561,0,2,573,513134,Target2.bmp,red,2,,,,7,4,50
KW_Experiment5A,10,1,"<?xml version=""1.0""?>\n<Clock xmlns:dt=""urn:schemas-microsoft-com:datatypes""><Description dt:dt=""string"">E-Prime Primary Realtime Clock</Description><StartTime><Timestamp dt:dt=""int"">0</Timestamp><DateUtc dt:dt=""string"">2018-10-10T17:09:31Z</DateUtc></StartTime><FrequencyChanges><FrequencyChange><Frequency dt:dt=""r8"">3215244</Frequency><Timestamp dt:dt=""r8"">5188698723450</Timestamp><Current dt:dt=""r8"">0</Current><DateUtc dt:dt=""string"">2018-10-10T17:09:31Z</DateUtc></FrequencyChange></FrequencyChanges></Clock>\n",KW_Experiment5A-10-1,59.946,1.0.0.105,2,378842381,Professional,2.0.10.353,2.0.10.353,10/10/2018,10/10/2018 17:09,13:09:32,2.0.10.248,3,2,1,3,,,,,,,,TrainingProc,BlockList,3,1,Distractor2.bmp,2,0,,0,1,514145,401,,0,0,lime,400,1,400,,vertical,red,Target1.bmp,blue,Distractor2.bmp,yellow,Distractor2.bmp,purple,Distractor1.bmp,cyan,Distractor2.bmp,lime,Distractor1.bmp,,,,TrialProc,6,TrainingTrialList,1,1,-999999,1,514546,0,1,532,515078,Target1.bmp,red,1,,,,7,4,51
KW_Experiment5A,10,1,"<?xml version=""1.0""?>\n<Clock xmlns:dt=""urn:schemas-microsoft-com:datatypes""><Description dt:dt=""string"">E-Prime Primary Realtime Clock</Description><StartTime><Timestamp dt:dt=""int"">0</Timestamp><DateUtc dt:dt=""string"">2018-10-10T17:09:31Z</DateUtc></StartTime><FrequencyChanges><FrequencyChange><Frequency dt:dt=""r8"">3215244</Frequency><Timestamp dt:dt=""r8"">5188698723450</Timestamp><Current dt:dt=""r8"">0</Current><DateUtc dt:dt=""string"">2018-10-10T17:09:31Z</DateUtc></FrequencyChange></FrequencyChanges></Clock>\n",KW_Experiment5A-10-1,59.946,1.0.0.105,2,378842381,Professional,2.0.10.353,2.0.10.353,10/10/2018,10/10/2018 17:09,13:09:32,2.0.10.248,3,2,1,3,,,,,,,,TrainingProc,BlockList,4,1,Distractor2.bmp,2,0,,0,1,516097,400,,0,0,blue,400,1,400,,vertical,red,Target1.bmp,yellow,Distractor2.bmp,purple,Distractor2.bmp,cyan,Distractor2.bmp,lime,Distractor1.bmp,blue,Distractor2.bmp,,,,TrialProc,3,TrainingTrialList,1,1,-999999,0,516497,0,1,389,516886,Target1.bmp,red,1,,,,7,4,52
KW_Experiment5A,10,1,"<?xml version=""1.0""?>\n<Clock xmlns:dt=""urn:schemas-microsoft-com:datatypes""><Description dt:dt=""string"">E-Prime Primary Realtime Clock</Description><StartTime><Timestamp dt:dt=""int"">0</Timestamp><DateUtc dt:dt=""string"">2018-10-10T17:09:31Z</DateUtc></StartTime><FrequencyChanges><FrequencyChange><Frequency dt:dt=""r8"">3215244</Frequency><Timestamp dt:dt=""r8"">5188698723450</Timestamp><Current dt:dt=""r8"">0</Current><DateUtc dt:dt=""string"">2018-10-10T17:09:31Z</DateUtc></FrequencyChange></FrequencyChanges></Clock>\n",KW_Experiment5A-10-1,59.946,1.0.0.105,2,378842381,Professional,2.0.10.353,2.0.10.353,10/10/2018,10/10/2018 17:09,13:09:32,2.0.10.248,3,2,1,3,,,,,,,,TrainingProc,BlockList,5,2,Distractor1.bmp,1,0,,0,1,517899,400,,0,0,yellow,400,1,400,2,horizontal,yellow,Distractor1.bmp,red,Distractor1.bmp,purple,Distractor1.bmp,blue,Distractor2.bmp,cyan,Distractor2.bmp,lime,Target2.bmp,,,,TrialProc,,TrainingTrialList,1,2,-999999,0,518299,0,2,667,518966,Target2.bmp,lime,2,,,,6,4,53
KW_Experiment5A,10,1,"<?xml version=""1.0""?>\n<Clock xmlns:dt=""urn:schemas-microsoft-com:datatypes""><Description dt:dt=""string"">E-Prime Primary Realtime Clock</Description><StartTime><Timestamp dt:dt=""int"">0</Timestamp><DateUtc dt:dt=""string"">2018-10-10T17:09:31Z</DateUtc></StartTime><FrequencyChanges><FrequencyChange><Frequency dt:dt=""r8"">3215244</Frequency><Timestamp dt:dt=""r8"">5188698723450</Timestamp><Current dt:dt=""r8"">0</Current><DateUtc dt:dt=""string"">2018-10-10T17:09:31Z</DateUtc></FrequencyChange></FrequencyChanges></Clock>\n",KW_Experiment5A-10-1,59.946,1.0.0.105,2,378842381,Professional,2.0.10.353,2.0.10.353,10/10/2018,10/10/2018 17:09,13:09:32,2.0.10.248,3,2,1,3,,,,,,,,TrainingProc,BlockList,6,1,Distractor1.bmp,1,0,,0,1,519984,601,,0,0,lime,600,3,600,,vertical,lime,Distractor2.bmp,red,Target1.bmp,blue,Distractor1.bmp,yellow,Distractor2.bmp,purple,Distractor1.bmp,cyan,Distractor2.bmp,,,,TrialProc,6,TrainingTrialList,1,1,-999999,1,520585,0,1,621,521206,Target1.bmp,red,1,,,,8,4,54
KW_Experiment5A,10,1,"<?xml version=""1.0""?>\n<Clock xmlns:dt=""urn:schemas-microsoft-com:datatypes""><Description dt:dt=""string"">E-Prime Primary Realtime Clock</Description><StartTime><Timestamp dt:dt=""int"">0</Timestamp><DateUtc dt:dt=""string"">2018-10-10T17:09:31Z</DateUtc></StartTime><FrequencyChanges><FrequencyChange><Frequency dt:dt=""r8"">3215244</Frequency><Timestamp dt:dt=""r8"">5188698723450</Timestamp><Current dt:dt=""r8"">0</Current><DateUtc dt:dt=""string"">2018-10-10T17:09:31Z</DateUtc></FrequencyChange></FrequencyChanges></Clock>\n",KW_Experiment5A-10-1,59.946,1.0.0.105,2,378842381,Professional,2.0.10.353,2.0.10.353,10/10/2018,10/10/2018 17:09,13:09:32,2.0.10.248,3,2,1,3,,,,,,,,TrainingProc,BlockList,7,1,Distractor2.bmp,2,0,,0,0,522219,501,,0,0,lime,500,2,500,,vertical,lime,Distractor2.bmp,yellow,Distractor2.bmp,purple,Distractor2.bmp,blue,Distractor1.bmp,red,Target1.bmp,cyan,Distractor2.bmp,,,,TrialProc,6,TrainingTrialList,1,1,-999999,1,522720,0,1,830,523550,Target1.bmp,red,1,,,,11,4,55
KW_Experiment5A,10,1,"<?xml version=""1.0""?>\n<Clock xmlns:dt=""urn:schemas-microsoft-com:datatypes""><Description dt:dt=""string"">E-Prime Primary Realtime Clock</Description><StartTime><Timestamp dt:dt=""int"">0</Timestamp><DateUtc dt:dt=""string"">2018-10-10T17:09:31Z</DateUtc></StartTime><FrequencyChanges><FrequencyChange><Frequency dt:dt=""r8"">3215244</Frequency><Timestamp dt:dt=""r8"">5188698723450</Timestamp><Current dt:dt=""r8"">0</Current><DateUtc dt:dt=""string"">2018-10-10T17:09:31Z</DateUtc></FrequencyChange></FrequencyChanges></Clock>\n",KW_Experiment5A-10-1,59.946,1.0.0.105,2,378842381,Professional,2.0.10.353,2.0.10.353,10/10/2018,10/10/2018 17:09,13:09:32,2.0.10.248,3,2,1,3,,,,,,,,TrainingProc,BlockList,8,2,Distractor2.bmp,2,0,,0,1,524572,600,,0,0,blue,600,3,600,,horizontal,blue,Distractor1.bmp,purple,Distractor2.bmp,lime,Distractor2.bmp,red,Target2.bmp,cyan,Distractor2.bmp,yellow,Distractor1.bmp,,,,TrialProc,3,TrainingTrialList,0,2,-999999,0,525172,0,1,722,525894,Target2.bmp,red,2,,,,10,4,56
KW_Experiment5A,10,1,"<?xml version=""1.0""?>\n<Clock xmlns:dt=""urn:schemas-microsoft-com:datatypes""><Description dt:dt=""string"">E-Prime Primary Realtime Clock</Description><StartTime><Timestamp dt:dt=""int"">0</Timestamp><DateUtc dt:dt=""string"">2018-10-10T17:09:31Z</DateUtc></StartTime><FrequencyChanges><FrequencyChange><Frequency dt:dt=""r8"">3215244</Frequency><Timestamp dt:dt=""r8"">5188698723450</Timestamp><Current dt:dt=""r8"">0</Current><DateUtc dt:dt=""string"">2018-10-10T17:09:31Z</DateUtc></FrequencyChange></FrequencyChanges></Clock>\n",KW_Experiment5A-10-1,59.946,1.0.0.105,2,378842381,Professional,2.0.10.353,2.0.10.353,10/10/2018,10/10/2018 17:09,13:09:32,2.0.10.248,3,2,1,3,,,,,,,,TrainingProc,BlockList,9,1,Distractor2.bmp,2,0,,0,1,526924,600,,0,0,lime,600,3,600,,vertical,lime,Distractor2.bmp,red,Target1.bmp,blue,Distractor2.bmp,purple,Distractor2.bmp,yellow,Distractor1.bmp,cyan,Distractor2.bmp,,,,TrialProc,6,TrainingTrialList,1,1,-999999,0,527524,0,1,850,528374,Target1.bmp,red,1,,,,8,4,57
KW_Experiment5A,10,1,"<?xml version=""1.0""?>\n<Clock xmlns:dt=""urn:schemas-microsoft-com:datatypes""><Description dt:dt=""string"">E-Prime Primary Realtime Clock</Description><StartTime><Timestamp dt:dt=""int"">0</Timestamp><DateUtc dt:dt=""string"">2018-10-10T17:09:31Z</DateUtc></StartTime><FrequencyChanges><FrequencyChange><Frequency dt:dt=""r8"">3215244</Frequency><Timestamp dt:dt=""r8"">5188698723450</Timestamp><Current dt:dt=""r8"">0</Current><DateUtc dt:dt=""string"">2018-10-10T17:09:31Z</DateUtc></FrequencyChange></FrequencyChanges></Clock>\n",KW_Experiment5A-10-1,59.946,1.0.0.105,2,378842381,Professional,2.0.10.353,2.0.10.353,10/10/2018,10/10/2018 17:09,13:09:32,2.0.10.248,3,2,1,3,,,,,,,,TrainingProc,BlockList,10,1,Distractor1.bmp,1,0,,0,1,529393,600,,0,0,purple,600,3,600,5,vertical,purple,Distractor1.bmp,yellow,Distractor2.bmp,cyan,Distractor1.bmp,lime,Target1.bmp,red,Distractor1.bmp,blue,Distractor1.bmp,,,,TrialProc,,TrainingTrialList,0,1,-999999,0,529993,0,2,756,530749,Target1.bmp,lime,1,,,,4,4,58
KW_Experiment5A,10,1,"<?xml version=""1.0""?>\n<Clock xmlns:dt=""urn:schemas-microsoft-com:datatypes""><Description dt:dt=""string"">E-Prime Primary Realtime Clock</Description><StartTime><Timestamp dt:dt=""int"">0</Timestamp><DateUtc dt:dt=""string"">2018-10-10T17:09:31Z</DateUtc></StartTime><FrequencyChanges><FrequencyChange><Frequency dt:dt=""r8"">3215244</Frequency><Timestamp dt:dt=""r8"">5188698723450</Timestamp><Current dt:dt=""r8"">0</Current><DateUtc dt:dt=""string"">2018-10-10T17:09:31Z</DateUtc></FrequencyChange></FrequencyChanges></Clock>\n",KW_Experiment5A-10-1,59.946,1.0.0.105,2,378842381,Professional,2.0.10.353,2.0.10.353,10/10/2018,10/10/2018 17:09,13:09:32,2.0.10.248,3,2,1,3,,,,,,,,TrainingProc,BlockList,11,1,Distractor1.bmp,1,0,,0,1,531778,501,,0,0,purple,500,2,500,,vertical,purple,Distractor1.bmp,yellow,Distractor1.bmp,blue,Distractor1.bmp,cyan,Distractor1.bmp,lime,Distractor1.bmp,red,Target1.bmp,,,,TrialProc,5,TrainingTrialList,1,1,-999999,1,532279,0,1,758,533037,Target1.bmp,red,1,,,,12,4,59
KW_Experiment5A,10,1,"<?xml version=""1.0""?>\n<Clock xmlns:dt=""urn:schemas-microsoft-com:datatypes""><Description dt:dt=""string"">E-Prime Primary Realtime Clock</Description><StartTime><Timestamp dt:dt=""int"">0</Timestamp><DateUtc dt:dt=""string"">2018-10-10T17:09:31Z</DateUtc></StartTime><FrequencyChanges><FrequencyChange><Frequency dt:dt=""r8"">3215244</Frequency><Timestamp dt:dt=""r8"">5188698723450</Timestamp><Current dt:dt=""r8"">0</Current><DateUtc dt:dt=""string"">2018-10-10T17:09:31Z</DateUtc></FrequencyChange></FrequencyChanges></Clock>\n",KW_Experiment5A-10-1,59.946,1.0.0.105,2,378842381,Professional,2.0.10.353,2.0.10.353,10/10/2018,10/10/2018 17:09,13:09:32,2.0.10.248,3,2,1,3,,,,,,,,TrainingProc,BlockList,12,2,Distractor1.bmp,1,0,,0,1,534064,600,,0,0,yellow,600,3,600,2,horizontal,yellow,Distractor1.bmp,blue,Distractor2.bmp,lime,Target2.bmp,red,Distractor1.bmp,purple,Distractor2.bmp,cyan,Distractor2.bmp,,,,TrialProc,,TrainingTrialList,0,2,-999999,0,534664,0,1,693,535357,Target2.bmp,lime,2,,,,3,4,60
KW_Experiment5A,10,1,"<?xml version=""1.0""?>\n<Clock xmlns:dt=""urn:schemas-microsoft-com:datatypes""><Description dt:dt=""string"">E-Prime Primary Realtime Clock</Description><StartTime><Timestamp dt:dt=""int"">0</Timestamp><DateUtc dt:dt=""string"">2018-10-10T17:09:31Z</DateUtc></StartTime><FrequencyChanges><FrequencyChange><Frequency dt:dt=""r8"">3215244</Frequency><Timestamp dt:dt=""r8"">5188698723450</Timestamp><Current dt:dt=""r8"">0</Current><DateUtc dt:dt=""string"">2018-10-10T17:09:31Z</DateUtc></FrequencyChange></FrequencyChanges></Clock>\n",KW_Experiment5A-10-1,59.946,1.0.0.105,2,378842381,Professional,2.0.10.353,2.0.10.353,10/10/2018,10/10/2018 17:09,13:09:32,2.0.10.248,3,2,1,3,,,,,,,,TrainingProc,BlockList,13,1,Distractor2.bmp,2,0,,1,0,536382,501,,0,0,purple,500,2,500,,vertical,purple,Distractor2.bmp,lime,Distractor2.bmp,cyan,Distractor1.bmp,red,Target1.bmp,blue,Distractor2.bmp,yellow,Distractor1.bmp,,,,TrialProc,5,TrainingTrialList,1,1,-999999,1,536883,0,1,802,537685,Target1.bmp,red,1,,,,10,4,61
KW_Experiment5A,10,1,"<?xml version=""1.0""?>\n<Clock xmlns:dt=""urn:schemas-microsoft-com:datatypes""><Description dt:dt=""string"">E-Prime Primary Realtime Clock</Description><StartTime><Timestamp dt:dt=""int"">0</Timestamp><DateUtc dt:dt=""string"">2018-10-10T17:09:31Z</DateUtc></StartTime><FrequencyChanges><FrequencyChange><Frequency dt:dt=""r8"">3215244</Frequency><Timestamp dt:dt=""r8"">5188698723450</Timestamp><Current dt:dt=""r8"">0</Current><DateUtc dt:dt=""string"">2018-10-10T17:09:31Z</DateUtc></FrequencyChange></FrequencyChanges></Clock>\n",KW_Experiment5A-10-1,59.946,1.0.0.105,2,378842381,Professional,2.0.10.353,2.0.10.353,10/10/2018,10/10/2018 17:09,13:09:32,2.0.10.248,3,2,1,3,,,,,,,,TrainingProc,BlockList,14,1,Distractor1.bmp,1,0,,0,1,538701,501,,0,0,yellow,500,2,500,,vertical,yellow,Distractor1.bmp,blue,Distractor2.bmp,red,Target1.bmp,purple,Distractor1.bmp,cyan,Distractor1.bmp,lime,Distractor1.bmp,,,,TrialProc,2,TrainingTrialList,1,1,-999999,1,539202,0,1,1099,540301,Target1.bmp,red,1,,,,9,4,62
KW_Experiment5A,10,1,"<?xml version=""1.0""?>\n<Clock xmlns:dt=""urn:schemas-microsoft-com:datatypes""><Description dt:dt=""string"">E-Prime Primary Realtime Clock</Description><StartTime><Timestamp dt:dt=""int"">0</Timestamp><DateUtc dt:dt=""string"">2018-10-10T17:09:31Z</DateUtc></StartTime><FrequencyChanges><FrequencyChange><Frequency dt:dt=""r8"">3215244</Frequency><Timestamp dt:dt=""r8"">5188698723450</Timestamp><Current dt:dt=""r8"">0</Current><DateUtc dt:dt=""string"">2018-10-10T17:09:31Z</DateUtc></FrequencyChange></FrequencyChanges></Clock>\n",KW_Experiment5A-10-1,59.946,1.0.0.105,2,378842381,Professional,2.0.10.353,2.0.10.353,10/10/2018,10/10/2018 17:09,13:09:32,2.0.10.248,3,2,1,3,,,,,,,,TrainingProc,BlockList,15,2,Distractor2.bmp,2,0,,0,1,541320,601,,0,0,yellow,600,3,600,,horizontal,yellow,Distractor2.bmp,cyan,Distractor2.bmp,blue,Distractor1.bmp,purple,Distractor1.bmp,red,Target2.bmp,lime,Distractor2.bmp,,,,TrialProc,2,TrainingTrialList,1,2,-999999,1,541921,0,2,692,542613,Target2.bmp,red,2,,,,11,4,63
KW_Experiment5A,10,1,"<?xml version=""1.0""?>\n<Clock xmlns:dt=""urn:schemas-microsoft-com:datatypes""><Description dt:dt=""string"">E-Prime Primary Realtime Clock</Description><StartTime><Timestamp dt:dt=""int"">0</Timestamp><DateUtc dt:dt=""string"">2018-10-10T17:09:31Z</DateUtc></StartTime><FrequencyChanges><FrequencyChange><Frequency dt:dt=""r8"">3215244</Frequency><Timestamp dt:dt=""r8"">5188698723450</Timestamp><Current dt:dt=""r8"">0</Current><DateUtc dt:dt=""string"">2018-10-10T17:09:31Z</DateUtc></FrequencyChange></FrequencyChanges></Clock>\n",KW_Experiment5A-10-1,59.946,1.0.0.105,2,378842381,Professional,2.0.10.353,2.0.10.353,10/10/2018,10/10/2018 17:09,13:09:32,2.0.10.248,3,2,1,3,,,,,,,,TrainingProc,BlockList,16,2,Distractor2.bmp,2,0,,0,1,543639,601,,0,0,blue,600,3,600,,horizontal,blue,Distractor1.bmp,lime,Distractor2.bmp,red,Target2.bmp,cyan,Distractor2.bmp,purple,Distractor2.bmp,yellow,Distractor1.bmp,,,,TrialProc,3,TrainingTrialList,1,2,-999999,1,544240,0,2,669,544909,Target2.bmp,red,2,,,,9,4,64
KW_Experiment5A,10,1,"<?xml version=""1.0""?>\n<Clock xmlns:dt=""urn:schemas-microsoft-com:datatypes""><Description dt:dt=""string"">E-Prime Primary Realtime Clock</Description><StartTime><Timestamp dt:dt=""int"">0</Timestamp><DateUtc dt:dt=""string"">2018-10-10T17:09:31Z</DateUtc></StartTime><FrequencyChanges><FrequencyChange><Frequency dt:dt=""r8"">3215244</Frequency><Timestamp dt:dt=""r8"">5188698723450</Timestamp><Current dt:dt=""r8"">0</Current><DateUtc dt:dt=""string"">2018-10-10T17:09:31Z</DateUtc></FrequencyChange></FrequencyChanges></Clock>\n",KW_Experiment5A-10-1,59.946,1.0.0.105,2,378842381,Professional,2.0.10.353,2.0.10.353,10/10/2018,10/10/2018 17:09,13:09:32,2.0.10.248,3,2,1,3,,,,,,,,TrainingProc,BlockList,17,1,Distractor1.bmp,1,0,,0,1,545925,600,,0,0,cyan,600,3,600,,vertical,cyan,Distractor1.bmp,red,Target1.bmp,lime,Distractor1.bmp,blue,Distractor1.bmp,yellow,Distractor1.bmp,purple,Distractor2.bmp,,,,TrialProc,4,TrainingTrialList,1,1,-999999,0,546525,0,1,1000,547525,Target1.bmp,red,1,,,,8,4,65
KW_Experiment5A,10,1,"<?xml version=""1.0""?>\n<Clock xmlns:dt=""urn:schemas-microsoft-com:datatypes""><Description dt:dt=""string"">E-Prime Primary Realtime Clock</Description><StartTime><Timestamp dt:dt=""int"">0</Timestamp><DateUtc dt:dt=""string"">2018-10-10T17:09:31Z</DateUtc></StartTime><FrequencyChanges><FrequencyChange><Frequency dt:dt=""r8"">3215244</Frequency><Timestamp dt:dt=""r8"">5188698723450</Timestamp><Current dt:dt=""r8"">0</Current><DateUtc dt:dt=""string"">2018-10-10T17:09:31Z</DateUtc></FrequencyChange></FrequencyChanges></Clock>\n",KW_Experiment5A-10-1,59.946,1.0.0.105,2,378842381,Professional,2.0.10.353,2.0.10.353,10/10/2018,10/10/2018 17:09,13:09:32,2.0.10.248,3,2,1,3,,,,,,,,TrainingProc,BlockList,18,1,Distractor2.bmp,2,0,,0,1,548544,500,,0,0,lime,500,2,500,,vertical,lime,Distractor2.bmp,purple,Distractor1.bmp,red,Target1.bmp,cyan,Distractor2.bmp,yellow,Distractor1.bmp,blue,Distractor2.bmp,,,,TrialProc,6,TrainingTrialList,1,1,-999999,0,549044,0,1,1017,550061,Target1.bmp,red,1,,,,9,4,66
KW_Experiment5A,10,1,"<?xml version=""1.0""?>\n<Clock xmlns:dt=""urn:schemas-microsoft-com:datatypes""><Description dt:dt=""string"">E-Prime Primary Realtime Clock</Description><StartTime><Timestamp dt:dt=""int"">0</Timestamp><DateUtc dt:dt=""string"">2018-10-10T17:09:31Z</DateUtc></StartTime><FrequencyChanges><FrequencyChange><Frequency dt:dt=""r8"">3215244</Frequency><Timestamp dt:dt=""r8"">5188698723450</Timestamp><Current dt:dt=""r8"">0</Current><DateUtc dt:dt=""string"">2018-10-10T17:09:31Z</DateUtc></FrequencyChange></FrequencyChanges></Clock>\n",KW_Experiment5A-10-1,59.946,1.0.0.105,2,378842381,Professional,2.0.10.353,2.0.10.353,10/10/2018,10/10/2018 17:09,13:09:32,2.0.10.248,3,2,1,3,,,,,,,,TrainingProc,BlockList,19,1,Distractor2.bmp,2,0,,0,1,551079,501,,0,0,cyan,500,2,500,4,vertical,lime,Target1.bmp,cyan,Distractor2.bmp,purple,Distractor1.bmp,red,Distractor2.bmp,blue,Distractor1.bmp,yellow,Distractor2.bmp,,,,TrialProc,,TrainingTrialList,0,1,-999999,1,551580,0,2,833,552413,Target1.bmp,lime,1,,,,1,4,67
KW_Experiment5A,10,1,"<?xml version=""1.0""?>\n<Clock xmlns:dt=""urn:schemas-microsoft-com:datatypes""><Description dt:dt=""string"">E-Prime Primary Realtime Clock</Description><StartTime><Timestamp dt:dt=""int"">0</Timestamp><DateUtc dt:dt=""string"">2018-10-10T17:09:31Z</DateUtc></StartTime><FrequencyChanges><FrequencyChange><Frequency dt:dt=""r8"">3215244</Frequency><Timestamp dt:dt=""r8"">5188698723450</Timestamp><Current dt:dt=""r8"">0</Current><DateUtc dt:dt=""string"">2018-10-10T17:09:31Z</DateUtc></FrequencyChange></FrequencyChanges></Clock>\n",KW_Experiment5A-10-1,59.946,1.0.0.105,2,378842381,Professional,2.0.10.353,2.0.10.353,10/10/2018,10/10/2018 17:09,13:09:32,2.0.10.248,3,2,1,3,,,,,,,,TrainingProc,BlockList,20,1,Distractor2.bmp,2,0,,0,1,553432,500,,0,0,red,500,2,500,1,vertical,red,Distractor2.bmp,yellow,Distractor1.bmp,blue,Distractor2.bmp,cyan,Distractor1.bmp,lime,Target1.bmp,purple,Distractor2.bmp,,,,TrialProc,,TrainingTrialList,1,1,-999999,0,553932,0,1,1009,554941,Target1.bmp,lime,1,,,,5,4,68
KW_Experiment5A,10,1,"<?xml version=""1.0""?>\n<Clock xmlns:dt=""urn:schemas-microsoft-com:datatypes""><Description dt:dt=""string"">E-Prime Primary Realtime Clock</Description><StartTime><Timestamp dt:dt=""int"">0</Timestamp><DateUtc dt:dt=""string"">2018-10-10T17:09:31Z</DateUtc></StartTime><FrequencyChanges><FrequencyChange><Frequency dt:dt=""r8"">3215244</Frequency><Timestamp dt:dt=""r8"">5188698723450</Timestamp><Current dt:dt=""r8"">0</Current><DateUtc dt:dt=""string"">2018-10-10T17:09:31Z</DateUtc></FrequencyChange></FrequencyChanges></Clock>\n",KW_Experiment5A-10-1,59.946,1.0.0.105,2,378842381,Professional,2.0.10.353,2.0.10.353,10/10/2018,10/10/2018 17:09,13:09:32,2.0.10.248,3,2,1,3,,,,,,,,TrainingProc,BlockList,21,2,Distractor1.bmp,1,0,,0,1,555967,401,,0,0,purple,400,1,400,,horizontal,purple,Distractor1.bmp,yellow,Distractor2.bmp,blue,Distractor2.bmp,lime,Distractor1.bmp,cyan,Distractor2.bmp,red,Target2.bmp,,,,TrialProc,5,TrainingTrialList,1,2,-999999,1,556368,0,2,741,557109,Target2.bmp,red,2,,,,12,4,69
KW_Experiment5A,10,1,"<?xml version=""1.0""?>\n<Clock xmlns:dt=""urn:schemas-microsoft-com:datatypes""><Description dt:dt=""string"">E-Prime Primary Realtime Clock</Description><StartTime><Timestamp dt:dt=""int"">0</Timestamp><DateUtc dt:dt=""string"">2018-10-10T17:09:31Z</DateUtc></StartTime><FrequencyChanges><FrequencyChange><Frequency dt:dt=""r8"">3215244</Frequency><Timestamp dt:dt=""r8"">5188698723450</Timestamp><Current dt:dt=""r8"">0</Current><DateUtc dt:dt=""string"">2018-10-10T17:09:31Z</DateUtc></FrequencyChange></FrequencyChanges></Clock>\n",KW_Experiment5A-10-1,59.946,1.0.0.105,2,378842381,Professional,2.0.10.353,2.0.10.353,10/10/2018,10/10/2018 17:09,13:09:32,2.0.10.248,3,2,1,3,,,,,,,,TrainingProc,BlockList,22,1,Distractor1.bmp,1,0,,0,1,558136,500,,0,0,purple,500,2,500,,vertical,purple,Distractor2.bmp,blue,Distractor2.bmp,cyan,Distractor1.bmp,yellow,Distractor2.bmp,red,Target1.bmp,lime,Distractor1.bmp,,,,TrialProc,5,TrainingTrialList,1,1,-999999,0,558636,0,1,505,559141,Target1.bmp,red,1,,,,11,4,70
KW_Experiment5A,10,1,"<?xml version=""1.0""?>\n<Clock xmlns:dt=""urn:schemas-microsoft-com:datatypes""><Description dt:dt=""string"">E-Prime Primary Realtime Clock</Description><StartTime><Timestamp dt:dt=""int"">0</Timestamp><DateUtc dt:dt=""string"">2018-10-10T17:09:31Z</DateUtc></StartTime><FrequencyChanges><FrequencyChange><Frequency dt:dt=""r8"">3215244</Frequency><Timestamp dt:dt=""r8"">5188698723450</Timestamp><Current dt:dt=""r8"">0</Current><DateUtc dt:dt=""string"">2018-10-10T17:09:31Z</DateUtc></FrequencyChange></FrequencyChanges></Clock>\n",KW_Experiment5A-10-1,59.946,1.0.0.105,2,378842381,Professional,2.0.10.353,2.0.10.353,10/10/2018,10/10/2018 17:09,13:09:32,2.0.10.248,3,2,1,3,,,,,,,,TrainingProc,BlockList,23,2,Distractor2.bmp,2,0,,0,1,560154,501,,0,0,blue,500,2,500,,horizontal,blue,Distractor2.bmp,yellow,Distractor1.bmp,lime,Distractor2.bmp,purple,Distractor1.bmp,cyan,Distractor2.bmp,red,Target2.bmp,,,,TrialProc,3,TrainingTrialList,1,2,-999999,1,560655,0,2,598,561253,Target2.bmp,red,2,,,,12,4,71
KW_Experiment5A,10,1,"<?xml version=""1.0""?>\n<Clock xmlns:dt=""urn:schemas-microsoft-com:datatypes""><Description dt:dt=""string"">E-Prime Primary Realtime Clock</Description><StartTime><Timestamp dt:dt=""int"">0</Timestamp><DateUtc dt:dt=""string"">2018-10-10T17:09:31Z</DateUtc></StartTime><FrequencyChanges><FrequencyChange><Frequency dt:dt=""r8"">3215244</Frequency><Timestamp dt:dt=""r8"">5188698723450</Timestamp><Current dt:dt=""r8"">0</Current><DateUtc dt:dt=""string"">2018-10-10T17:09:31Z</DateUtc></FrequencyChange></FrequencyChanges></Clock>\n",KW_Experiment5A-10-1,59.946,1.0.0.105,2,378842381,Professional,2.0.10.353,2.0.10.353,10/10/2018,10/10/2018 17:09,13:09:32,2.0.10.248,3,2,1,3,,,,,,,,TrainingProc,BlockList,24,1,Distractor1.bmp,1,0,,0,1,562273,601,,0,0,lime,600,3,600,,vertical,lime,Distractor1.bmp,purple,Distractor2.bmp,cyan,Distractor2.bmp,red,Target1.bmp,blue,Distractor1.bmp,yellow,Distractor2.bmp,,,,TrialProc,6,TrainingTrialList,1,1,-999999,1,562874,0,1,747,563621,Target1.bmp,red,1,,,,10,4,72
KW_Experiment5A,10,1,"<?xml version=""1.0""?>\n<Clock xmlns:dt=""urn:schemas-microsoft-com:datatypes""><Description dt:dt=""string"">E-Prime Primary Realtime Clock</Description><StartTime><Timestamp dt:dt=""int"">0</Timestamp><DateUtc dt:dt=""string"">2018-10-10T17:09:31Z</DateUtc></StartTime><FrequencyChanges><FrequencyChange><Frequency dt:dt=""r8"">3215244</Frequency><Timestamp dt:dt=""r8"">5188698723450</Timestamp><Current dt:dt=""r8"">0</Current><DateUtc dt:dt=""string"">2018-10-10T17:09:31Z</DateUtc></FrequencyChange></FrequencyChanges></Clock>\n",KW_Experiment5A-10-1,59.946,1.0.0.105,2,378842381,Professional,2.0.10.353,2.0.10.353,10/10/2018,10/10/2018 17:09,13:09:32,2.0.10.248,3,2,1,3,,,,,,,,TrainingProc,BlockList,25,1,Distractor1.bmp,1,0,,0,1,564642,400,,0,0,yellow,400,1,400,2,vertical,yellow,Distractor1.bmp,red,Distractor2.bmp,cyan,Distractor2.bmp,blue,Distractor2.bmp,lime,Target1.bmp,purple,Distractor1.bmp,,,,TrialProc,,TrainingTrialList,1,1,-999999,0,565042,0,1,987,566029,Target1.bmp,lime,1,,,,5,5,73
KW_Experiment5A,10,1,"<?xml version=""1.0""?>\n<Clock xmlns:dt=""urn:schemas-microsoft-com:datatypes""><Description dt:dt=""string"">E-Prime Primary Realtime Clock</Description><StartTime><Timestamp dt:dt=""int"">0</Timestamp><DateUtc dt:dt=""string"">2018-10-10T17:09:31Z</DateUtc></StartTime><FrequencyChanges><FrequencyChange><Frequency dt:dt=""r8"">3215244</Frequency><Timestamp dt:dt=""r8"">5188698723450</Timestamp><Current dt:dt=""r8"">0</Current><DateUtc dt:dt=""string"">2018-10-10T17:09:31Z</DateUtc></FrequencyChange></FrequencyChanges></Clock>\n",KW_Experiment5A-10-1,59.946,1.0.0.105,2,378842381,Professional,2.0.10.353,2.0.10.353,10/10/2018,10/10/2018 17:09,13:09:32,2.0.10.248,3,2,1,3,,,,,,,,TrainingProc,BlockList,26,2,Distractor2.bmp,2,0,,0,1,567044,501,,0,0,purple,500,2,500,,horizontal,purple,Distractor2.bmp,yellow,Distractor2.bmp,blue,Distractor1.bmp,cyan,Distractor1.bmp,lime,Distractor2.bmp,red,Target2.bmp,,,,TrialProc,5,TrainingTrialList,1,2,-999999,1,567545,0,2,940,568485,Target2.bmp,red,2,,,,12,5,74
KW_Experiment5A,10,1,"<?xml version=""1.0""?>\n<Clock xmlns:dt=""urn:schemas-microsoft-com:datatypes""><Description dt:dt=""string"">E-Prime Primary Realtime Clock</Description><StartTime><Timestamp dt:dt=""int"">0</Timestamp><DateUtc dt:dt=""string"">2018-10-10T17:09:31Z</DateUtc></StartTime><FrequencyChanges><FrequencyChange><Frequency dt:dt=""r8"">3215244</Frequency><Timestamp dt:dt=""r8"">5188698723450</Timestamp><Current dt:dt=""r8"">0</Current><DateUtc dt:dt=""string"">2018-10-10T17:09:31Z</DateUtc></FrequencyChange></FrequencyChanges></Clock>\n",KW_Experiment5A-10-1,59.946,1.0.0.105,2,378842381,Professional,2.0.10.353,2.0.10.353,10/10/2018,10/10/2018 17:09,13:09:32,2.0.10.248,3,2,1,3,,,,,,,,TrainingProc,BlockList,27,1,Distractor1.bmp,1,0,,0,1,569513,601,,0,0,purple,600,3,600,,vertical,red,Target1.bmp,yellow,Distractor1.bmp,cyan,Distractor1.bmp,lime,Distractor2.bmp,blue,Distractor1.bmp,purple,Distractor2.bmp,,,,TrialProc,5,TrainingTrialList,1,1,-999999,1,570114,0,1,739,570853,Target1.bmp,red,1,,,,7,5,75
KW_Experiment5A,10,1,"<?xml version=""1.0""?>\n<Clock xmlns:dt=""urn:schemas-microsoft-com:datatypes""><Description dt:dt=""string"">E-Prime Primary Realtime Clock</Description><StartTime><Timestamp dt:dt=""int"">0</Timestamp><DateUtc dt:dt=""string"">2018-10-10T17:09:31Z</DateUtc></StartTime><FrequencyChanges><FrequencyChange><Frequency dt:dt=""r8"">3215244</Frequency><Timestamp dt:dt=""r8"">5188698723450</Timestamp><Current dt:dt=""r8"">0</Current><DateUtc dt:dt=""string"">2018-10-10T17:09:31Z</DateUtc></FrequencyChange></FrequencyChanges></Clock>\n",KW_Experiment5A-10-1,59.946,1.0.0.105,2,378842381,Professional,2.0.10.353,2.0.10.353,10/10/2018,10/10/2018 17:09,13:09:32,2.0.10.248,3,2,1,3,,,,,,,,TrainingProc,BlockList,28,1,Distractor1.bmp,1,0,,0,1,571882,500,,0,0,purple,500,2,500,5,vertical,purple,Distractor2.bmp,lime,Target1.bmp,blue,Distractor1.bmp,cyan,Distractor1.bmp,red,Distractor2.bmp,yellow,Distractor1.bmp,,,,TrialProc,,TrainingTrialList,1,1,-999999,0,572382,0,1,1127,573509,Target1.bmp,lime,1,,,,2,5,76
KW_Experiment5A,10,1,"<?xml version=""1.0""?>\n<Clock xmlns:dt=""urn:schemas-microsoft-com:datatypes""><Description dt:dt=""string"">E-Prime Primary Realtime Clock</Description><StartTime><Timestamp dt:dt=""int"">0</Timestamp><DateUtc dt:dt=""string"">2018-10-10T17:09:31Z</DateUtc></StartTime><FrequencyChanges><FrequencyChange><Frequency dt:dt=""r8"">3215244</Frequency><Timestamp dt:dt=""r8"">5188698723450</Timestamp><Current dt:dt=""r8"">0</Current><DateUtc dt:dt=""string"">2018-10-10T17:09:31Z</DateUtc></FrequencyChange></FrequencyChanges></Clock>\n",KW_Experiment5A-10-1,59.946,1.0.0.105,2,378842381,Professional,2.0.10.353,2.0.10.353,10/10/2018,10/10/2018 17:09,13:09:32,2.0.10.248,3,2,1,3,,,,,,,,TrainingProc,BlockList,29,1,Distractor2.bmp,2,0,,0,1,574534,401,,0,0,purple,400,1,400,5,vertical,purple,Distractor2.bmp,red,Distractor2.bmp,lime,Target1.bmp,cyan,Distractor2.bmp,blue,Distractor2.bmp,yellow,Distractor1.bmp,,,,TrialProc,,TrainingTrialList,0,1,-999999,1,574935,0,2,918,575853,Target1.bmp,lime,1,,,,3,5,77
KW_Experiment5A,10,1,"<?xml version=""1.0""?>\n<Clock xmlns:dt=""urn:schemas-microsoft-com:datatypes""><Description dt:dt=""string"">E-Prime Primary Realtime Clock</Description><StartTime><Timestamp dt:dt=""int"">0</Timestamp><DateUtc dt:dt=""string"">2018-10-10T17:09:31Z</DateUtc></StartTime><FrequencyChanges><FrequencyChange><Frequency dt:dt=""r8"">3215244</Frequency><Timestamp dt:dt=""r8"">5188698723450</Timestamp><Current dt:dt=""r8"">0</Current><DateUtc dt:dt=""string"">2018-10-10T17:09:31Z</DateUtc></FrequencyChange></FrequencyChanges></Clock>\n",KW_Experiment5A-10-1,59.946,1.0.0.105,2,378842381,Professional,2.0.10.353,2.0.10.353,10/10/2018,10/10/2018 17:09,13:09:32,2.0.10.248,3,2,1,3,,,,,,,,TrainingProc,BlockList,30,2,Distractor1.bmp,1,0,,0,1,576870,400,,0,0,cyan,400,1,400,,horizontal,cyan,Distractor1.bmp,yellow,Distractor2.bmp,lime,Distractor2.bmp,purple,Distractor1.bmp,red,Target2.bmp,blue,Distractor1.bmp,,,,TrialProc,4,TrainingTrialList,1,2,-999999,0,577270,0,2,927,578197,Target2.bmp,red,2,,,,11,5,78
KW_Experiment5A,10,1,"<?xml version=""1.0""?>\n<Clock xmlns:dt=""urn:schemas-microsoft-com:datatypes""><Description dt:dt=""string"">E-Prime Primary Realtime Clock</Description><StartTime><Timestamp dt:dt=""int"">0</Timestamp><DateUtc dt:dt=""string"">2018-10-10T17:09:31Z</DateUtc></StartTime><FrequencyChanges><FrequencyChange><Frequency dt:dt=""r8"">3215244</Frequency><Timestamp dt:dt=""r8"">5188698723450</Timestamp><Current dt:dt=""r8"">0</Current><DateUtc dt:dt=""string"">2018-10-10T17:09:31Z</DateUtc></FrequencyChange></FrequencyChanges></Clock>\n",KW_Experiment5A-10-1,59.946,1.0.0.105,2,378842381,Professional,2.0.10.353,2.0.10.353,10/10/2018,10/10/2018 17:09,13:09:32,2.0.10.248,3,2,1,3,,,,,,,,TrainingProc,BlockList,31,2,Distractor1.bmp,1,0,,0,1,579222,601,,0,0,yellow,600,3,600,,horizontal,yellow,Distractor1.bmp,cyan,Distractor1.bmp,purple,Distractor1.bmp,lime,Distractor1.bmp,red,Target2.bmp,blue,Distractor1.bmp,,,,TrialProc,2,TrainingTrialList,1,2,-999999,1,579823,0,2,782,580605,Target2.bmp,red,2,,,,11,5,79
KW_Experiment5A,10,1,"<?xml version=""1.0""?>\n<Clock xmlns:dt=""urn:schemas-microsoft-com:datatypes""><Description dt:dt=""string"">E-Prime Primary Realtime Clock</Description><StartTime><Timestamp dt:dt=""int"">0</Timestamp><DateUtc dt:dt=""string"">2018-10-10T17:09:31Z</DateUtc></StartTime><FrequencyChanges><FrequencyChange><Frequency dt:dt=""r8"">3215244</Frequency><Timestamp dt:dt=""r8"">5188698723450</Timestamp><Current dt:dt=""r8"">0</Current><DateUtc dt:dt=""string"">2018-10-10T17:09:31Z</DateUtc></FrequencyChange></FrequencyChanges></Clock>\n",KW_Experiment5A-10-1,59.946,1.0.0.105,2,378842381,Professional,2.0.10.353,2.0.10.353,10/10/2018,10/10/2018 17:09,13:09:32,2.0.10.248,3,2,1,3,,,,,,,,TrainingProc,BlockList,32,1,Distractor2.bmp,2,0,,0,1,581624,401,,0,0,yellow,400,1,400,,vertical,yellow,Distractor1.bmp,red,Target1.bmp,blue,Distractor2.bmp,purple,Distractor1.bmp,lime,Distractor1.bmp,cyan,Distractor1.bmp,,,,TrialProc,2,TrainingTrialList,1,1,-999999,1,582025,0,1,644,582669,Target1.bmp,red,1,,,,8,5,80
KW_Experiment5A,10,1,"<?xml version=""1.0""?>\n<Clock xmlns:dt=""urn:schemas-microsoft-com:datatypes""><Description dt:dt=""string"">E-Prime Primary Realtime Clock</Description><StartTime><Timestamp dt:dt=""int"">0</Timestamp><DateUtc dt:dt=""string"">2018-10-10T17:09:31Z</DateUtc></StartTime><FrequencyChanges><FrequencyChange><Frequency dt:dt=""r8"">3215244</Frequency><Timestamp dt:dt=""r8"">5188698723450</Timestamp><Current dt:dt=""r8"">0</Current><DateUtc dt:dt=""string"">2018-10-10T17:09:31Z</DateUtc></FrequencyChange></FrequencyChanges></Clock>\n",KW_Experiment5A-10-1,59.946,1.0.0.105,2,378842381,Professional,2.0.10.353,2.0.10.353,10/10/2018,10/10/2018 17:09,13:09:32,2.0.10.248,3,2,1,3,,,,,,,,TrainingProc,BlockList,33,2,Distractor1.bmp,1,0,,0,1,583693,600,,0,0,blue,600,3,600,,horizontal,red,Target2.bmp,cyan,Distractor1.bmp,purple,Distractor1.bmp,yellow,Distractor1.bmp,lime,Distractor2.bmp,blue,Distractor2.bmp,,,,TrialProc,3,TrainingTrialList,1,2,-999999,0,584293,0,2,752,585045,Target2.bmp,red,2,,,,7,5,81
KW_Experiment5A,10,1,"<?xml version=""1.0""?>\n<Clock xmlns:dt=""urn:schemas-microsoft-com:datatypes""><Description dt:dt=""string"">E-Prime Primary Realtime Clock</Description><StartTime><Timestamp dt:dt=""int"">0</Timestamp><DateUtc dt:dt=""string"">2018-10-10T17:09:31Z</DateUtc></StartTime><FrequencyChanges><FrequencyChange><Frequency dt:dt=""r8"">3215244</Frequency><Timestamp dt:dt=""r8"">5188698723450</Timestamp><Current dt:dt=""r8"">0</Current><DateUtc dt:dt=""string"">2018-10-10T17:09:31Z</DateUtc></FrequencyChange></FrequencyChanges></Clock>\n",KW_Experiment5A-10-1,59.946,1.0.0.105,2,378842381,Professional,2.0.10.353,2.0.10.353,10/10/2018,10/10/2018 17:09,13:09:32,2.0.10.248,3,2,1,3,,,,,,,,TrainingProc,BlockList,34,2,Distractor2.bmp,2,0,,0,1,586062,500,,0,0,lime,500,2,500,,horizontal,lime,Distractor2.bmp,yellow,Distractor1.bmp,blue,Distractor1.bmp,purple,Distractor2.bmp,cyan,Distractor2.bmp,red,Target2.bmp,,,,TrialProc,6,TrainingTrialList,1,2,-999999,0,586562,0,2,699,587261,Target2.bmp,red,2,,,,12,5,82
KW_Experiment5A,10,1,"<?xml version=""1.0""?>\n<Clock xmlns:dt=""urn:schemas-microsoft-com:datatypes""><Description dt:dt=""string"">E-Prime Primary Realtime Clock</Description><StartTime><Timestamp dt:dt=""int"">0</Timestamp><DateUtc dt:dt=""string"">2018-10-10T17:09:31Z</DateUtc></StartTime><FrequencyChanges><FrequencyChange><Frequency dt:dt=""r8"">3215244</Frequency><Timestamp dt:dt=""r8"">5188698723450</Timestamp><Current dt:dt=""r8"">0</Current><DateUtc dt:dt=""string"">2018-10-10T17:09:31Z</DateUtc></FrequencyChange></FrequencyChanges></Clock>\n",KW_Experiment5A-10-1,59.946,1.0.0.105,2,378842381,Professional,2.0.10.353,2.0.10.353,10/10/2018,10/10/2018 17:09,13:09:32,2.0.10.248,3,2,1,3,,,,,,,,TrainingProc,BlockList,35,2,Distractor2.bmp,2,0,,0,1,588280,501,,0,0,blue,500,2,500,,horizontal,blue,Distractor1.bmp,lime,Distractor1.bmp,red,Target2.bmp,cyan,Distractor2.bmp,purple,Distractor2.bmp,yellow,Distractor2.bmp,,,,TrialProc,3,TrainingTrialList,1,2,-999999,1,588781,0,2,720,589501,Target2.bmp,red,2,,,,9,5,83
KW_Experiment5A,10,1,"<?xml version=""1.0""?>\n<Clock xmlns:dt=""urn:schemas-microsoft-com:datatypes""><Description dt:dt=""string"">E-Prime Primary Realtime Clock</Description><StartTime><Timestamp dt:dt=""int"">0</Timestamp><DateUtc dt:dt=""string"">2018-10-10T17:09:31Z</DateUtc></StartTime><FrequencyChanges><FrequencyChange><Frequency dt:dt=""r8"">3215244</Frequency><Timestamp dt:dt=""r8"">5188698723450</Timestamp><Current dt:dt=""r8"">0</Current><DateUtc dt:dt=""string"">2018-10-10T17:09:31Z</DateUtc></FrequencyChange></FrequencyChanges></Clock>\n",KW_Experiment5A-10-1,59.946,1.0.0.105,2,378842381,Professional,2.0.10.353,2.0.10.353,10/10/2018,10/10/2018 17:09,13:09:32,2.0.10.248,3,2,1,3,,,,,,,,TrainingProc,BlockList,36,2,Distractor1.bmp,1,0,,0,1,590516,600,,0,0,blue,600,3,600,,horizontal,blue,Distractor1.bmp,cyan,Distractor2.bmp,yellow,Distractor2.bmp,red,Target2.bmp,purple,Distractor1.bmp,lime,Distractor2.bmp,,,,TrialProc,3,TrainingTrialList,1,2,-999999,0,591116,0,2,673,591789,Target2.bmp,red,2,,,,10,5,84
KW_Experiment5A,10,1,"<?xml version=""1.0""?>\n<Clock xmlns:dt=""urn:schemas-microsoft-com:datatypes""><Description dt:dt=""string"">E-Prime Primary Realtime Clock</Description><StartTime><Timestamp dt:dt=""int"">0</Timestamp><DateUtc dt:dt=""string"">2018-10-10T17:09:31Z</DateUtc></StartTime><FrequencyChanges><FrequencyChange><Frequency dt:dt=""r8"">3215244</Frequency><Timestamp dt:dt=""r8"">5188698723450</Timestamp><Current dt:dt=""r8"">0</Current><DateUtc dt:dt=""string"">2018-10-10T17:09:31Z</DateUtc></FrequencyChange></FrequencyChanges></Clock>\n",KW_Experiment5A-10-1,59.946,1.0.0.105,2,378842381,Professional,2.0.10.353,2.0.10.353,10/10/2018,10/10/2018 17:09,13:09:32,2.0.10.248,3,2,1,3,,,,,,,,TrainingProc,BlockList,37,2,Distractor1.bmp,1,0,,0,1,592801,601,,0,0,lime,600,3,600,,horizontal,lime,Distractor1.bmp,purple,Distractor1.bmp,blue,Distractor1.bmp,red,Target2.bmp,cyan,Distractor1.bmp,yellow,Distractor1.bmp,,,,TrialProc,6,TrainingTrialList,1,2,-999999,1,593402,0,2,571,593973,Target2.bmp,red,2,,,,10,5,85
KW_Experiment5A,10,1,"<?xml version=""1.0""?>\n<Clock xmlns:dt=""urn:schemas-microsoft-com:datatypes""><Description dt:dt=""string"">E-Prime Primary Realtime Clock</Description><StartTime><Timestamp dt:dt=""int"">0</Timestamp><DateUtc dt:dt=""string"">2018-10-10T17:09:31Z</DateUtc></StartTime><FrequencyChanges><FrequencyChange><Frequency dt:dt=""r8"">3215244</Frequency><Timestamp dt:dt=""r8"">5188698723450</Timestamp><Current dt:dt=""r8"">0</Current><DateUtc dt:dt=""string"">2018-10-10T17:09:31Z</DateUtc></FrequencyChange></FrequencyChanges></Clock>\n",KW_Experiment5A-10-1,59.946,1.0.0.105,2,378842381,Professional,2.0.10.353,2.0.10.353,10/10/2018,10/10/2018 17:09,13:09:32,2.0.10.248,3,2,1,3,,,,,,,,TrainingProc,BlockList,38,1,Distractor1.bmp,1,0,,0,1,594987,600,,0,0,cyan,600,3,600,,vertical,cyan,Distractor1.bmp,red,Target1.bmp,purple,Distractor1.bmp,lime,Distractor1.bmp,blue,Distractor1.bmp,yellow,Distractor2.bmp,,,,TrialProc,4,TrainingTrialList,1,1,-999999,0,595587,0,1,890,596477,Target1.bmp,red,1,,,,8,5,86
KW_Experiment5A,10,1,"<?xml version=""1.0""?>\n<Clock xmlns:dt=""urn:schemas-microsoft-com:datatypes""><Description dt:dt=""string"">E-Prime Primary Realtime Clock</Description><StartTime><Timestamp dt:dt=""int"">0</Timestamp><DateUtc dt:dt=""string"">2018-10-10T17:09:31Z</DateUtc></StartTime><FrequencyChanges><FrequencyChange><Frequency dt:dt=""r8"">3215244</Frequency><Timestamp dt:dt=""r8"">5188698723450</Timestamp><Current dt:dt=""r8"">0</Current><DateUtc dt:dt=""string"">2018-10-10T17:09:31Z</DateUtc></FrequencyChange></FrequencyChanges></Clock>\n",KW_Experiment5A-10-1,59.946,1.0.0.105,2,378842381,Professional,2.0.10.353,2.0.10.353,10/10/2018,10/10/2018 17:09,13:09:32,2.0.10.248,3,2,1,3,,,,,,,,TrainingProc,BlockList,39,2,Distractor1.bmp,1,0,,0,1,597489,500,,0,0,purple,500,2,500,,horizontal,purple,Distractor1.bmp,blue,Distractor2.bmp,yellow,Distractor2.bmp,lime,Distractor1.bmp,cyan,Distractor2.bmp,red,Target2.bmp,,,,TrialProc,5,TrainingTrialList,1,2,-999999,0,597989,0,2,824,598813,Target2.bmp,red,2,,,,12,5,87
KW_Experiment5A,10,1,"<?xml version=""1.0""?>\n<Clock xmlns:dt=""urn:schemas-microsoft-com:datatypes""><Description dt:dt=""string"">E-Prime Primary Realtime Clock</Description><StartTime><Timestamp dt:dt=""int"">0</Timestamp><DateUtc dt:dt=""string"">2018-10-10T17:09:31Z</DateUtc></StartTime><FrequencyChanges><FrequencyChange><Frequency dt:dt=""r8"">3215244</Frequency><Timestamp dt:dt=""r8"">5188698723450</Timestamp><Current dt:dt=""r8"">0</Current><DateUtc dt:dt=""string"">2018-10-10T17:09:31Z</DateUtc></FrequencyChange></FrequencyChanges></Clock>\n",KW_Experiment5A-10-1,59.946,1.0.0.105,2,378842381,Professional,2.0.10.353,2.0.10.353,10/10/2018,10/10/2018 17:09,13:09:32,2.0.10.248,3,2,1,3,,,,,,,,TrainingProc,BlockList,40,1,Distractor1.bmp,1,0,,0,1,599824,401,,0,0,yellow,400,1,400,,vertical,red,Target1.bmp,lime,Distractor1.bmp,purple,Distractor2.bmp,blue,Distractor2.bmp,cyan,Distractor2.bmp,yellow,Distractor2.bmp,,,,TrialProc,2,TrainingTrialList,1,1,-999999,1,600225,0,1,1044,601269,Target1.bmp,red,1,,,,7,5,88
KW_Experiment5A,10,1,"<?xml version=""1.0""?>\n<Clock xmlns:dt=""urn:schemas-microsoft-com:datatypes""><Description dt:dt=""string"">E-Prime Primary Realtime Clock</Description><StartTime><Timestamp dt:dt=""int"">0</Timestamp><DateUtc dt:dt=""string"">2018-10-10T17:09:31Z</DateUtc></StartTime><FrequencyChanges><FrequencyChange><Frequency dt:dt=""r8"">3215244</Frequency><Timestamp dt:dt=""r8"">5188698723450</Timestamp><Current dt:dt=""r8"">0</Current><DateUtc dt:dt=""string"">2018-10-10T17:09:31Z</DateUtc></FrequencyChange></FrequencyChanges></Clock>\n",KW_Experiment5A-10-1,59.946,1.0.0.105,2,378842381,Professional,2.0.10.353,2.0.10.353,10/10/2018,10/10/2018 17:09,13:09:32,2.0.10.248,3,2,1,3,,,,,,,,TrainingProc,BlockList,41,2,Distractor2.bmp,2,0,,0,1,602293,601,,0,0,cyan,600,3,600,,horizontal,cyan,Distractor1.bmp,yellow,Distractor2.bmp,lime,Distractor1.bmp,blue,Distractor2.bmp,red,Target2.bmp,purple,Distractor2.bmp,,,,TrialProc,4,TrainingTrialList,1,2,-999999,1,602894,0,2,895,603789,Target2.bmp,red,2,,,,11,5,89
KW_Experiment5A,10,1,"<?xml version=""1.0""?>\n<Clock xmlns:dt=""urn:schemas-microsoft-com:datatypes""><Description dt:dt=""string"">E-Prime Primary Realtime Clock</Description><StartTime><Timestamp dt:dt=""int"">0</Timestamp><DateUtc dt:dt=""string"">2018-10-10T17:09:31Z</DateUtc></StartTime><FrequencyChanges><FrequencyChange><Frequency dt:dt=""r8"">3215244</Frequency><Timestamp dt:dt=""r8"">5188698723450</Timestamp><Current dt:dt=""r8"">0</Current><DateUtc dt:dt=""string"">2018-10-10T17:09:31Z</DateUtc></FrequencyChange></FrequencyChanges></Clock>\n",KW_Experiment5A-10-1,59.946,1.0.0.105,2,378842381,Professional,2.0.10.353,2.0.10.353,10/10/2018,10/10/2018 17:09,13:09:32,2.0.10.248,3,2,1,3,,,,,,,,TrainingProc,BlockList,42,2,Distractor1.bmp,1,0,,0,1,604812,501,,0,0,yellow,500,2,500,2,horizontal,yellow,Distractor1.bmp,purple,Distractor1.bmp,cyan,Distractor1.bmp,lime,Target2.bmp,red,Distractor1.bmp,blue,Distractor2.bmp,,,,TrialProc,,TrainingTrialList,0,2,-999999,1,605313,0,1,1140,606453,Target2.bmp,lime,2,,,,4,5,90
