ExperimentName,Subject,Session,Clock.Information,DataFile.Basename,Display.RefreshRate,ExperimentVersion,Group,RandomSeed,RuntimeCapabilities,RuntimeVersion,RuntimeVersionExpected,SessionDate,SessionStartDateTimeUtc,SessionTime,StudioVersion,Block,BlockList,BlockList.Cycle,BlockList.Sample,PostTestQ1.RESP,PostTestQ1CJ.RESP,PostTestQ2.RESP,PostTestQ2CJ.RESP,PostTestQ3.RESP,PostTestQ3CJ.RESP,PostTestSlide.RESP,Procedure[Block],Running[Block],Trial,CorrectResponse,Distractor,DistractorList,Fixation.ACC,Fixation.CRESP,Fixation.DurationError,Fixation.OnsetDelay,Fixation.OnsetTime,Fixation.OnsetToOnsetTime,Fixation.RESP,Fixation.RT,Fixation.RTTime,ItemColor,Jitter,JitterList,JitterTime,Lime0List,Orientation,Pos1Color,Pos1Item,Pos2Color,Pos2Item,Pos3Color,Pos3Item,Pos4Color,Pos4Item,Pos5Color,Pos5Item,Pos6Color,Pos6Item,PracticeTrialList,PracticeTrialList.Cycle,PracticeTrialList.Sample,Procedure[Trial],Red0List,Running[Trial],Stimulus.ACC,Stimulus.CRESP,Stimulus.DurationError,Stimulus.OnsetDelay,Stimulus.OnsetTime,Stimulus.OnsetToOnsetTime,Stimulus.RESP,Stimulus.RT,Stimulus.RTTime,Target,TargetColor,TargetList,TestTrialList,TestTrialList.Cycle,TestTrialList.Sample,TrainingTrialList,TrainingTrialList.Cycle,TrainingTrialList.Sample
KW_Experiment5A,18,1,"<?xml version=""1.0""?>\n<Clock xmlns:dt=""urn:schemas-microsoft-com:datatypes""><Description dt:dt=""string"">E-Prime Primary Realtime Clock</Description><StartTime><Timestamp dt:dt=""int"">0</Timestamp><DateUtc dt:dt=""string"">2018-10-11T21:17:35Z</DateUtc></StartTime><FrequencyChanges><FrequencyChange><Frequency dt:dt=""r8"">3215244</Frequency><Timestamp dt:dt=""r8"">5514343093876</Timestamp><Current dt:dt=""r8"">0</Current><DateUtc dt:dt=""string"">2018-10-11T21:17:35Z</DateUtc></FrequencyChange></FrequencyChanges></Clock>\n",KW_Experiment5A-18-1,59.944,1.0.0.105,2,-394305907,Professional,2.0.10.353,2.0.10.353,10/11/2018,10/11/2018 21:17,17:17:35,2.0.10.248,1,1,1,1,,,,,,,,PracticeProc,BlockList,1,1,Distractor1.bmp,1,0,,0,43,22502,600,,0,0,yellow,600,3,600,2,vertical,blue,Distractor2.bmp,yellow,Distractor1.bmp,lime,Target1.bmp,red,Distractor1.bmp,purple,Distractor2.bmp,cyan,Distractor2.bmp,3,1,1,TrialProc,,PracticeTrialList,1,1,-999999,0,23102,0,1,1581,24683,Target1.bmp,lime,1,,,,,,
KW_Experiment5A,18,1,"<?xml version=""1.0""?>\n<Clock xmlns:dt=""urn:schemas-microsoft-com:datatypes""><Description dt:dt=""string"">E-Prime Primary Realtime Clock</Description><StartTime><Timestamp dt:dt=""int"">0</Timestamp><DateUtc dt:dt=""string"">2018-10-11T21:17:35Z</DateUtc></StartTime><FrequencyChanges><FrequencyChange><Frequency dt:dt=""r8"">3215244</Frequency><Timestamp dt:dt=""r8"">5514343093876</Timestamp><Current dt:dt=""r8"">0</Current><DateUtc dt:dt=""string"">2018-10-11T21:17:35Z</DateUtc></FrequencyChange></FrequencyChanges></Clock>\n",KW_Experiment5A-18-1,59.944,1.0.0.105,2,-394305907,Professional,2.0.10.353,2.0.10.353,10/11/2018,10/11/2018 21:17,17:17:35,2.0.10.248,1,1,1,1,,,,,,,,PracticeProc,BlockList,2,1,Distractor1.bmp,1,0,,0,1,25705,600,,0,0,lime,600,3,600,,vertical,lime,Distractor1.bmp,red,Target1.bmp,purple,Distractor1.bmp,cyan,Distractor1.bmp,blue,Distractor2.bmp,yellow,Distractor2.bmp,2,1,2,TrialProc,6,PracticeTrialList,1,1,-999999,0,26305,0,1,802,27107,Target1.bmp,red,1,,,,,,
KW_Experiment5A,18,1,"<?xml version=""1.0""?>\n<Clock xmlns:dt=""urn:schemas-microsoft-com:datatypes""><Description dt:dt=""string"">E-Prime Primary Realtime Clock</Description><StartTime><Timestamp dt:dt=""int"">0</Timestamp><DateUtc dt:dt=""string"">2018-10-11T21:17:35Z</DateUtc></StartTime><FrequencyChanges><FrequencyChange><Frequency dt:dt=""r8"">3215244</Frequency><Timestamp dt:dt=""r8"">5514343093876</Timestamp><Current dt:dt=""r8"">0</Current><DateUtc dt:dt=""string"">2018-10-11T21:17:35Z</DateUtc></FrequencyChange></FrequencyChanges></Clock>\n",KW_Experiment5A-18-1,59.944,1.0.0.105,2,-394305907,Professional,2.0.10.353,2.0.10.353,10/11/2018,10/11/2018 21:17,17:17:35,2.0.10.248,1,1,1,1,,,,,,,,PracticeProc,BlockList,3,2,Distractor2.bmp,2,0,,0,1,28124,500,,0,0,red,500,2,500,1,horizontal,purple,Distractor1.bmp,blue,Distractor2.bmp,yellow,Distractor1.bmp,red,Distractor1.bmp,lime,Target2.bmp,cyan,Distractor2.bmp,5,1,3,TrialProc,,PracticeTrialList,1,2,-999999,0,28624,0,2,547,29171,Target2.bmp,lime,2,,,,,,
KW_Experiment5A,18,1,"<?xml version=""1.0""?>\n<Clock xmlns:dt=""urn:schemas-microsoft-com:datatypes""><Description dt:dt=""string"">E-Prime Primary Realtime Clock</Description><StartTime><Timestamp dt:dt=""int"">0</Timestamp><DateUtc dt:dt=""string"">2018-10-11T21:17:35Z</DateUtc></StartTime><FrequencyChanges><FrequencyChange><Frequency dt:dt=""r8"">3215244</Frequency><Timestamp dt:dt=""r8"">5514343093876</Timestamp><Current dt:dt=""r8"">0</Current><DateUtc dt:dt=""string"">2018-10-11T21:17:35Z</DateUtc></FrequencyChange></FrequencyChanges></Clock>\n",KW_Experiment5A-18-1,59.944,1.0.0.105,2,-394305907,Professional,2.0.10.353,2.0.10.353,10/11/2018,10/11/2018 21:17,17:17:35,2.0.10.248,1,1,1,1,,,,,,,,PracticeProc,BlockList,4,2,Distractor2.bmp,2,0,,0,1,30192,501,,0,0,yellow,500,2,500,,horizontal,lime,Distractor1.bmp,blue,Distractor2.bmp,yellow,Distractor1.bmp,red,Target2.bmp,purple,Distractor2.bmp,cyan,Distractor1.bmp,4,1,4,TrialProc,2,PracticeTrialList,1,2,-999999,1,30693,0,2,710,31403,Target2.bmp,red,2,,,,,,
KW_Experiment5A,18,1,"<?xml version=""1.0""?>\n<Clock xmlns:dt=""urn:schemas-microsoft-com:datatypes""><Description dt:dt=""string"">E-Prime Primary Realtime Clock</Description><StartTime><Timestamp dt:dt=""int"">0</Timestamp><DateUtc dt:dt=""string"">2018-10-11T21:17:35Z</DateUtc></StartTime><FrequencyChanges><FrequencyChange><Frequency dt:dt=""r8"">3215244</Frequency><Timestamp dt:dt=""r8"">5514343093876</Timestamp><Current dt:dt=""r8"">0</Current><DateUtc dt:dt=""string"">2018-10-11T21:17:35Z</DateUtc></FrequencyChange></FrequencyChanges></Clock>\n",KW_Experiment5A-18-1,59.944,1.0.0.105,2,-394305907,Professional,2.0.10.353,2.0.10.353,10/11/2018,10/11/2018 21:17,17:17:35,2.0.10.248,1,1,1,1,,,,,,,,PracticeProc,BlockList,5,2,Distractor1.bmp,1,0,,0,1,32428,600,,0,0,purple,600,3,600,5,horizontal,lime,Target2.bmp,blue,Distractor1.bmp,yellow,Distractor1.bmp,red,Distractor2.bmp,cyan,Distractor2.bmp,purple,Distractor2.bmp,1,1,5,TrialProc,,PracticeTrialList,1,2,-999999,0,33028,0,2,671,33699,Target2.bmp,lime,2,,,,,,
KW_Experiment5A,18,1,"<?xml version=""1.0""?>\n<Clock xmlns:dt=""urn:schemas-microsoft-com:datatypes""><Description dt:dt=""string"">E-Prime Primary Realtime Clock</Description><StartTime><Timestamp dt:dt=""int"">0</Timestamp><DateUtc dt:dt=""string"">2018-10-11T21:17:35Z</DateUtc></StartTime><FrequencyChanges><FrequencyChange><Frequency dt:dt=""r8"">3215244</Frequency><Timestamp dt:dt=""r8"">5514343093876</Timestamp><Current dt:dt=""r8"">0</Current><DateUtc dt:dt=""string"">2018-10-11T21:17:35Z</DateUtc></FrequencyChange></FrequencyChanges></Clock>\n",KW_Experiment5A-18-1,59.944,1.0.0.105,2,-394305907,Professional,2.0.10.353,2.0.10.353,10/11/2018,10/11/2018 21:17,17:17:35,2.0.10.248,1,1,1,1,,,,,,,,PracticeProc,BlockList,6,2,Distractor2.bmp,2,0,,0,1,34713,601,,0,0,cyan,600,3,600,,horizontal,yellow,Distractor2.bmp,lime,Distractor2.bmp,blue,Distractor2.bmp,purple,Distractor1.bmp,cyan,Distractor2.bmp,red,Target2.bmp,6,1,6,TrialProc,4,PracticeTrialList,1,2,-999999,1,35314,0,2,689,36003,Target2.bmp,red,2,,,,,,
KW_Experiment5A,18,1,"<?xml version=""1.0""?>\n<Clock xmlns:dt=""urn:schemas-microsoft-com:datatypes""><Description dt:dt=""string"">E-Prime Primary Realtime Clock</Description><StartTime><Timestamp dt:dt=""int"">0</Timestamp><DateUtc dt:dt=""string"">2018-10-11T21:17:35Z</DateUtc></StartTime><FrequencyChanges><FrequencyChange><Frequency dt:dt=""r8"">3215244</Frequency><Timestamp dt:dt=""r8"">5514343093876</Timestamp><Current dt:dt=""r8"">0</Current><DateUtc dt:dt=""string"">2018-10-11T21:17:35Z</DateUtc></FrequencyChange></FrequencyChanges></Clock>\n",KW_Experiment5A-18-1,59.944,1.0.0.105,2,-394305907,Professional,2.0.10.353,2.0.10.353,10/11/2018,10/11/2018 21:17,17:17:35,2.0.10.248,2,2,1,2,,,,,,,,TrainingProc,BlockList,1,1,Distractor2.bmp,2,0,,0,25,43204,601,,0,0,blue,600,3,600,,vertical,blue,Distractor2.bmp,yellow,Distractor2.bmp,lime,Distractor2.bmp,cyan,Distractor2.bmp,red,Target1.bmp,purple,Distractor2.bmp,,,,TrialProc,3,TrainingTrialList,1,1,-999999,1,43805,0,1,686,44491,Target1.bmp,red,1,,,,11,2,1
KW_Experiment5A,18,1,"<?xml version=""1.0""?>\n<Clock xmlns:dt=""urn:schemas-microsoft-com:datatypes""><Description dt:dt=""string"">E-Prime Primary Realtime Clock</Description><StartTime><Timestamp dt:dt=""int"">0</Timestamp><DateUtc dt:dt=""string"">2018-10-11T21:17:35Z</DateUtc></StartTime><FrequencyChanges><FrequencyChange><Frequency dt:dt=""r8"">3215244</Frequency><Timestamp dt:dt=""r8"">5514343093876</Timestamp><Current dt:dt=""r8"">0</Current><DateUtc dt:dt=""string"">2018-10-11T21:17:35Z</DateUtc></FrequencyChange></FrequencyChanges></Clock>\n",KW_Experiment5A-18-1,59.944,1.0.0.105,2,-394305907,Professional,2.0.10.353,2.0.10.353,10/11/2018,10/11/2018 21:17,17:17:35,2.0.10.248,2,2,1,2,,,,,,,,TrainingProc,BlockList,2,1,Distractor2.bmp,2,0,,1,0,45506,401,,0,0,lime,400,1,400,,vertical,lime,Distractor1.bmp,blue,Distractor2.bmp,red,Target1.bmp,yellow,Distractor2.bmp,purple,Distractor2.bmp,cyan,Distractor2.bmp,,,,TrialProc,6,TrainingTrialList,1,1,-999999,1,45907,0,1,464,46371,Target1.bmp,red,1,,,,9,2,2
KW_Experiment5A,18,1,"<?xml version=""1.0""?>\n<Clock xmlns:dt=""urn:schemas-microsoft-com:datatypes""><Description dt:dt=""string"">E-Prime Primary Realtime Clock</Description><StartTime><Timestamp dt:dt=""int"">0</Timestamp><DateUtc dt:dt=""string"">2018-10-11T21:17:35Z</DateUtc></StartTime><FrequencyChanges><FrequencyChange><Frequency dt:dt=""r8"">3215244</Frequency><Timestamp dt:dt=""r8"">5514343093876</Timestamp><Current dt:dt=""r8"">0</Current><DateUtc dt:dt=""string"">2018-10-11T21:17:35Z</DateUtc></FrequencyChange></FrequencyChanges></Clock>\n",KW_Experiment5A-18-1,59.944,1.0.0.105,2,-394305907,Professional,2.0.10.353,2.0.10.353,10/11/2018,10/11/2018 21:17,17:17:35,2.0.10.248,2,2,1,2,,,,,,,,TrainingProc,BlockList,3,1,Distractor2.bmp,2,0,,0,1,47392,500,,0,0,yellow,500,2,500,,vertical,yellow,Distractor2.bmp,cyan,Distractor2.bmp,purple,Distractor2.bmp,blue,Distractor2.bmp,lime,Distractor1.bmp,red,Target1.bmp,,,,TrialProc,2,TrainingTrialList,1,1,-999999,0,47892,0,1,455,48347,Target1.bmp,red,1,,,,12,2,3
KW_Experiment5A,18,1,"<?xml version=""1.0""?>\n<Clock xmlns:dt=""urn:schemas-microsoft-com:datatypes""><Description dt:dt=""string"">E-Prime Primary Realtime Clock</Description><StartTime><Timestamp dt:dt=""int"">0</Timestamp><DateUtc dt:dt=""string"">2018-10-11T21:17:35Z</DateUtc></StartTime><FrequencyChanges><FrequencyChange><Frequency dt:dt=""r8"">3215244</Frequency><Timestamp dt:dt=""r8"">5514343093876</Timestamp><Current dt:dt=""r8"">0</Current><DateUtc dt:dt=""string"">2018-10-11T21:17:35Z</DateUtc></FrequencyChange></FrequencyChanges></Clock>\n",KW_Experiment5A-18-1,59.944,1.0.0.105,2,-394305907,Professional,2.0.10.353,2.0.10.353,10/11/2018,10/11/2018 21:17,17:17:35,2.0.10.248,2,2,1,2,,,,,,,,TrainingProc,BlockList,4,2,Distractor1.bmp,1,0,,0,1,49360,400,,0,0,blue,400,1,400,3,horizontal,blue,Distractor2.bmp,lime,Target2.bmp,purple,Distractor1.bmp,cyan,Distractor2.bmp,red,Distractor2.bmp,yellow,Distractor1.bmp,,,,TrialProc,,TrainingTrialList,1,2,-999999,0,49760,0,2,531,50291,Target2.bmp,lime,2,,,,2,2,4
KW_Experiment5A,18,1,"<?xml version=""1.0""?>\n<Clock xmlns:dt=""urn:schemas-microsoft-com:datatypes""><Description dt:dt=""string"">E-Prime Primary Realtime Clock</Description><StartTime><Timestamp dt:dt=""int"">0</Timestamp><DateUtc dt:dt=""string"">2018-10-11T21:17:35Z</DateUtc></StartTime><FrequencyChanges><FrequencyChange><Frequency dt:dt=""r8"">3215244</Frequency><Timestamp dt:dt=""r8"">5514343093876</Timestamp><Current dt:dt=""r8"">0</Current><DateUtc dt:dt=""string"">2018-10-11T21:17:35Z</DateUtc></FrequencyChange></FrequencyChanges></Clock>\n",KW_Experiment5A-18-1,59.944,1.0.0.105,2,-394305907,Professional,2.0.10.353,2.0.10.353,10/11/2018,10/11/2018 21:17,17:17:35,2.0.10.248,2,2,1,2,,,,,,,,TrainingProc,BlockList,5,2,Distractor1.bmp,1,0,,0,1,51312,500,,0,0,blue,500,2,500,3,horizontal,blue,Distractor1.bmp,cyan,Distractor2.bmp,purple,Distractor1.bmp,red,Distractor1.bmp,yellow,Distractor2.bmp,lime,Target2.bmp,,,,TrialProc,,TrainingTrialList,1,2,-999999,0,51812,0,2,703,52515,Target2.bmp,lime,2,,,,6,2,5
KW_Experiment5A,18,1,"<?xml version=""1.0""?>\n<Clock xmlns:dt=""urn:schemas-microsoft-com:datatypes""><Description dt:dt=""string"">E-Prime Primary Realtime Clock</Description><StartTime><Timestamp dt:dt=""int"">0</Timestamp><DateUtc dt:dt=""string"">2018-10-11T21:17:35Z</DateUtc></StartTime><FrequencyChanges><FrequencyChange><Frequency dt:dt=""r8"">3215244</Frequency><Timestamp dt:dt=""r8"">5514343093876</Timestamp><Current dt:dt=""r8"">0</Current><DateUtc dt:dt=""string"">2018-10-11T21:17:35Z</DateUtc></FrequencyChange></FrequencyChanges></Clock>\n",KW_Experiment5A-18-1,59.944,1.0.0.105,2,-394305907,Professional,2.0.10.353,2.0.10.353,10/11/2018,10/11/2018 21:17,17:17:35,2.0.10.248,2,2,1,2,,,,,,,,TrainingProc,BlockList,6,2,Distractor1.bmp,1,0,,0,1,53531,500,,0,0,yellow,500,2,500,,horizontal,yellow,Distractor2.bmp,lime,Distractor2.bmp,purple,Distractor1.bmp,red,Target2.bmp,blue,Distractor1.bmp,cyan,Distractor2.bmp,,,,TrialProc,2,TrainingTrialList,1,2,-999999,0,54031,0,2,636,54667,Target2.bmp,red,2,,,,10,2,6
KW_Experiment5A,18,1,"<?xml version=""1.0""?>\n<Clock xmlns:dt=""urn:schemas-microsoft-com:datatypes""><Description dt:dt=""string"">E-Prime Primary Realtime Clock</Description><StartTime><Timestamp dt:dt=""int"">0</Timestamp><DateUtc dt:dt=""string"">2018-10-11T21:17:35Z</DateUtc></StartTime><FrequencyChanges><FrequencyChange><Frequency dt:dt=""r8"">3215244</Frequency><Timestamp dt:dt=""r8"">5514343093876</Timestamp><Current dt:dt=""r8"">0</Current><DateUtc dt:dt=""string"">2018-10-11T21:17:35Z</DateUtc></FrequencyChange></FrequencyChanges></Clock>\n",KW_Experiment5A-18-1,59.944,1.0.0.105,2,-394305907,Professional,2.0.10.353,2.0.10.353,10/11/2018,10/11/2018 21:17,17:17:35,2.0.10.248,2,2,1,2,,,,,,,,TrainingProc,BlockList,7,2,Distractor1.bmp,1,0,,0,1,55683,500,,0,0,yellow,500,2,500,2,horizontal,yellow,Distractor1.bmp,purple,Distractor1.bmp,cyan,Distractor2.bmp,red,Distractor1.bmp,lime,Target2.bmp,blue,Distractor1.bmp,,,,TrialProc,,TrainingTrialList,1,2,-999999,0,56183,0,2,524,56707,Target2.bmp,lime,2,,,,5,2,7
KW_Experiment5A,18,1,"<?xml version=""1.0""?>\n<Clock xmlns:dt=""urn:schemas-microsoft-com:datatypes""><Description dt:dt=""string"">E-Prime Primary Realtime Clock</Description><StartTime><Timestamp dt:dt=""int"">0</Timestamp><DateUtc dt:dt=""string"">2018-10-11T21:17:35Z</DateUtc></StartTime><FrequencyChanges><FrequencyChange><Frequency dt:dt=""r8"">3215244</Frequency><Timestamp dt:dt=""r8"">5514343093876</Timestamp><Current dt:dt=""r8"">0</Current><DateUtc dt:dt=""string"">2018-10-11T21:17:35Z</DateUtc></FrequencyChange></FrequencyChanges></Clock>\n",KW_Experiment5A-18-1,59.944,1.0.0.105,2,-394305907,Professional,2.0.10.353,2.0.10.353,10/11/2018,10/11/2018 21:17,17:17:35,2.0.10.248,2,2,1,2,,,,,,,,TrainingProc,BlockList,8,2,Distractor2.bmp,2,0,,0,1,57718,600,,0,0,red,600,3,600,1,horizontal,red,Distractor1.bmp,cyan,Distractor1.bmp,lime,Target2.bmp,purple,Distractor2.bmp,yellow,Distractor2.bmp,blue,Distractor1.bmp,,,,TrialProc,,TrainingTrialList,1,2,-999999,0,58318,0,2,461,58779,Target2.bmp,lime,2,,,,3,2,8
KW_Experiment5A,18,1,"<?xml version=""1.0""?>\n<Clock xmlns:dt=""urn:schemas-microsoft-com:datatypes""><Description dt:dt=""string"">E-Prime Primary Realtime Clock</Description><StartTime><Timestamp dt:dt=""int"">0</Timestamp><DateUtc dt:dt=""string"">2018-10-11T21:17:35Z</DateUtc></StartTime><FrequencyChanges><FrequencyChange><Frequency dt:dt=""r8"">3215244</Frequency><Timestamp dt:dt=""r8"">5514343093876</Timestamp><Current dt:dt=""r8"">0</Current><DateUtc dt:dt=""string"">2018-10-11T21:17:35Z</DateUtc></FrequencyChange></FrequencyChanges></Clock>\n",KW_Experiment5A-18-1,59.944,1.0.0.105,2,-394305907,Professional,2.0.10.353,2.0.10.353,10/11/2018,10/11/2018 21:17,17:17:35,2.0.10.248,2,2,1,2,,,,,,,,TrainingProc,BlockList,9,2,Distractor2.bmp,2,0,,0,1,59803,400,,0,0,lime,400,1,400,,horizontal,red,Target2.bmp,blue,Distractor2.bmp,purple,Distractor1.bmp,cyan,Distractor1.bmp,yellow,Distractor2.bmp,lime,Distractor1.bmp,,,,TrialProc,6,TrainingTrialList,1,2,-999999,0,60203,0,2,472,60675,Target2.bmp,red,2,,,,7,2,9
KW_Experiment5A,18,1,"<?xml version=""1.0""?>\n<Clock xmlns:dt=""urn:schemas-microsoft-com:datatypes""><Description dt:dt=""string"">E-Prime Primary Realtime Clock</Description><StartTime><Timestamp dt:dt=""int"">0</Timestamp><DateUtc dt:dt=""string"">2018-10-11T21:17:35Z</DateUtc></StartTime><FrequencyChanges><FrequencyChange><Frequency dt:dt=""r8"">3215244</Frequency><Timestamp dt:dt=""r8"">5514343093876</Timestamp><Current dt:dt=""r8"">0</Current><DateUtc dt:dt=""string"">2018-10-11T21:17:35Z</DateUtc></FrequencyChange></FrequencyChanges></Clock>\n",KW_Experiment5A-18-1,59.944,1.0.0.105,2,-394305907,Professional,2.0.10.353,2.0.10.353,10/11/2018,10/11/2018 21:17,17:17:35,2.0.10.248,2,2,1,2,,,,,,,,TrainingProc,BlockList,10,2,Distractor1.bmp,1,0,,0,1,61688,400,,0,0,lime,400,1,400,,horizontal,lime,Distractor1.bmp,red,Target2.bmp,blue,Distractor1.bmp,yellow,Distractor2.bmp,cyan,Distractor1.bmp,purple,Distractor1.bmp,,,,TrialProc,6,TrainingTrialList,1,2,-999999,0,62088,0,2,363,62451,Target2.bmp,red,2,,,,8,2,10
KW_Experiment5A,18,1,"<?xml version=""1.0""?>\n<Clock xmlns:dt=""urn:schemas-microsoft-com:datatypes""><Description dt:dt=""string"">E-Prime Primary Realtime Clock</Description><StartTime><Timestamp dt:dt=""int"">0</Timestamp><DateUtc dt:dt=""string"">2018-10-11T21:17:35Z</DateUtc></StartTime><FrequencyChanges><FrequencyChange><Frequency dt:dt=""r8"">3215244</Frequency><Timestamp dt:dt=""r8"">5514343093876</Timestamp><Current dt:dt=""r8"">0</Current><DateUtc dt:dt=""string"">2018-10-11T21:17:35Z</DateUtc></FrequencyChange></FrequencyChanges></Clock>\n",KW_Experiment5A-18-1,59.944,1.0.0.105,2,-394305907,Professional,2.0.10.353,2.0.10.353,10/11/2018,10/11/2018 21:17,17:17:35,2.0.10.248,2,2,1,2,,,,,,,,TrainingProc,BlockList,11,1,Distractor2.bmp,2,0,,0,1,63473,400,,0,0,blue,400,1,400,,vertical,blue,Distractor2.bmp,purple,Distractor1.bmp,cyan,Distractor1.bmp,lime,Distractor2.bmp,yellow,Distractor1.bmp,red,Target1.bmp,,,,TrialProc,3,TrainingTrialList,1,1,-999999,0,63873,0,1,594,64467,Target1.bmp,red,1,,,,12,2,11
KW_Experiment5A,18,1,"<?xml version=""1.0""?>\n<Clock xmlns:dt=""urn:schemas-microsoft-com:datatypes""><Description dt:dt=""string"">E-Prime Primary Realtime Clock</Description><StartTime><Timestamp dt:dt=""int"">0</Timestamp><DateUtc dt:dt=""string"">2018-10-11T21:17:35Z</DateUtc></StartTime><FrequencyChanges><FrequencyChange><Frequency dt:dt=""r8"">3215244</Frequency><Timestamp dt:dt=""r8"">5514343093876</Timestamp><Current dt:dt=""r8"">0</Current><DateUtc dt:dt=""string"">2018-10-11T21:17:35Z</DateUtc></FrequencyChange></FrequencyChanges></Clock>\n",KW_Experiment5A-18-1,59.944,1.0.0.105,2,-394305907,Professional,2.0.10.353,2.0.10.353,10/11/2018,10/11/2018 21:17,17:17:35,2.0.10.248,2,2,1,2,,,,,,,,TrainingProc,BlockList,12,2,Distractor1.bmp,1,0,,0,1,65492,400,,0,0,purple,400,1,400,,horizontal,purple,Distractor2.bmp,blue,Distractor2.bmp,lime,Distractor2.bmp,yellow,Distractor1.bmp,red,Target2.bmp,cyan,Distractor1.bmp,,,,TrialProc,5,TrainingTrialList,1,2,-999999,0,65892,0,2,543,66435,Target2.bmp,red,2,,,,11,2,12
KW_Experiment5A,18,1,"<?xml version=""1.0""?>\n<Clock xmlns:dt=""urn:schemas-microsoft-com:datatypes""><Description dt:dt=""string"">E-Prime Primary Realtime Clock</Description><StartTime><Timestamp dt:dt=""int"">0</Timestamp><DateUtc dt:dt=""string"">2018-10-11T21:17:35Z</DateUtc></StartTime><FrequencyChanges><FrequencyChange><Frequency dt:dt=""r8"">3215244</Frequency><Timestamp dt:dt=""r8"">5514343093876</Timestamp><Current dt:dt=""r8"">0</Current><DateUtc dt:dt=""string"">2018-10-11T21:17:35Z</DateUtc></FrequencyChange></FrequencyChanges></Clock>\n",KW_Experiment5A-18-1,59.944,1.0.0.105,2,-394305907,Professional,2.0.10.353,2.0.10.353,10/11/2018,10/11/2018 21:17,17:17:35,2.0.10.248,2,2,1,2,,,,,,,,TrainingProc,BlockList,13,1,Distractor1.bmp,1,0,,0,1,67460,501,,0,0,lime,500,2,500,,vertical,lime,Distractor1.bmp,red,Target1.bmp,cyan,Distractor1.bmp,yellow,Distractor2.bmp,purple,Distractor1.bmp,blue,Distractor2.bmp,,,,TrialProc,6,TrainingTrialList,0,1,-999999,1,67961,0,2,370,68331,Target1.bmp,red,1,,,,8,2,13
KW_Experiment5A,18,1,"<?xml version=""1.0""?>\n<Clock xmlns:dt=""urn:schemas-microsoft-com:datatypes""><Description dt:dt=""string"">E-Prime Primary Realtime Clock</Description><StartTime><Timestamp dt:dt=""int"">0</Timestamp><DateUtc dt:dt=""string"">2018-10-11T21:17:35Z</DateUtc></StartTime><FrequencyChanges><FrequencyChange><Frequency dt:dt=""r8"">3215244</Frequency><Timestamp dt:dt=""r8"">5514343093876</Timestamp><Current dt:dt=""r8"">0</Current><DateUtc dt:dt=""string"">2018-10-11T21:17:35Z</DateUtc></FrequencyChange></FrequencyChanges></Clock>\n",KW_Experiment5A-18-1,59.944,1.0.0.105,2,-394305907,Professional,2.0.10.353,2.0.10.353,10/11/2018,10/11/2018 21:17,17:17:35,2.0.10.248,2,2,1,2,,,,,,,,TrainingProc,BlockList,14,1,Distractor1.bmp,1,0,,0,1,69345,400,,0,0,purple,400,1,400,,vertical,purple,Distractor1.bmp,lime,Distractor2.bmp,cyan,Distractor1.bmp,blue,Distractor1.bmp,yellow,Distractor2.bmp,red,Target1.bmp,,,,TrialProc,5,TrainingTrialList,1,1,-999999,0,69745,0,1,642,70387,Target1.bmp,red,1,,,,12,2,14
KW_Experiment5A,18,1,"<?xml version=""1.0""?>\n<Clock xmlns:dt=""urn:schemas-microsoft-com:datatypes""><Description dt:dt=""string"">E-Prime Primary Realtime Clock</Description><StartTime><Timestamp dt:dt=""int"">0</Timestamp><DateUtc dt:dt=""string"">2018-10-11T21:17:35Z</DateUtc></StartTime><FrequencyChanges><FrequencyChange><Frequency dt:dt=""r8"">3215244</Frequency><Timestamp dt:dt=""r8"">5514343093876</Timestamp><Current dt:dt=""r8"">0</Current><DateUtc dt:dt=""string"">2018-10-11T21:17:35Z</DateUtc></FrequencyChange></FrequencyChanges></Clock>\n",KW_Experiment5A-18-1,59.944,1.0.0.105,2,-394305907,Professional,2.0.10.353,2.0.10.353,10/11/2018,10/11/2018 21:17,17:17:35,2.0.10.248,2,2,1,2,,,,,,,,TrainingProc,BlockList,15,2,Distractor2.bmp,2,0,,0,1,71397,500,,0,0,red,500,2,500,1,horizontal,lime,Target2.bmp,red,Distractor2.bmp,yellow,Distractor2.bmp,cyan,Distractor2.bmp,blue,Distractor1.bmp,purple,Distractor1.bmp,,,,TrialProc,,TrainingTrialList,1,2,-999999,0,71897,0,2,721,72618,Target2.bmp,lime,2,,,,1,2,15
KW_Experiment5A,18,1,"<?xml version=""1.0""?>\n<Clock xmlns:dt=""urn:schemas-microsoft-com:datatypes""><Description dt:dt=""string"">E-Prime Primary Realtime Clock</Description><StartTime><Timestamp dt:dt=""int"">0</Timestamp><DateUtc dt:dt=""string"">2018-10-11T21:17:35Z</DateUtc></StartTime><FrequencyChanges><FrequencyChange><Frequency dt:dt=""r8"">3215244</Frequency><Timestamp dt:dt=""r8"">5514343093876</Timestamp><Current dt:dt=""r8"">0</Current><DateUtc dt:dt=""string"">2018-10-11T21:17:35Z</DateUtc></FrequencyChange></FrequencyChanges></Clock>\n",KW_Experiment5A-18-1,59.944,1.0.0.105,2,-394305907,Professional,2.0.10.353,2.0.10.353,10/11/2018,10/11/2018 21:17,17:17:35,2.0.10.248,2,2,1,2,,,,,,,,TrainingProc,BlockList,16,2,Distractor1.bmp,1,0,,0,1,73632,601,,0,0,purple,600,3,600,,horizontal,purple,Distractor1.bmp,blue,Distractor2.bmp,lime,Distractor1.bmp,red,Target2.bmp,cyan,Distractor1.bmp,yellow,Distractor1.bmp,,,,TrialProc,5,TrainingTrialList,1,2,-999999,1,74233,0,2,425,74658,Target2.bmp,red,2,,,,10,2,16
KW_Experiment5A,18,1,"<?xml version=""1.0""?>\n<Clock xmlns:dt=""urn:schemas-microsoft-com:datatypes""><Description dt:dt=""string"">E-Prime Primary Realtime Clock</Description><StartTime><Timestamp dt:dt=""int"">0</Timestamp><DateUtc dt:dt=""string"">2018-10-11T21:17:35Z</DateUtc></StartTime><FrequencyChanges><FrequencyChange><Frequency dt:dt=""r8"">3215244</Frequency><Timestamp dt:dt=""r8"">5514343093876</Timestamp><Current dt:dt=""r8"">0</Current><DateUtc dt:dt=""string"">2018-10-11T21:17:35Z</DateUtc></FrequencyChange></FrequencyChanges></Clock>\n",KW_Experiment5A-18-1,59.944,1.0.0.105,2,-394305907,Professional,2.0.10.353,2.0.10.353,10/11/2018,10/11/2018 21:17,17:17:35,2.0.10.248,2,2,1,2,,,,,,,,TrainingProc,BlockList,17,1,Distractor1.bmp,1,0,,0,1,75668,600,,0,0,lime,600,3,600,,vertical,red,Target1.bmp,blue,Distractor1.bmp,yellow,Distractor1.bmp,purple,Distractor1.bmp,cyan,Distractor1.bmp,lime,Distractor2.bmp,,,,TrialProc,6,TrainingTrialList,0,1,-999999,0,76268,0,2,398,76666,Target1.bmp,red,1,,,,7,2,17
KW_Experiment5A,18,1,"<?xml version=""1.0""?>\n<Clock xmlns:dt=""urn:schemas-microsoft-com:datatypes""><Description dt:dt=""string"">E-Prime Primary Realtime Clock</Description><StartTime><Timestamp dt:dt=""int"">0</Timestamp><DateUtc dt:dt=""string"">2018-10-11T21:17:35Z</DateUtc></StartTime><FrequencyChanges><FrequencyChange><Frequency dt:dt=""r8"">3215244</Frequency><Timestamp dt:dt=""r8"">5514343093876</Timestamp><Current dt:dt=""r8"">0</Current><DateUtc dt:dt=""string"">2018-10-11T21:17:35Z</DateUtc></FrequencyChange></FrequencyChanges></Clock>\n",KW_Experiment5A-18-1,59.944,1.0.0.105,2,-394305907,Professional,2.0.10.353,2.0.10.353,10/11/2018,10/11/2018 21:17,17:17:35,2.0.10.248,2,2,1,2,,,,,,,,TrainingProc,BlockList,18,1,Distractor2.bmp,2,0,,0,1,77686,601,,0,0,blue,600,3,600,,vertical,blue,Distractor2.bmp,cyan,Distractor1.bmp,lime,Distractor2.bmp,yellow,Distractor2.bmp,red,Target1.bmp,purple,Distractor2.bmp,,,,TrialProc,3,TrainingTrialList,1,1,-999999,1,78287,0,1,547,78834,Target1.bmp,red,1,,,,11,2,18
KW_Experiment5A,18,1,"<?xml version=""1.0""?>\n<Clock xmlns:dt=""urn:schemas-microsoft-com:datatypes""><Description dt:dt=""string"">E-Prime Primary Realtime Clock</Description><StartTime><Timestamp dt:dt=""int"">0</Timestamp><DateUtc dt:dt=""string"">2018-10-11T21:17:35Z</DateUtc></StartTime><FrequencyChanges><FrequencyChange><Frequency dt:dt=""r8"">3215244</Frequency><Timestamp dt:dt=""r8"">5514343093876</Timestamp><Current dt:dt=""r8"">0</Current><DateUtc dt:dt=""string"">2018-10-11T21:17:35Z</DateUtc></FrequencyChange></FrequencyChanges></Clock>\n",KW_Experiment5A-18-1,59.944,1.0.0.105,2,-394305907,Professional,2.0.10.353,2.0.10.353,10/11/2018,10/11/2018 21:17,17:17:35,2.0.10.248,2,2,1,2,,,,,,,,TrainingProc,BlockList,19,2,Distractor2.bmp,2,0,,0,1,79855,600,,0,0,cyan,600,3,600,,horizontal,red,Target2.bmp,blue,Distractor2.bmp,purple,Distractor2.bmp,yellow,Distractor1.bmp,lime,Distractor1.bmp,cyan,Distractor1.bmp,,,,TrialProc,4,TrainingTrialList,1,2,-999999,0,80455,0,2,507,80962,Target2.bmp,red,2,,,,7,2,19
KW_Experiment5A,18,1,"<?xml version=""1.0""?>\n<Clock xmlns:dt=""urn:schemas-microsoft-com:datatypes""><Description dt:dt=""string"">E-Prime Primary Realtime Clock</Description><StartTime><Timestamp dt:dt=""int"">0</Timestamp><DateUtc dt:dt=""string"">2018-10-11T21:17:35Z</DateUtc></StartTime><FrequencyChanges><FrequencyChange><Frequency dt:dt=""r8"">3215244</Frequency><Timestamp dt:dt=""r8"">5514343093876</Timestamp><Current dt:dt=""r8"">0</Current><DateUtc dt:dt=""string"">2018-10-11T21:17:35Z</DateUtc></FrequencyChange></FrequencyChanges></Clock>\n",KW_Experiment5A-18-1,59.944,1.0.0.105,2,-394305907,Professional,2.0.10.353,2.0.10.353,10/11/2018,10/11/2018 21:17,17:17:35,2.0.10.248,2,2,1,2,,,,,,,,TrainingProc,BlockList,20,1,Distractor1.bmp,1,0,,0,1,81973,601,,0,0,yellow,600,3,600,,vertical,yellow,Distractor1.bmp,lime,Distractor2.bmp,red,Target1.bmp,purple,Distractor1.bmp,blue,Distractor2.bmp,cyan,Distractor1.bmp,,,,TrialProc,2,TrainingTrialList,1,1,-999999,1,82574,0,1,484,83058,Target1.bmp,red,1,,,,9,2,20
KW_Experiment5A,18,1,"<?xml version=""1.0""?>\n<Clock xmlns:dt=""urn:schemas-microsoft-com:datatypes""><Description dt:dt=""string"">E-Prime Primary Realtime Clock</Description><StartTime><Timestamp dt:dt=""int"">0</Timestamp><DateUtc dt:dt=""string"">2018-10-11T21:17:35Z</DateUtc></StartTime><FrequencyChanges><FrequencyChange><Frequency dt:dt=""r8"">3215244</Frequency><Timestamp dt:dt=""r8"">5514343093876</Timestamp><Current dt:dt=""r8"">0</Current><DateUtc dt:dt=""string"">2018-10-11T21:17:35Z</DateUtc></FrequencyChange></FrequencyChanges></Clock>\n",KW_Experiment5A-18-1,59.944,1.0.0.105,2,-394305907,Professional,2.0.10.353,2.0.10.353,10/11/2018,10/11/2018 21:17,17:17:35,2.0.10.248,2,2,1,2,,,,,,,,TrainingProc,BlockList,21,1,Distractor2.bmp,2,0,,0,1,84075,401,,0,0,yellow,400,1,400,,vertical,yellow,Distractor1.bmp,cyan,Distractor2.bmp,red,Target1.bmp,purple,Distractor2.bmp,blue,Distractor2.bmp,lime,Distractor1.bmp,,,,TrialProc,2,TrainingTrialList,0,1,-999999,1,84476,0,2,510,84986,Target1.bmp,red,1,,,,9,2,21
KW_Experiment5A,18,1,"<?xml version=""1.0""?>\n<Clock xmlns:dt=""urn:schemas-microsoft-com:datatypes""><Description dt:dt=""string"">E-Prime Primary Realtime Clock</Description><StartTime><Timestamp dt:dt=""int"">0</Timestamp><DateUtc dt:dt=""string"">2018-10-11T21:17:35Z</DateUtc></StartTime><FrequencyChanges><FrequencyChange><Frequency dt:dt=""r8"">3215244</Frequency><Timestamp dt:dt=""r8"">5514343093876</Timestamp><Current dt:dt=""r8"">0</Current><DateUtc dt:dt=""string"">2018-10-11T21:17:35Z</DateUtc></FrequencyChange></FrequencyChanges></Clock>\n",KW_Experiment5A-18-1,59.944,1.0.0.105,2,-394305907,Professional,2.0.10.353,2.0.10.353,10/11/2018,10/11/2018 21:17,17:17:35,2.0.10.248,2,2,1,2,,,,,,,,TrainingProc,BlockList,22,2,Distractor2.bmp,2,0,,1,0,86010,401,,0,0,lime,400,1,400,,horizontal,lime,Distractor2.bmp,cyan,Distractor1.bmp,purple,Distractor1.bmp,red,Target2.bmp,yellow,Distractor2.bmp,blue,Distractor1.bmp,,,,TrialProc,6,TrainingTrialList,0,2,-999999,1,86411,0,1,431,86842,Target2.bmp,red,2,,,,10,2,22
KW_Experiment5A,18,1,"<?xml version=""1.0""?>\n<Clock xmlns:dt=""urn:schemas-microsoft-com:datatypes""><Description dt:dt=""string"">E-Prime Primary Realtime Clock</Description><StartTime><Timestamp dt:dt=""int"">0</Timestamp><DateUtc dt:dt=""string"">2018-10-11T21:17:35Z</DateUtc></StartTime><FrequencyChanges><FrequencyChange><Frequency dt:dt=""r8"">3215244</Frequency><Timestamp dt:dt=""r8"">5514343093876</Timestamp><Current dt:dt=""r8"">0</Current><DateUtc dt:dt=""string"">2018-10-11T21:17:35Z</DateUtc></FrequencyChange></FrequencyChanges></Clock>\n",KW_Experiment5A-18-1,59.944,1.0.0.105,2,-394305907,Professional,2.0.10.353,2.0.10.353,10/11/2018,10/11/2018 21:17,17:17:35,2.0.10.248,2,2,1,2,,,,,,,,TrainingProc,BlockList,23,1,Distractor2.bmp,2,0,,0,1,87862,601,,0,0,yellow,600,3,600,2,vertical,yellow,Distractor2.bmp,blue,Distractor2.bmp,red,Distractor1.bmp,lime,Target1.bmp,purple,Distractor2.bmp,cyan,Distractor2.bmp,,,,TrialProc,,TrainingTrialList,1,1,-999999,1,88463,0,1,611,89074,Target1.bmp,lime,1,,,,4,2,23
KW_Experiment5A,18,1,"<?xml version=""1.0""?>\n<Clock xmlns:dt=""urn:schemas-microsoft-com:datatypes""><Description dt:dt=""string"">E-Prime Primary Realtime Clock</Description><StartTime><Timestamp dt:dt=""int"">0</Timestamp><DateUtc dt:dt=""string"">2018-10-11T21:17:35Z</DateUtc></StartTime><FrequencyChanges><FrequencyChange><Frequency dt:dt=""r8"">3215244</Frequency><Timestamp dt:dt=""r8"">5514343093876</Timestamp><Current dt:dt=""r8"">0</Current><DateUtc dt:dt=""string"">2018-10-11T21:17:35Z</DateUtc></FrequencyChange></FrequencyChanges></Clock>\n",KW_Experiment5A-18-1,59.944,1.0.0.105,2,-394305907,Professional,2.0.10.353,2.0.10.353,10/11/2018,10/11/2018 21:17,17:17:35,2.0.10.248,2,2,1,2,,,,,,,,TrainingProc,BlockList,24,2,Distractor2.bmp,2,0,,0,1,90098,400,,0,0,lime,400,1,400,,horizontal,lime,Distractor2.bmp,red,Target2.bmp,yellow,Distractor2.bmp,cyan,Distractor1.bmp,purple,Distractor2.bmp,blue,Distractor1.bmp,,,,TrialProc,6,TrainingTrialList,1,2,-999999,0,90498,0,2,424,90922,Target2.bmp,red,2,,,,8,2,24
KW_Experiment5A,18,1,"<?xml version=""1.0""?>\n<Clock xmlns:dt=""urn:schemas-microsoft-com:datatypes""><Description dt:dt=""string"">E-Prime Primary Realtime Clock</Description><StartTime><Timestamp dt:dt=""int"">0</Timestamp><DateUtc dt:dt=""string"">2018-10-11T21:17:35Z</DateUtc></StartTime><FrequencyChanges><FrequencyChange><Frequency dt:dt=""r8"">3215244</Frequency><Timestamp dt:dt=""r8"">5514343093876</Timestamp><Current dt:dt=""r8"">0</Current><DateUtc dt:dt=""string"">2018-10-11T21:17:35Z</DateUtc></FrequencyChange></FrequencyChanges></Clock>\n",KW_Experiment5A-18-1,59.944,1.0.0.105,2,-394305907,Professional,2.0.10.353,2.0.10.353,10/11/2018,10/11/2018 21:17,17:17:35,2.0.10.248,2,2,1,2,,,,,,,,TrainingProc,BlockList,25,1,Distractor2.bmp,2,0,,0,1,91933,400,,0,0,purple,400,1,400,,vertical,purple,Distractor1.bmp,yellow,Distractor1.bmp,lime,Distractor2.bmp,blue,Distractor2.bmp,red,Target1.bmp,cyan,Distractor2.bmp,,,,TrialProc,5,TrainingTrialList,1,1,-999999,0,92333,0,1,437,92770,Target1.bmp,red,1,,,,11,3,25
KW_Experiment5A,18,1,"<?xml version=""1.0""?>\n<Clock xmlns:dt=""urn:schemas-microsoft-com:datatypes""><Description dt:dt=""string"">E-Prime Primary Realtime Clock</Description><StartTime><Timestamp dt:dt=""int"">0</Timestamp><DateUtc dt:dt=""string"">2018-10-11T21:17:35Z</DateUtc></StartTime><FrequencyChanges><FrequencyChange><Frequency dt:dt=""r8"">3215244</Frequency><Timestamp dt:dt=""r8"">5514343093876</Timestamp><Current dt:dt=""r8"">0</Current><DateUtc dt:dt=""string"">2018-10-11T21:17:35Z</DateUtc></FrequencyChange></FrequencyChanges></Clock>\n",KW_Experiment5A-18-1,59.944,1.0.0.105,2,-394305907,Professional,2.0.10.353,2.0.10.353,10/11/2018,10/11/2018 21:17,17:17:35,2.0.10.248,2,2,1,2,,,,,,,,TrainingProc,BlockList,26,2,Distractor2.bmp,2,0,,0,1,93784,601,,0,0,purple,600,3,600,,horizontal,red,Target2.bmp,blue,Distractor2.bmp,lime,Distractor2.bmp,cyan,Distractor1.bmp,yellow,Distractor2.bmp,purple,Distractor1.bmp,,,,TrialProc,5,TrainingTrialList,1,2,-999999,1,94385,0,2,441,94826,Target2.bmp,red,2,,,,7,3,26
KW_Experiment5A,18,1,"<?xml version=""1.0""?>\n<Clock xmlns:dt=""urn:schemas-microsoft-com:datatypes""><Description dt:dt=""string"">E-Prime Primary Realtime Clock</Description><StartTime><Timestamp dt:dt=""int"">0</Timestamp><DateUtc dt:dt=""string"">2018-10-11T21:17:35Z</DateUtc></StartTime><FrequencyChanges><FrequencyChange><Frequency dt:dt=""r8"">3215244</Frequency><Timestamp dt:dt=""r8"">5514343093876</Timestamp><Current dt:dt=""r8"">0</Current><DateUtc dt:dt=""string"">2018-10-11T21:17:35Z</DateUtc></FrequencyChange></FrequencyChanges></Clock>\n",KW_Experiment5A-18-1,59.944,1.0.0.105,2,-394305907,Professional,2.0.10.353,2.0.10.353,10/11/2018,10/11/2018 21:17,17:17:35,2.0.10.248,2,2,1,2,,,,,,,,TrainingProc,BlockList,27,1,Distractor2.bmp,2,0,,0,1,95836,401,,0,0,purple,400,1,400,,vertical,purple,Distractor2.bmp,yellow,Distractor2.bmp,red,Target1.bmp,lime,Distractor2.bmp,cyan,Distractor2.bmp,blue,Distractor2.bmp,,,,TrialProc,5,TrainingTrialList,1,1,-999999,1,96237,0,1,461,96698,Target1.bmp,red,1,,,,9,3,27
KW_Experiment5A,18,1,"<?xml version=""1.0""?>\n<Clock xmlns:dt=""urn:schemas-microsoft-com:datatypes""><Description dt:dt=""string"">E-Prime Primary Realtime Clock</Description><StartTime><Timestamp dt:dt=""int"">0</Timestamp><DateUtc dt:dt=""string"">2018-10-11T21:17:35Z</DateUtc></StartTime><FrequencyChanges><FrequencyChange><Frequency dt:dt=""r8"">3215244</Frequency><Timestamp dt:dt=""r8"">5514343093876</Timestamp><Current dt:dt=""r8"">0</Current><DateUtc dt:dt=""string"">2018-10-11T21:17:35Z</DateUtc></FrequencyChange></FrequencyChanges></Clock>\n",KW_Experiment5A-18-1,59.944,1.0.0.105,2,-394305907,Professional,2.0.10.353,2.0.10.353,10/11/2018,10/11/2018 21:17,17:17:35,2.0.10.248,2,2,1,2,,,,,,,,TrainingProc,BlockList,28,1,Distractor1.bmp,1,0,,0,1,97721,601,,0,0,lime,600,3,600,,vertical,lime,Distractor2.bmp,purple,Distractor1.bmp,red,Target1.bmp,blue,Distractor1.bmp,cyan,Distractor1.bmp,yellow,Distractor1.bmp,,,,TrialProc,6,TrainingTrialList,1,1,-999999,1,98322,0,1,480,98802,Target1.bmp,red,1,,,,9,3,28
KW_Experiment5A,18,1,"<?xml version=""1.0""?>\n<Clock xmlns:dt=""urn:schemas-microsoft-com:datatypes""><Description dt:dt=""string"">E-Prime Primary Realtime Clock</Description><StartTime><Timestamp dt:dt=""int"">0</Timestamp><DateUtc dt:dt=""string"">2018-10-11T21:17:35Z</DateUtc></StartTime><FrequencyChanges><FrequencyChange><Frequency dt:dt=""r8"">3215244</Frequency><Timestamp dt:dt=""r8"">5514343093876</Timestamp><Current dt:dt=""r8"">0</Current><DateUtc dt:dt=""string"">2018-10-11T21:17:35Z</DateUtc></FrequencyChange></FrequencyChanges></Clock>\n",KW_Experiment5A-18-1,59.944,1.0.0.105,2,-394305907,Professional,2.0.10.353,2.0.10.353,10/11/2018,10/11/2018 21:17,17:17:35,2.0.10.248,2,2,1,2,,,,,,,,TrainingProc,BlockList,29,1,Distractor2.bmp,2,0,,0,1,99823,501,,0,0,cyan,500,2,500,4,vertical,cyan,Distractor1.bmp,purple,Distractor1.bmp,yellow,Distractor2.bmp,blue,Distractor1.bmp,lime,Target1.bmp,red,Distractor2.bmp,,,,TrialProc,,TrainingTrialList,1,1,-999999,1,100324,0,1,494,100818,Target1.bmp,lime,1,,,,5,3,29
KW_Experiment5A,18,1,"<?xml version=""1.0""?>\n<Clock xmlns:dt=""urn:schemas-microsoft-com:datatypes""><Description dt:dt=""string"">E-Prime Primary Realtime Clock</Description><StartTime><Timestamp dt:dt=""int"">0</Timestamp><DateUtc dt:dt=""string"">2018-10-11T21:17:35Z</DateUtc></StartTime><FrequencyChanges><FrequencyChange><Frequency dt:dt=""r8"">3215244</Frequency><Timestamp dt:dt=""r8"">5514343093876</Timestamp><Current dt:dt=""r8"">0</Current><DateUtc dt:dt=""string"">2018-10-11T21:17:35Z</DateUtc></FrequencyChange></FrequencyChanges></Clock>\n",KW_Experiment5A-18-1,59.944,1.0.0.105,2,-394305907,Professional,2.0.10.353,2.0.10.353,10/11/2018,10/11/2018 21:17,17:17:35,2.0.10.248,2,2,1,2,,,,,,,,TrainingProc,BlockList,30,1,Distractor2.bmp,2,0,,0,1,101842,600,,0,0,lime,600,3,600,,vertical,lime,Distractor2.bmp,purple,Distractor2.bmp,blue,Distractor1.bmp,cyan,Distractor1.bmp,red,Target1.bmp,yellow,Distractor2.bmp,,,,TrialProc,6,TrainingTrialList,1,1,-999999,0,102442,0,1,408,102850,Target1.bmp,red,1,,,,11,3,30
KW_Experiment5A,18,1,"<?xml version=""1.0""?>\n<Clock xmlns:dt=""urn:schemas-microsoft-com:datatypes""><Description dt:dt=""string"">E-Prime Primary Realtime Clock</Description><StartTime><Timestamp dt:dt=""int"">0</Timestamp><DateUtc dt:dt=""string"">2018-10-11T21:17:35Z</DateUtc></StartTime><FrequencyChanges><FrequencyChange><Frequency dt:dt=""r8"">3215244</Frequency><Timestamp dt:dt=""r8"">5514343093876</Timestamp><Current dt:dt=""r8"">0</Current><DateUtc dt:dt=""string"">2018-10-11T21:17:35Z</DateUtc></FrequencyChange></FrequencyChanges></Clock>\n",KW_Experiment5A-18-1,59.944,1.0.0.105,2,-394305907,Professional,2.0.10.353,2.0.10.353,10/11/2018,10/11/2018 21:17,17:17:35,2.0.10.248,2,2,1,2,,,,,,,,TrainingProc,BlockList,31,1,Distractor2.bmp,2,0,,0,1,103860,601,,0,0,cyan,600,3,600,,vertical,cyan,Distractor1.bmp,red,Target1.bmp,purple,Distractor2.bmp,blue,Distractor2.bmp,lime,Distractor2.bmp,yellow,Distractor1.bmp,,,,TrialProc,4,TrainingTrialList,1,1,-999999,1,104461,0,1,477,104938,Target1.bmp,red,1,,,,8,3,31
KW_Experiment5A,18,1,"<?xml version=""1.0""?>\n<Clock xmlns:dt=""urn:schemas-microsoft-com:datatypes""><Description dt:dt=""string"">E-Prime Primary Realtime Clock</Description><StartTime><Timestamp dt:dt=""int"">0</Timestamp><DateUtc dt:dt=""string"">2018-10-11T21:17:35Z</DateUtc></StartTime><FrequencyChanges><FrequencyChange><Frequency dt:dt=""r8"">3215244</Frequency><Timestamp dt:dt=""r8"">5514343093876</Timestamp><Current dt:dt=""r8"">0</Current><DateUtc dt:dt=""string"">2018-10-11T21:17:35Z</DateUtc></FrequencyChange></FrequencyChanges></Clock>\n",KW_Experiment5A-18-1,59.944,1.0.0.105,2,-394305907,Professional,2.0.10.353,2.0.10.353,10/11/2018,10/11/2018 21:17,17:17:35,2.0.10.248,2,2,1,2,,,,,,,,TrainingProc,BlockList,32,2,Distractor1.bmp,1,0,,0,1,105962,401,,0,0,blue,400,1,400,,horizontal,blue,Distractor2.bmp,cyan,Distractor1.bmp,red,Target2.bmp,lime,Distractor1.bmp,purple,Distractor2.bmp,yellow,Distractor1.bmp,,,,TrialProc,3,TrainingTrialList,1,2,-999999,1,106363,0,2,519,106882,Target2.bmp,red,2,,,,9,3,32
KW_Experiment5A,18,1,"<?xml version=""1.0""?>\n<Clock xmlns:dt=""urn:schemas-microsoft-com:datatypes""><Description dt:dt=""string"">E-Prime Primary Realtime Clock</Description><StartTime><Timestamp dt:dt=""int"">0</Timestamp><DateUtc dt:dt=""string"">2018-10-11T21:17:35Z</DateUtc></StartTime><FrequencyChanges><FrequencyChange><Frequency dt:dt=""r8"">3215244</Frequency><Timestamp dt:dt=""r8"">5514343093876</Timestamp><Current dt:dt=""r8"">0</Current><DateUtc dt:dt=""string"">2018-10-11T21:17:35Z</DateUtc></FrequencyChange></FrequencyChanges></Clock>\n",KW_Experiment5A-18-1,59.944,1.0.0.105,2,-394305907,Professional,2.0.10.353,2.0.10.353,10/11/2018,10/11/2018 21:17,17:17:35,2.0.10.248,2,2,1,2,,,,,,,,TrainingProc,BlockList,33,2,Distractor2.bmp,2,0,,0,1,107897,501,,0,0,purple,500,2,500,,horizontal,purple,Distractor2.bmp,blue,Distractor1.bmp,lime,Distractor1.bmp,cyan,Distractor1.bmp,yellow,Distractor1.bmp,red,Target2.bmp,,,,TrialProc,5,TrainingTrialList,0,2,-999999,1,108398,0,1,468,108866,Target2.bmp,red,2,,,,12,3,33
KW_Experiment5A,18,1,"<?xml version=""1.0""?>\n<Clock xmlns:dt=""urn:schemas-microsoft-com:datatypes""><Description dt:dt=""string"">E-Prime Primary Realtime Clock</Description><StartTime><Timestamp dt:dt=""int"">0</Timestamp><DateUtc dt:dt=""string"">2018-10-11T21:17:35Z</DateUtc></StartTime><FrequencyChanges><FrequencyChange><Frequency dt:dt=""r8"">3215244</Frequency><Timestamp dt:dt=""r8"">5514343093876</Timestamp><Current dt:dt=""r8"">0</Current><DateUtc dt:dt=""string"">2018-10-11T21:17:35Z</DateUtc></FrequencyChange></FrequencyChanges></Clock>\n",KW_Experiment5A-18-1,59.944,1.0.0.105,2,-394305907,Professional,2.0.10.353,2.0.10.353,10/11/2018,10/11/2018 21:17,17:17:35,2.0.10.248,2,2,1,2,,,,,,,,TrainingProc,BlockList,34,1,Distractor1.bmp,1,0,,1,0,109882,501,,0,0,lime,500,2,500,,vertical,red,Target1.bmp,cyan,Distractor1.bmp,blue,Distractor2.bmp,purple,Distractor2.bmp,yellow,Distractor1.bmp,lime,Distractor2.bmp,,,,TrialProc,6,TrainingTrialList,1,1,-999999,1,110383,0,1,411,110794,Target1.bmp,red,1,,,,7,3,34
KW_Experiment5A,18,1,"<?xml version=""1.0""?>\n<Clock xmlns:dt=""urn:schemas-microsoft-com:datatypes""><Description dt:dt=""string"">E-Prime Primary Realtime Clock</Description><StartTime><Timestamp dt:dt=""int"">0</Timestamp><DateUtc dt:dt=""string"">2018-10-11T21:17:35Z</DateUtc></StartTime><FrequencyChanges><FrequencyChange><Frequency dt:dt=""r8"">3215244</Frequency><Timestamp dt:dt=""r8"">5514343093876</Timestamp><Current dt:dt=""r8"">0</Current><DateUtc dt:dt=""string"">2018-10-11T21:17:35Z</DateUtc></FrequencyChange></FrequencyChanges></Clock>\n",KW_Experiment5A-18-1,59.944,1.0.0.105,2,-394305907,Professional,2.0.10.353,2.0.10.353,10/11/2018,10/11/2018 21:17,17:17:35,2.0.10.248,2,2,1,2,,,,,,,,TrainingProc,BlockList,35,1,Distractor2.bmp,2,0,,0,1,111818,400,,0,0,lime,400,1,400,,vertical,red,Target1.bmp,blue,Distractor2.bmp,purple,Distractor2.bmp,cyan,Distractor1.bmp,yellow,Distractor1.bmp,lime,Distractor1.bmp,,,,TrialProc,6,TrainingTrialList,0,1,-999999,0,112218,0,2,504,112722,Target1.bmp,red,1,,,,7,3,35
KW_Experiment5A,18,1,"<?xml version=""1.0""?>\n<Clock xmlns:dt=""urn:schemas-microsoft-com:datatypes""><Description dt:dt=""string"">E-Prime Primary Realtime Clock</Description><StartTime><Timestamp dt:dt=""int"">0</Timestamp><DateUtc dt:dt=""string"">2018-10-11T21:17:35Z</DateUtc></StartTime><FrequencyChanges><FrequencyChange><Frequency dt:dt=""r8"">3215244</Frequency><Timestamp dt:dt=""r8"">5514343093876</Timestamp><Current dt:dt=""r8"">0</Current><DateUtc dt:dt=""string"">2018-10-11T21:17:35Z</DateUtc></FrequencyChange></FrequencyChanges></Clock>\n",KW_Experiment5A-18-1,59.944,1.0.0.105,2,-394305907,Professional,2.0.10.353,2.0.10.353,10/11/2018,10/11/2018 21:17,17:17:35,2.0.10.248,2,2,1,2,,,,,,,,TrainingProc,BlockList,36,1,Distractor2.bmp,2,0,,0,1,113736,601,,0,0,yellow,600,3,600,,vertical,yellow,Distractor2.bmp,purple,Distractor1.bmp,lime,Distractor1.bmp,blue,Distractor2.bmp,cyan,Distractor1.bmp,red,Target1.bmp,,,,TrialProc,2,TrainingTrialList,1,1,-999999,1,114337,0,1,577,114914,Target1.bmp,red,1,,,,12,3,36
KW_Experiment5A,18,1,"<?xml version=""1.0""?>\n<Clock xmlns:dt=""urn:schemas-microsoft-com:datatypes""><Description dt:dt=""string"">E-Prime Primary Realtime Clock</Description><StartTime><Timestamp dt:dt=""int"">0</Timestamp><DateUtc dt:dt=""string"">2018-10-11T21:17:35Z</DateUtc></StartTime><FrequencyChanges><FrequencyChange><Frequency dt:dt=""r8"">3215244</Frequency><Timestamp dt:dt=""r8"">5514343093876</Timestamp><Current dt:dt=""r8"">0</Current><DateUtc dt:dt=""string"">2018-10-11T21:17:35Z</DateUtc></FrequencyChange></FrequencyChanges></Clock>\n",KW_Experiment5A-18-1,59.944,1.0.0.105,2,-394305907,Professional,2.0.10.353,2.0.10.353,10/11/2018,10/11/2018 21:17,17:17:35,2.0.10.248,2,2,1,2,,,,,,,,TrainingProc,BlockList,37,2,Distractor2.bmp,2,0,,0,1,115938,601,,0,0,yellow,600,3,600,,horizontal,yellow,Distractor2.bmp,blue,Distractor1.bmp,lime,Distractor1.bmp,red,Target2.bmp,cyan,Distractor2.bmp,purple,Distractor1.bmp,,,,TrialProc,2,TrainingTrialList,1,2,-999999,1,116539,0,2,543,117082,Target2.bmp,red,2,,,,10,3,37
KW_Experiment5A,18,1,"<?xml version=""1.0""?>\n<Clock xmlns:dt=""urn:schemas-microsoft-com:datatypes""><Description dt:dt=""string"">E-Prime Primary Realtime Clock</Description><StartTime><Timestamp dt:dt=""int"">0</Timestamp><DateUtc dt:dt=""string"">2018-10-11T21:17:35Z</DateUtc></StartTime><FrequencyChanges><FrequencyChange><Frequency dt:dt=""r8"">3215244</Frequency><Timestamp dt:dt=""r8"">5514343093876</Timestamp><Current dt:dt=""r8"">0</Current><DateUtc dt:dt=""string"">2018-10-11T21:17:35Z</DateUtc></FrequencyChange></FrequencyChanges></Clock>\n",KW_Experiment5A-18-1,59.944,1.0.0.105,2,-394305907,Professional,2.0.10.353,2.0.10.353,10/11/2018,10/11/2018 21:17,17:17:35,2.0.10.248,2,2,1,2,,,,,,,,TrainingProc,BlockList,38,2,Distractor2.bmp,2,0,,0,1,118107,500,,0,0,blue,500,2,500,3,horizontal,lime,Target2.bmp,blue,Distractor2.bmp,yellow,Distractor2.bmp,red,Distractor2.bmp,purple,Distractor1.bmp,cyan,Distractor2.bmp,,,,TrialProc,,TrainingTrialList,1,2,-999999,0,118607,0,2,755,119362,Target2.bmp,lime,2,,,,1,3,38
KW_Experiment5A,18,1,"<?xml version=""1.0""?>\n<Clock xmlns:dt=""urn:schemas-microsoft-com:datatypes""><Description dt:dt=""string"">E-Prime Primary Realtime Clock</Description><StartTime><Timestamp dt:dt=""int"">0</Timestamp><DateUtc dt:dt=""string"">2018-10-11T21:17:35Z</DateUtc></StartTime><FrequencyChanges><FrequencyChange><Frequency dt:dt=""r8"">3215244</Frequency><Timestamp dt:dt=""r8"">5514343093876</Timestamp><Current dt:dt=""r8"">0</Current><DateUtc dt:dt=""string"">2018-10-11T21:17:35Z</DateUtc></FrequencyChange></FrequencyChanges></Clock>\n",KW_Experiment5A-18-1,59.944,1.0.0.105,2,-394305907,Professional,2.0.10.353,2.0.10.353,10/11/2018,10/11/2018 21:17,17:17:35,2.0.10.248,2,2,1,2,,,,,,,,TrainingProc,BlockList,39,1,Distractor1.bmp,1,0,,0,1,120376,600,,0,0,yellow,600,3,600,2,vertical,yellow,Distractor1.bmp,purple,Distractor2.bmp,red,Distractor1.bmp,blue,Distractor1.bmp,cyan,Distractor1.bmp,lime,Target1.bmp,,,,TrialProc,,TrainingTrialList,1,1,-999999,0,120976,0,1,722,121698,Target1.bmp,lime,1,,,,6,3,39
KW_Experiment5A,18,1,"<?xml version=""1.0""?>\n<Clock xmlns:dt=""urn:schemas-microsoft-com:datatypes""><Description dt:dt=""string"">E-Prime Primary Realtime Clock</Description><StartTime><Timestamp dt:dt=""int"">0</Timestamp><DateUtc dt:dt=""string"">2018-10-11T21:17:35Z</DateUtc></StartTime><FrequencyChanges><FrequencyChange><Frequency dt:dt=""r8"">3215244</Frequency><Timestamp dt:dt=""r8"">5514343093876</Timestamp><Current dt:dt=""r8"">0</Current><DateUtc dt:dt=""string"">2018-10-11T21:17:35Z</DateUtc></FrequencyChange></FrequencyChanges></Clock>\n",KW_Experiment5A-18-1,59.944,1.0.0.105,2,-394305907,Professional,2.0.10.353,2.0.10.353,10/11/2018,10/11/2018 21:17,17:17:35,2.0.10.248,2,2,1,2,,,,,,,,TrainingProc,BlockList,40,2,Distractor1.bmp,1,0,,0,1,122711,400,,0,0,blue,400,1,400,,horizontal,blue,Distractor1.bmp,red,Target2.bmp,yellow,Distractor1.bmp,lime,Distractor1.bmp,cyan,Distractor1.bmp,purple,Distractor1.bmp,,,,TrialProc,3,TrainingTrialList,1,2,-999999,0,123111,0,2,619,123730,Target2.bmp,red,2,,,,8,3,40
KW_Experiment5A,18,1,"<?xml version=""1.0""?>\n<Clock xmlns:dt=""urn:schemas-microsoft-com:datatypes""><Description dt:dt=""string"">E-Prime Primary Realtime Clock</Description><StartTime><Timestamp dt:dt=""int"">0</Timestamp><DateUtc dt:dt=""string"">2018-10-11T21:17:35Z</DateUtc></StartTime><FrequencyChanges><FrequencyChange><Frequency dt:dt=""r8"">3215244</Frequency><Timestamp dt:dt=""r8"">5514343093876</Timestamp><Current dt:dt=""r8"">0</Current><DateUtc dt:dt=""string"">2018-10-11T21:17:35Z</DateUtc></FrequencyChange></FrequencyChanges></Clock>\n",KW_Experiment5A-18-1,59.944,1.0.0.105,2,-394305907,Professional,2.0.10.353,2.0.10.353,10/11/2018,10/11/2018 21:17,17:17:35,2.0.10.248,2,2,1,2,,,,,,,,TrainingProc,BlockList,41,2,Distractor1.bmp,1,0,,0,1,124746,401,,0,0,cyan,400,1,400,4,horizontal,cyan,Distractor2.bmp,lime,Target2.bmp,red,Distractor1.bmp,purple,Distractor2.bmp,yellow,Distractor1.bmp,blue,Distractor2.bmp,,,,TrialProc,,TrainingTrialList,1,2,-999999,1,125147,0,2,503,125650,Target2.bmp,lime,2,,,,2,3,41
KW_Experiment5A,18,1,"<?xml version=""1.0""?>\n<Clock xmlns:dt=""urn:schemas-microsoft-com:datatypes""><Description dt:dt=""string"">E-Prime Primary Realtime Clock</Description><StartTime><Timestamp dt:dt=""int"">0</Timestamp><DateUtc dt:dt=""string"">2018-10-11T21:17:35Z</DateUtc></StartTime><FrequencyChanges><FrequencyChange><Frequency dt:dt=""r8"">3215244</Frequency><Timestamp dt:dt=""r8"">5514343093876</Timestamp><Current dt:dt=""r8"">0</Current><DateUtc dt:dt=""string"">2018-10-11T21:17:35Z</DateUtc></FrequencyChange></FrequencyChanges></Clock>\n",KW_Experiment5A-18-1,59.944,1.0.0.105,2,-394305907,Professional,2.0.10.353,2.0.10.353,10/11/2018,10/11/2018 21:17,17:17:35,2.0.10.248,2,2,1,2,,,,,,,,TrainingProc,BlockList,42,1,Distractor2.bmp,2,0,,0,1,126665,600,,0,0,blue,600,3,600,3,vertical,blue,Distractor1.bmp,yellow,Distractor1.bmp,lime,Target1.bmp,red,Distractor2.bmp,purple,Distractor1.bmp,cyan,Distractor1.bmp,,,,TrialProc,,TrainingTrialList,1,1,-999999,0,127265,0,1,769,128034,Target1.bmp,lime,1,,,,3,3,42
KW_Experiment5A,18,1,"<?xml version=""1.0""?>\n<Clock xmlns:dt=""urn:schemas-microsoft-com:datatypes""><Description dt:dt=""string"">E-Prime Primary Realtime Clock</Description><StartTime><Timestamp dt:dt=""int"">0</Timestamp><DateUtc dt:dt=""string"">2018-10-11T21:17:35Z</DateUtc></StartTime><FrequencyChanges><FrequencyChange><Frequency dt:dt=""r8"">3215244</Frequency><Timestamp dt:dt=""r8"">5514343093876</Timestamp><Current dt:dt=""r8"">0</Current><DateUtc dt:dt=""string"">2018-10-11T21:17:35Z</DateUtc></FrequencyChange></FrequencyChanges></Clock>\n",KW_Experiment5A-18-1,59.944,1.0.0.105,2,-394305907,Professional,2.0.10.353,2.0.10.353,10/11/2018,10/11/2018 21:17,17:17:35,2.0.10.248,2,2,1,2,,,,,,,,TrainingProc,BlockList,43,1,Distractor1.bmp,1,0,,0,1,129050,501,,0,0,blue,500,2,500,,vertical,blue,Distractor1.bmp,lime,Distractor2.bmp,purple,Distractor2.bmp,yellow,Distractor2.bmp,red,Target1.bmp,cyan,Distractor1.bmp,,,,TrialProc,3,TrainingTrialList,1,1,-999999,1,129551,0,1,587,130138,Target1.bmp,red,1,,,,11,3,43
KW_Experiment5A,18,1,"<?xml version=""1.0""?>\n<Clock xmlns:dt=""urn:schemas-microsoft-com:datatypes""><Description dt:dt=""string"">E-Prime Primary Realtime Clock</Description><StartTime><Timestamp dt:dt=""int"">0</Timestamp><DateUtc dt:dt=""string"">2018-10-11T21:17:35Z</DateUtc></StartTime><FrequencyChanges><FrequencyChange><Frequency dt:dt=""r8"">3215244</Frequency><Timestamp dt:dt=""r8"">5514343093876</Timestamp><Current dt:dt=""r8"">0</Current><DateUtc dt:dt=""string"">2018-10-11T21:17:35Z</DateUtc></FrequencyChange></FrequencyChanges></Clock>\n",KW_Experiment5A-18-1,59.944,1.0.0.105,2,-394305907,Professional,2.0.10.353,2.0.10.353,10/11/2018,10/11/2018 21:17,17:17:35,2.0.10.248,2,2,1,2,,,,,,,,TrainingProc,BlockList,44,2,Distractor2.bmp,2,0,,0,1,131152,501,,0,0,yellow,500,2,500,,horizontal,yellow,Distractor1.bmp,lime,Distractor1.bmp,blue,Distractor2.bmp,red,Target2.bmp,cyan,Distractor2.bmp,purple,Distractor2.bmp,,,,TrialProc,2,TrainingTrialList,0,2,-999999,1,131653,0,1,365,132018,Target2.bmp,red,2,,,,10,3,44
KW_Experiment5A,18,1,"<?xml version=""1.0""?>\n<Clock xmlns:dt=""urn:schemas-microsoft-com:datatypes""><Description dt:dt=""string"">E-Prime Primary Realtime Clock</Description><StartTime><Timestamp dt:dt=""int"">0</Timestamp><DateUtc dt:dt=""string"">2018-10-11T21:17:35Z</DateUtc></StartTime><FrequencyChanges><FrequencyChange><Frequency dt:dt=""r8"">3215244</Frequency><Timestamp dt:dt=""r8"">5514343093876</Timestamp><Current dt:dt=""r8"">0</Current><DateUtc dt:dt=""string"">2018-10-11T21:17:35Z</DateUtc></FrequencyChange></FrequencyChanges></Clock>\n",KW_Experiment5A-18-1,59.944,1.0.0.105,2,-394305907,Professional,2.0.10.353,2.0.10.353,10/11/2018,10/11/2018 21:17,17:17:35,2.0.10.248,2,2,1,2,,,,,,,,TrainingProc,BlockList,45,2,Distractor1.bmp,1,0,,0,1,133037,501,,0,0,lime,500,2,500,,horizontal,lime,Distractor2.bmp,purple,Distractor1.bmp,cyan,Distractor2.bmp,red,Target2.bmp,blue,Distractor1.bmp,yellow,Distractor1.bmp,,,,TrialProc,6,TrainingTrialList,1,2,-999999,1,133538,0,2,448,133986,Target2.bmp,red,2,,,,10,3,45
KW_Experiment5A,18,1,"<?xml version=""1.0""?>\n<Clock xmlns:dt=""urn:schemas-microsoft-com:datatypes""><Description dt:dt=""string"">E-Prime Primary Realtime Clock</Description><StartTime><Timestamp dt:dt=""int"">0</Timestamp><DateUtc dt:dt=""string"">2018-10-11T21:17:35Z</DateUtc></StartTime><FrequencyChanges><FrequencyChange><Frequency dt:dt=""r8"">3215244</Frequency><Timestamp dt:dt=""r8"">5514343093876</Timestamp><Current dt:dt=""r8"">0</Current><DateUtc dt:dt=""string"">2018-10-11T21:17:35Z</DateUtc></FrequencyChange></FrequencyChanges></Clock>\n",KW_Experiment5A-18-1,59.944,1.0.0.105,2,-394305907,Professional,2.0.10.353,2.0.10.353,10/11/2018,10/11/2018 21:17,17:17:35,2.0.10.248,2,2,1,2,,,,,,,,TrainingProc,BlockList,46,1,Distractor1.bmp,1,0,,0,1,135006,500,,0,0,yellow,500,2,500,,vertical,yellow,Distractor1.bmp,cyan,Distractor2.bmp,purple,Distractor1.bmp,blue,Distractor2.bmp,lime,Distractor1.bmp,red,Target1.bmp,,,,TrialProc,2,TrainingTrialList,1,1,-999999,0,135506,0,1,424,135930,Target1.bmp,red,1,,,,12,3,46
KW_Experiment5A,18,1,"<?xml version=""1.0""?>\n<Clock xmlns:dt=""urn:schemas-microsoft-com:datatypes""><Description dt:dt=""string"">E-Prime Primary Realtime Clock</Description><StartTime><Timestamp dt:dt=""int"">0</Timestamp><DateUtc dt:dt=""string"">2018-10-11T21:17:35Z</DateUtc></StartTime><FrequencyChanges><FrequencyChange><Frequency dt:dt=""r8"">3215244</Frequency><Timestamp dt:dt=""r8"">5514343093876</Timestamp><Current dt:dt=""r8"">0</Current><DateUtc dt:dt=""string"">2018-10-11T21:17:35Z</DateUtc></FrequencyChange></FrequencyChanges></Clock>\n",KW_Experiment5A-18-1,59.944,1.0.0.105,2,-394305907,Professional,2.0.10.353,2.0.10.353,10/11/2018,10/11/2018 21:17,17:17:35,2.0.10.248,2,2,1,2,,,,,,,,TrainingProc,BlockList,47,2,Distractor2.bmp,2,0,,0,1,136941,600,,0,0,yellow,600,3,600,2,horizontal,yellow,Distractor2.bmp,blue,Distractor1.bmp,red,Distractor2.bmp,lime,Target2.bmp,purple,Distractor2.bmp,cyan,Distractor2.bmp,,,,TrialProc,,TrainingTrialList,1,2,-999999,0,137541,0,2,397,137938,Target2.bmp,lime,2,,,,4,3,47
KW_Experiment5A,18,1,"<?xml version=""1.0""?>\n<Clock xmlns:dt=""urn:schemas-microsoft-com:datatypes""><Description dt:dt=""string"">E-Prime Primary Realtime Clock</Description><StartTime><Timestamp dt:dt=""int"">0</Timestamp><DateUtc dt:dt=""string"">2018-10-11T21:17:35Z</DateUtc></StartTime><FrequencyChanges><FrequencyChange><Frequency dt:dt=""r8"">3215244</Frequency><Timestamp dt:dt=""r8"">5514343093876</Timestamp><Current dt:dt=""r8"">0</Current><DateUtc dt:dt=""string"">2018-10-11T21:17:35Z</DateUtc></FrequencyChange></FrequencyChanges></Clock>\n",KW_Experiment5A-18-1,59.944,1.0.0.105,2,-394305907,Professional,2.0.10.353,2.0.10.353,10/11/2018,10/11/2018 21:17,17:17:35,2.0.10.248,2,2,1,2,,,,,,,,TrainingProc,BlockList,48,2,Distractor2.bmp,2,0,,0,1,138959,401,,0,0,yellow,400,1,400,,horizontal,yellow,Distractor1.bmp,red,Target2.bmp,lime,Distractor2.bmp,cyan,Distractor1.bmp,blue,Distractor1.bmp,purple,Distractor1.bmp,,,,TrialProc,2,TrainingTrialList,1,2,-999999,1,139360,0,2,410,139770,Target2.bmp,red,2,,,,8,3,48
KW_Experiment5A,18,1,"<?xml version=""1.0""?>\n<Clock xmlns:dt=""urn:schemas-microsoft-com:datatypes""><Description dt:dt=""string"">E-Prime Primary Realtime Clock</Description><StartTime><Timestamp dt:dt=""int"">0</Timestamp><DateUtc dt:dt=""string"">2018-10-11T21:17:35Z</DateUtc></StartTime><FrequencyChanges><FrequencyChange><Frequency dt:dt=""r8"">3215244</Frequency><Timestamp dt:dt=""r8"">5514343093876</Timestamp><Current dt:dt=""r8"">0</Current><DateUtc dt:dt=""string"">2018-10-11T21:17:35Z</DateUtc></FrequencyChange></FrequencyChanges></Clock>\n",KW_Experiment5A-18-1,59.944,1.0.0.105,2,-394305907,Professional,2.0.10.353,2.0.10.353,10/11/2018,10/11/2018 21:17,17:17:35,2.0.10.248,3,2,1,3,,,,,,,,TrainingProc,BlockList,1,1,Distractor2.bmp,2,0,,0,23,145465,401,,0,0,blue,400,1,400,,vertical,red,Target1.bmp,purple,Distractor2.bmp,lime,Distractor2.bmp,yellow,Distractor1.bmp,cyan,Distractor2.bmp,blue,Distractor1.bmp,,,,TrialProc,3,TrainingTrialList,1,1,-999999,1,145866,0,1,632,146498,Target1.bmp,red,1,,,,7,4,49
KW_Experiment5A,18,1,"<?xml version=""1.0""?>\n<Clock xmlns:dt=""urn:schemas-microsoft-com:datatypes""><Description dt:dt=""string"">E-Prime Primary Realtime Clock</Description><StartTime><Timestamp dt:dt=""int"">0</Timestamp><DateUtc dt:dt=""string"">2018-10-11T21:17:35Z</DateUtc></StartTime><FrequencyChanges><FrequencyChange><Frequency dt:dt=""r8"">3215244</Frequency><Timestamp dt:dt=""r8"">5514343093876</Timestamp><Current dt:dt=""r8"">0</Current><DateUtc dt:dt=""string"">2018-10-11T21:17:35Z</DateUtc></FrequencyChange></FrequencyChanges></Clock>\n",KW_Experiment5A-18-1,59.944,1.0.0.105,2,-394305907,Professional,2.0.10.353,2.0.10.353,10/11/2018,10/11/2018 21:17,17:17:35,2.0.10.248,3,2,1,3,,,,,,,,TrainingProc,BlockList,2,2,Distractor1.bmp,1,0,,0,1,147517,401,,0,0,lime,400,1,400,,horizontal,lime,Distractor2.bmp,purple,Distractor1.bmp,yellow,Distractor1.bmp,red,Target2.bmp,blue,Distractor1.bmp,cyan,Distractor1.bmp,,,,TrialProc,6,TrainingTrialList,0,2,-999999,1,147918,0,1,460,148378,Target2.bmp,red,2,,,,10,4,50
KW_Experiment5A,18,1,"<?xml version=""1.0""?>\n<Clock xmlns:dt=""urn:schemas-microsoft-com:datatypes""><Description dt:dt=""string"">E-Prime Primary Realtime Clock</Description><StartTime><Timestamp dt:dt=""int"">0</Timestamp><DateUtc dt:dt=""string"">2018-10-11T21:17:35Z</DateUtc></StartTime><FrequencyChanges><FrequencyChange><Frequency dt:dt=""r8"">3215244</Frequency><Timestamp dt:dt=""r8"">5514343093876</Timestamp><Current dt:dt=""r8"">0</Current><DateUtc dt:dt=""string"">2018-10-11T21:17:35Z</DateUtc></FrequencyChange></FrequencyChanges></Clock>\n",KW_Experiment5A-18-1,59.944,1.0.0.105,2,-394305907,Professional,2.0.10.353,2.0.10.353,10/11/2018,10/11/2018 21:17,17:17:35,2.0.10.248,3,2,1,3,,,,,,,,TrainingProc,BlockList,3,2,Distractor1.bmp,1,0,,0,1,149402,401,,0,0,cyan,400,1,400,4,horizontal,cyan,Distractor2.bmp,blue,Distractor2.bmp,lime,Target2.bmp,yellow,Distractor1.bmp,purple,Distractor2.bmp,red,Distractor2.bmp,,,,TrialProc,,TrainingTrialList,1,2,-999999,1,149803,0,2,431,150234,Target2.bmp,lime,2,,,,3,4,51
KW_Experiment5A,18,1,"<?xml version=""1.0""?>\n<Clock xmlns:dt=""urn:schemas-microsoft-com:datatypes""><Description dt:dt=""string"">E-Prime Primary Realtime Clock</Description><StartTime><Timestamp dt:dt=""int"">0</Timestamp><DateUtc dt:dt=""string"">2018-10-11T21:17:35Z</DateUtc></StartTime><FrequencyChanges><FrequencyChange><Frequency dt:dt=""r8"">3215244</Frequency><Timestamp dt:dt=""r8"">5514343093876</Timestamp><Current dt:dt=""r8"">0</Current><DateUtc dt:dt=""string"">2018-10-11T21:17:35Z</DateUtc></FrequencyChange></FrequencyChanges></Clock>\n",KW_Experiment5A-18-1,59.944,1.0.0.105,2,-394305907,Professional,2.0.10.353,2.0.10.353,10/11/2018,10/11/2018 21:17,17:17:35,2.0.10.248,3,2,1,3,,,,,,,,TrainingProc,BlockList,4,2,Distractor1.bmp,1,0,,0,1,151254,601,,0,0,cyan,600,3,600,,horizontal,cyan,Distractor2.bmp,red,Target2.bmp,lime,Distractor1.bmp,purple,Distractor2.bmp,blue,Distractor1.bmp,yellow,Distractor2.bmp,,,,TrialProc,4,TrainingTrialList,1,2,-999999,1,151855,0,2,347,152202,Target2.bmp,red,2,,,,8,4,52
KW_Experiment5A,18,1,"<?xml version=""1.0""?>\n<Clock xmlns:dt=""urn:schemas-microsoft-com:datatypes""><Description dt:dt=""string"">E-Prime Primary Realtime Clock</Description><StartTime><Timestamp dt:dt=""int"">0</Timestamp><DateUtc dt:dt=""string"">2018-10-11T21:17:35Z</DateUtc></StartTime><FrequencyChanges><FrequencyChange><Frequency dt:dt=""r8"">3215244</Frequency><Timestamp dt:dt=""r8"">5514343093876</Timestamp><Current dt:dt=""r8"">0</Current><DateUtc dt:dt=""string"">2018-10-11T21:17:35Z</DateUtc></FrequencyChange></FrequencyChanges></Clock>\n",KW_Experiment5A-18-1,59.944,1.0.0.105,2,-394305907,Professional,2.0.10.353,2.0.10.353,10/11/2018,10/11/2018 21:17,17:17:35,2.0.10.248,3,2,1,3,,,,,,,,TrainingProc,BlockList,5,1,Distractor2.bmp,2,0,,1,0,153222,601,,0,0,purple,600,3,600,,vertical,purple,Distractor2.bmp,yellow,Distractor1.bmp,blue,Distractor1.bmp,cyan,Distractor2.bmp,red,Target1.bmp,lime,Distractor2.bmp,,,,TrialProc,5,TrainingTrialList,1,1,-999999,1,153823,0,1,379,154202,Target1.bmp,red,1,,,,11,4,53
KW_Experiment5A,18,1,"<?xml version=""1.0""?>\n<Clock xmlns:dt=""urn:schemas-microsoft-com:datatypes""><Description dt:dt=""string"">E-Prime Primary Realtime Clock</Description><StartTime><Timestamp dt:dt=""int"">0</Timestamp><DateUtc dt:dt=""string"">2018-10-11T21:17:35Z</DateUtc></StartTime><FrequencyChanges><FrequencyChange><Frequency dt:dt=""r8"">3215244</Frequency><Timestamp dt:dt=""r8"">5514343093876</Timestamp><Current dt:dt=""r8"">0</Current><DateUtc dt:dt=""string"">2018-10-11T21:17:35Z</DateUtc></FrequencyChange></FrequencyChanges></Clock>\n",KW_Experiment5A-18-1,59.944,1.0.0.105,2,-394305907,Professional,2.0.10.353,2.0.10.353,10/11/2018,10/11/2018 21:17,17:17:35,2.0.10.248,3,2,1,3,,,,,,,,TrainingProc,BlockList,6,1,Distractor2.bmp,2,0,,0,1,155224,401,,0,0,cyan,400,1,400,,vertical,cyan,Distractor1.bmp,lime,Distractor2.bmp,purple,Distractor2.bmp,red,Target1.bmp,blue,Distractor2.bmp,yellow,Distractor1.bmp,,,,TrialProc,4,TrainingTrialList,1,1,-999999,1,155625,0,1,409,156034,Target1.bmp,red,1,,,,10,4,54
KW_Experiment5A,18,1,"<?xml version=""1.0""?>\n<Clock xmlns:dt=""urn:schemas-microsoft-com:datatypes""><Description dt:dt=""string"">E-Prime Primary Realtime Clock</Description><StartTime><Timestamp dt:dt=""int"">0</Timestamp><DateUtc dt:dt=""string"">2018-10-11T21:17:35Z</DateUtc></StartTime><FrequencyChanges><FrequencyChange><Frequency dt:dt=""r8"">3215244</Frequency><Timestamp dt:dt=""r8"">5514343093876</Timestamp><Current dt:dt=""r8"">0</Current><DateUtc dt:dt=""string"">2018-10-11T21:17:35Z</DateUtc></FrequencyChange></FrequencyChanges></Clock>\n",KW_Experiment5A-18-1,59.944,1.0.0.105,2,-394305907,Professional,2.0.10.353,2.0.10.353,10/11/2018,10/11/2018 21:17,17:17:35,2.0.10.248,3,2,1,3,,,,,,,,TrainingProc,BlockList,7,2,Distractor2.bmp,2,0,,0,1,157059,401,,0,0,yellow,400,1,400,,horizontal,red,Target2.bmp,cyan,Distractor2.bmp,blue,Distractor1.bmp,purple,Distractor1.bmp,lime,Distractor1.bmp,yellow,Distractor1.bmp,,,,TrialProc,2,TrainingTrialList,1,2,-999999,1,157460,0,2,462,157922,Target2.bmp,red,2,,,,7,4,55
KW_Experiment5A,18,1,"<?xml version=""1.0""?>\n<Clock xmlns:dt=""urn:schemas-microsoft-com:datatypes""><Description dt:dt=""string"">E-Prime Primary Realtime Clock</Description><StartTime><Timestamp dt:dt=""int"">0</Timestamp><DateUtc dt:dt=""string"">2018-10-11T21:17:35Z</DateUtc></StartTime><FrequencyChanges><FrequencyChange><Frequency dt:dt=""r8"">3215244</Frequency><Timestamp dt:dt=""r8"">5514343093876</Timestamp><Current dt:dt=""r8"">0</Current><DateUtc dt:dt=""string"">2018-10-11T21:17:35Z</DateUtc></FrequencyChange></FrequencyChanges></Clock>\n",KW_Experiment5A-18-1,59.944,1.0.0.105,2,-394305907,Professional,2.0.10.353,2.0.10.353,10/11/2018,10/11/2018 21:17,17:17:35,2.0.10.248,3,2,1,3,,,,,,,,TrainingProc,BlockList,8,1,Distractor1.bmp,1,0,,0,1,158944,601,,0,0,lime,600,3,600,,vertical,lime,Distractor1.bmp,red,Target1.bmp,purple,Distractor1.bmp,blue,Distractor1.bmp,cyan,Distractor2.bmp,yellow,Distractor2.bmp,,,,TrialProc,6,TrainingTrialList,1,1,-999999,1,159545,0,1,457,160002,Target1.bmp,red,1,,,,8,4,56
KW_Experiment5A,18,1,"<?xml version=""1.0""?>\n<Clock xmlns:dt=""urn:schemas-microsoft-com:datatypes""><Description dt:dt=""string"">E-Prime Primary Realtime Clock</Description><StartTime><Timestamp dt:dt=""int"">0</Timestamp><DateUtc dt:dt=""string"">2018-10-11T21:17:35Z</DateUtc></StartTime><FrequencyChanges><FrequencyChange><Frequency dt:dt=""r8"">3215244</Frequency><Timestamp dt:dt=""r8"">5514343093876</Timestamp><Current dt:dt=""r8"">0</Current><DateUtc dt:dt=""string"">2018-10-11T21:17:35Z</DateUtc></FrequencyChange></FrequencyChanges></Clock>\n",KW_Experiment5A-18-1,59.944,1.0.0.105,2,-394305907,Professional,2.0.10.353,2.0.10.353,10/11/2018,10/11/2018 21:17,17:17:35,2.0.10.248,3,2,1,3,,,,,,,,TrainingProc,BlockList,9,2,Distractor2.bmp,2,0,,0,1,161013,601,,0,0,yellow,600,3,600,,horizontal,yellow,Distractor1.bmp,red,Target2.bmp,lime,Distractor2.bmp,blue,Distractor1.bmp,purple,Distractor2.bmp,cyan,Distractor2.bmp,,,,TrialProc,2,TrainingTrialList,1,2,-999999,1,161614,0,2,364,161978,Target2.bmp,red,2,,,,8,4,57
KW_Experiment5A,18,1,"<?xml version=""1.0""?>\n<Clock xmlns:dt=""urn:schemas-microsoft-com:datatypes""><Description dt:dt=""string"">E-Prime Primary Realtime Clock</Description><StartTime><Timestamp dt:dt=""int"">0</Timestamp><DateUtc dt:dt=""string"">2018-10-11T21:17:35Z</DateUtc></StartTime><FrequencyChanges><FrequencyChange><Frequency dt:dt=""r8"">3215244</Frequency><Timestamp dt:dt=""r8"">5514343093876</Timestamp><Current dt:dt=""r8"">0</Current><DateUtc dt:dt=""string"">2018-10-11T21:17:35Z</DateUtc></FrequencyChange></FrequencyChanges></Clock>\n",KW_Experiment5A-18-1,59.944,1.0.0.105,2,-394305907,Professional,2.0.10.353,2.0.10.353,10/11/2018,10/11/2018 21:17,17:17:35,2.0.10.248,3,2,1,3,,,,,,,,TrainingProc,BlockList,10,2,Distractor2.bmp,2,0,,0,1,162998,400,,0,0,cyan,400,1,400,4,horizontal,cyan,Distractor2.bmp,lime,Target2.bmp,red,Distractor2.bmp,purple,Distractor1.bmp,yellow,Distractor2.bmp,blue,Distractor2.bmp,,,,TrialProc,,TrainingTrialList,1,2,-999999,0,163398,0,2,468,163866,Target2.bmp,lime,2,,,,2,4,58
KW_Experiment5A,18,1,"<?xml version=""1.0""?>\n<Clock xmlns:dt=""urn:schemas-microsoft-com:datatypes""><Description dt:dt=""string"">E-Prime Primary Realtime Clock</Description><StartTime><Timestamp dt:dt=""int"">0</Timestamp><DateUtc dt:dt=""string"">2018-10-11T21:17:35Z</DateUtc></StartTime><FrequencyChanges><FrequencyChange><Frequency dt:dt=""r8"">3215244</Frequency><Timestamp dt:dt=""r8"">5514343093876</Timestamp><Current dt:dt=""r8"">0</Current><DateUtc dt:dt=""string"">2018-10-11T21:17:35Z</DateUtc></FrequencyChange></FrequencyChanges></Clock>\n",KW_Experiment5A-18-1,59.944,1.0.0.105,2,-394305907,Professional,2.0.10.353,2.0.10.353,10/11/2018,10/11/2018 21:17,17:17:35,2.0.10.248,3,2,1,3,,,,,,,,TrainingProc,BlockList,11,1,Distractor1.bmp,1,0,,0,1,164883,401,,0,0,yellow,400,1,400,,vertical,yellow,Distractor1.bmp,blue,Distractor2.bmp,cyan,Distractor1.bmp,purple,Distractor1.bmp,red,Target1.bmp,lime,Distractor1.bmp,,,,TrialProc,2,TrainingTrialList,1,1,-999999,1,165284,0,1,382,165666,Target1.bmp,red,1,,,,11,4,59
KW_Experiment5A,18,1,"<?xml version=""1.0""?>\n<Clock xmlns:dt=""urn:schemas-microsoft-com:datatypes""><Description dt:dt=""string"">E-Prime Primary Realtime Clock</Description><StartTime><Timestamp dt:dt=""int"">0</Timestamp><DateUtc dt:dt=""string"">2018-10-11T21:17:35Z</DateUtc></StartTime><FrequencyChanges><FrequencyChange><Frequency dt:dt=""r8"">3215244</Frequency><Timestamp dt:dt=""r8"">5514343093876</Timestamp><Current dt:dt=""r8"">0</Current><DateUtc dt:dt=""string"">2018-10-11T21:17:35Z</DateUtc></FrequencyChange></FrequencyChanges></Clock>\n",KW_Experiment5A-18-1,59.944,1.0.0.105,2,-394305907,Professional,2.0.10.353,2.0.10.353,10/11/2018,10/11/2018 21:17,17:17:35,2.0.10.248,3,2,1,3,,,,,,,,TrainingProc,BlockList,12,2,Distractor2.bmp,2,0,,0,1,166685,600,,0,0,yellow,600,3,600,,horizontal,red,Target2.bmp,purple,Distractor2.bmp,lime,Distractor2.bmp,cyan,Distractor2.bmp,blue,Distractor2.bmp,yellow,Distractor1.bmp,,,,TrialProc,2,TrainingTrialList,1,2,-999999,0,167285,0,2,365,167650,Target2.bmp,red,2,,,,7,4,60
KW_Experiment5A,18,1,"<?xml version=""1.0""?>\n<Clock xmlns:dt=""urn:schemas-microsoft-com:datatypes""><Description dt:dt=""string"">E-Prime Primary Realtime Clock</Description><StartTime><Timestamp dt:dt=""int"">0</Timestamp><DateUtc dt:dt=""string"">2018-10-11T21:17:35Z</DateUtc></StartTime><FrequencyChanges><FrequencyChange><Frequency dt:dt=""r8"">3215244</Frequency><Timestamp dt:dt=""r8"">5514343093876</Timestamp><Current dt:dt=""r8"">0</Current><DateUtc dt:dt=""string"">2018-10-11T21:17:35Z</DateUtc></FrequencyChange></FrequencyChanges></Clock>\n",KW_Experiment5A-18-1,59.944,1.0.0.105,2,-394305907,Professional,2.0.10.353,2.0.10.353,10/11/2018,10/11/2018 21:17,17:17:35,2.0.10.248,3,2,1,3,,,,,,,,TrainingProc,BlockList,13,1,Distractor1.bmp,1,0,,0,1,168670,501,,0,0,cyan,500,2,500,,vertical,cyan,Distractor2.bmp,yellow,Distractor1.bmp,lime,Distractor2.bmp,blue,Distractor2.bmp,red,Target1.bmp,purple,Distractor1.bmp,,,,TrialProc,4,TrainingTrialList,1,1,-999999,1,169171,0,1,343,169514,Target1.bmp,red,1,,,,11,4,61
KW_Experiment5A,18,1,"<?xml version=""1.0""?>\n<Clock xmlns:dt=""urn:schemas-microsoft-com:datatypes""><Description dt:dt=""string"">E-Prime Primary Realtime Clock</Description><StartTime><Timestamp dt:dt=""int"">0</Timestamp><DateUtc dt:dt=""string"">2018-10-11T21:17:35Z</DateUtc></StartTime><FrequencyChanges><FrequencyChange><Frequency dt:dt=""r8"">3215244</Frequency><Timestamp dt:dt=""r8"">5514343093876</Timestamp><Current dt:dt=""r8"">0</Current><DateUtc dt:dt=""string"">2018-10-11T21:17:35Z</DateUtc></FrequencyChange></FrequencyChanges></Clock>\n",KW_Experiment5A-18-1,59.944,1.0.0.105,2,-394305907,Professional,2.0.10.353,2.0.10.353,10/11/2018,10/11/2018 21:17,17:17:35,2.0.10.248,3,2,1,3,,,,,,,,TrainingProc,BlockList,14,1,Distractor2.bmp,2,0,,0,1,170538,601,,0,0,red,600,3,600,1,vertical,red,Distractor1.bmp,yellow,Distractor1.bmp,blue,Distractor1.bmp,lime,Target1.bmp,cyan,Distractor2.bmp,purple,Distractor2.bmp,,,,TrialProc,,TrainingTrialList,1,1,-999999,1,171139,0,1,575,171714,Target1.bmp,lime,1,,,,4,4,62
KW_Experiment5A,18,1,"<?xml version=""1.0""?>\n<Clock xmlns:dt=""urn:schemas-microsoft-com:datatypes""><Description dt:dt=""string"">E-Prime Primary Realtime Clock</Description><StartTime><Timestamp dt:dt=""int"">0</Timestamp><DateUtc dt:dt=""string"">2018-10-11T21:17:35Z</DateUtc></StartTime><FrequencyChanges><FrequencyChange><Frequency dt:dt=""r8"">3215244</Frequency><Timestamp dt:dt=""r8"">5514343093876</Timestamp><Current dt:dt=""r8"">0</Current><DateUtc dt:dt=""string"">2018-10-11T21:17:35Z</DateUtc></FrequencyChange></FrequencyChanges></Clock>\n",KW_Experiment5A-18-1,59.944,1.0.0.105,2,-394305907,Professional,2.0.10.353,2.0.10.353,10/11/2018,10/11/2018 21:17,17:17:35,2.0.10.248,3,2,1,3,,,,,,,,TrainingProc,BlockList,15,2,Distractor1.bmp,1,0,,0,1,172724,400,,0,0,yellow,400,1,400,,horizontal,yellow,Distractor1.bmp,purple,Distractor2.bmp,red,Target2.bmp,blue,Distractor1.bmp,lime,Distractor1.bmp,cyan,Distractor1.bmp,,,,TrialProc,2,TrainingTrialList,1,2,-999999,0,173124,0,2,390,173514,Target2.bmp,red,2,,,,9,4,63
KW_Experiment5A,18,1,"<?xml version=""1.0""?>\n<Clock xmlns:dt=""urn:schemas-microsoft-com:datatypes""><Description dt:dt=""string"">E-Prime Primary Realtime Clock</Description><StartTime><Timestamp dt:dt=""int"">0</Timestamp><DateUtc dt:dt=""string"">2018-10-11T21:17:35Z</DateUtc></StartTime><FrequencyChanges><FrequencyChange><Frequency dt:dt=""r8"">3215244</Frequency><Timestamp dt:dt=""r8"">5514343093876</Timestamp><Current dt:dt=""r8"">0</Current><DateUtc dt:dt=""string"">2018-10-11T21:17:35Z</DateUtc></FrequencyChange></FrequencyChanges></Clock>\n",KW_Experiment5A-18-1,59.944,1.0.0.105,2,-394305907,Professional,2.0.10.353,2.0.10.353,10/11/2018,10/11/2018 21:17,17:17:35,2.0.10.248,3,2,1,3,,,,,,,,TrainingProc,BlockList,16,2,Distractor1.bmp,1,0,,0,1,174525,501,,0,0,yellow,500,2,500,2,horizontal,yellow,Distractor1.bmp,cyan,Distractor2.bmp,purple,Distractor2.bmp,red,Distractor2.bmp,blue,Distractor2.bmp,lime,Target2.bmp,,,,TrialProc,,TrainingTrialList,1,2,-999999,1,175026,0,2,375,175401,Target2.bmp,lime,2,,,,6,4,64
KW_Experiment5A,18,1,"<?xml version=""1.0""?>\n<Clock xmlns:dt=""urn:schemas-microsoft-com:datatypes""><Description dt:dt=""string"">E-Prime Primary Realtime Clock</Description><StartTime><Timestamp dt:dt=""int"">0</Timestamp><DateUtc dt:dt=""string"">2018-10-11T21:17:35Z</DateUtc></StartTime><FrequencyChanges><FrequencyChange><Frequency dt:dt=""r8"">3215244</Frequency><Timestamp dt:dt=""r8"">5514343093876</Timestamp><Current dt:dt=""r8"">0</Current><DateUtc dt:dt=""string"">2018-10-11T21:17:35Z</DateUtc></FrequencyChange></FrequencyChanges></Clock>\n",KW_Experiment5A-18-1,59.944,1.0.0.105,2,-394305907,Professional,2.0.10.353,2.0.10.353,10/11/2018,10/11/2018 21:17,17:17:35,2.0.10.248,3,2,1,3,,,,,,,,TrainingProc,BlockList,17,1,Distractor1.bmp,1,0,,0,1,176427,401,,0,0,yellow,400,1,400,,vertical,yellow,Distractor1.bmp,blue,Distractor1.bmp,lime,Distractor1.bmp,purple,Distractor2.bmp,cyan,Distractor2.bmp,red,Target1.bmp,,,,TrialProc,2,TrainingTrialList,1,1,-999999,1,176828,0,1,549,177377,Target1.bmp,red,1,,,,12,4,65
KW_Experiment5A,18,1,"<?xml version=""1.0""?>\n<Clock xmlns:dt=""urn:schemas-microsoft-com:datatypes""><Description dt:dt=""string"">E-Prime Primary Realtime Clock</Description><StartTime><Timestamp dt:dt=""int"">0</Timestamp><DateUtc dt:dt=""string"">2018-10-11T21:17:35Z</DateUtc></StartTime><FrequencyChanges><FrequencyChange><Frequency dt:dt=""r8"">3215244</Frequency><Timestamp dt:dt=""r8"">5514343093876</Timestamp><Current dt:dt=""r8"">0</Current><DateUtc dt:dt=""string"">2018-10-11T21:17:35Z</DateUtc></FrequencyChange></FrequencyChanges></Clock>\n",KW_Experiment5A-18-1,59.944,1.0.0.105,2,-394305907,Professional,2.0.10.353,2.0.10.353,10/11/2018,10/11/2018 21:17,17:17:35,2.0.10.248,3,2,1,3,,,,,,,,TrainingProc,BlockList,18,1,Distractor2.bmp,2,0,,0,1,178396,600,,0,0,blue,600,3,600,,vertical,blue,Distractor2.bmp,yellow,Distractor1.bmp,purple,Distractor1.bmp,cyan,Distractor2.bmp,lime,Distractor2.bmp,red,Target1.bmp,,,,TrialProc,3,TrainingTrialList,1,1,-999999,0,178996,0,1,389,179385,Target1.bmp,red,1,,,,12,4,66
KW_Experiment5A,18,1,"<?xml version=""1.0""?>\n<Clock xmlns:dt=""urn:schemas-microsoft-com:datatypes""><Description dt:dt=""string"">E-Prime Primary Realtime Clock</Description><StartTime><Timestamp dt:dt=""int"">0</Timestamp><DateUtc dt:dt=""string"">2018-10-11T21:17:35Z</DateUtc></StartTime><FrequencyChanges><FrequencyChange><Frequency dt:dt=""r8"">3215244</Frequency><Timestamp dt:dt=""r8"">5514343093876</Timestamp><Current dt:dt=""r8"">0</Current><DateUtc dt:dt=""string"">2018-10-11T21:17:35Z</DateUtc></FrequencyChange></FrequencyChanges></Clock>\n",KW_Experiment5A-18-1,59.944,1.0.0.105,2,-394305907,Professional,2.0.10.353,2.0.10.353,10/11/2018,10/11/2018 21:17,17:17:35,2.0.10.248,3,2,1,3,,,,,,,,TrainingProc,BlockList,19,1,Distractor2.bmp,2,0,,1,0,180397,601,,0,0,lime,600,3,600,,vertical,lime,Distractor1.bmp,yellow,Distractor1.bmp,red,Target1.bmp,blue,Distractor2.bmp,cyan,Distractor1.bmp,purple,Distractor1.bmp,,,,TrialProc,6,TrainingTrialList,1,1,-999999,1,180998,0,1,459,181457,Target1.bmp,red,1,,,,9,4,67
KW_Experiment5A,18,1,"<?xml version=""1.0""?>\n<Clock xmlns:dt=""urn:schemas-microsoft-com:datatypes""><Description dt:dt=""string"">E-Prime Primary Realtime Clock</Description><StartTime><Timestamp dt:dt=""int"">0</Timestamp><DateUtc dt:dt=""string"">2018-10-11T21:17:35Z</DateUtc></StartTime><FrequencyChanges><FrequencyChange><Frequency dt:dt=""r8"">3215244</Frequency><Timestamp dt:dt=""r8"">5514343093876</Timestamp><Current dt:dt=""r8"">0</Current><DateUtc dt:dt=""string"">2018-10-11T21:17:35Z</DateUtc></FrequencyChange></FrequencyChanges></Clock>\n",KW_Experiment5A-18-1,59.944,1.0.0.105,2,-394305907,Professional,2.0.10.353,2.0.10.353,10/11/2018,10/11/2018 21:17,17:17:35,2.0.10.248,3,2,1,3,,,,,,,,TrainingProc,BlockList,20,1,Distractor2.bmp,2,0,,0,1,182483,600,,0,0,cyan,600,3,600,4,vertical,cyan,Distractor2.bmp,purple,Distractor2.bmp,red,Distractor1.bmp,blue,Distractor1.bmp,lime,Target1.bmp,yellow,Distractor2.bmp,,,,TrialProc,,TrainingTrialList,1,1,-999999,0,183083,0,1,382,183465,Target1.bmp,lime,1,,,,5,4,68
KW_Experiment5A,18,1,"<?xml version=""1.0""?>\n<Clock xmlns:dt=""urn:schemas-microsoft-com:datatypes""><Description dt:dt=""string"">E-Prime Primary Realtime Clock</Description><StartTime><Timestamp dt:dt=""int"">0</Timestamp><DateUtc dt:dt=""string"">2018-10-11T21:17:35Z</DateUtc></StartTime><FrequencyChanges><FrequencyChange><Frequency dt:dt=""r8"">3215244</Frequency><Timestamp dt:dt=""r8"">5514343093876</Timestamp><Current dt:dt=""r8"">0</Current><DateUtc dt:dt=""string"">2018-10-11T21:17:35Z</DateUtc></FrequencyChange></FrequencyChanges></Clock>\n",KW_Experiment5A-18-1,59.944,1.0.0.105,2,-394305907,Professional,2.0.10.353,2.0.10.353,10/11/2018,10/11/2018 21:17,17:17:35,2.0.10.248,3,2,1,3,,,,,,,,TrainingProc,BlockList,21,2,Distractor1.bmp,1,0,,0,1,184485,500,,0,0,cyan,500,2,500,,horizontal,cyan,Distractor2.bmp,purple,Distractor2.bmp,blue,Distractor1.bmp,red,Target2.bmp,lime,Distractor1.bmp,yellow,Distractor2.bmp,,,,TrialProc,4,TrainingTrialList,0,2,-999999,0,184985,0,1,400,185385,Target2.bmp,red,2,,,,10,4,69
KW_Experiment5A,18,1,"<?xml version=""1.0""?>\n<Clock xmlns:dt=""urn:schemas-microsoft-com:datatypes""><Description dt:dt=""string"">E-Prime Primary Realtime Clock</Description><StartTime><Timestamp dt:dt=""int"">0</Timestamp><DateUtc dt:dt=""string"">2018-10-11T21:17:35Z</DateUtc></StartTime><FrequencyChanges><FrequencyChange><Frequency dt:dt=""r8"">3215244</Frequency><Timestamp dt:dt=""r8"">5514343093876</Timestamp><Current dt:dt=""r8"">0</Current><DateUtc dt:dt=""string"">2018-10-11T21:17:35Z</DateUtc></FrequencyChange></FrequencyChanges></Clock>\n",KW_Experiment5A-18-1,59.944,1.0.0.105,2,-394305907,Professional,2.0.10.353,2.0.10.353,10/11/2018,10/11/2018 21:17,17:17:35,2.0.10.248,3,2,1,3,,,,,,,,TrainingProc,BlockList,22,2,Distractor1.bmp,1,0,,0,1,186403,601,,0,0,cyan,600,3,600,,horizontal,cyan,Distractor2.bmp,blue,Distractor2.bmp,red,Target2.bmp,purple,Distractor1.bmp,yellow,Distractor2.bmp,lime,Distractor2.bmp,,,,TrialProc,4,TrainingTrialList,1,2,-999999,1,187004,0,2,517,187521,Target2.bmp,red,2,,,,9,4,70
KW_Experiment5A,18,1,"<?xml version=""1.0""?>\n<Clock xmlns:dt=""urn:schemas-microsoft-com:datatypes""><Description dt:dt=""string"">E-Prime Primary Realtime Clock</Description><StartTime><Timestamp dt:dt=""int"">0</Timestamp><DateUtc dt:dt=""string"">2018-10-11T21:17:35Z</DateUtc></StartTime><FrequencyChanges><FrequencyChange><Frequency dt:dt=""r8"">3215244</Frequency><Timestamp dt:dt=""r8"">5514343093876</Timestamp><Current dt:dt=""r8"">0</Current><DateUtc dt:dt=""string"">2018-10-11T21:17:35Z</DateUtc></FrequencyChange></FrequencyChanges></Clock>\n",KW_Experiment5A-18-1,59.944,1.0.0.105,2,-394305907,Professional,2.0.10.353,2.0.10.353,10/11/2018,10/11/2018 21:17,17:17:35,2.0.10.248,3,2,1,3,,,,,,,,TrainingProc,BlockList,23,2,Distractor1.bmp,1,0,,0,1,188538,401,,0,0,blue,400,1,400,,horizontal,blue,Distractor1.bmp,lime,Distractor1.bmp,cyan,Distractor2.bmp,yellow,Distractor2.bmp,purple,Distractor1.bmp,red,Target2.bmp,,,,TrialProc,3,TrainingTrialList,1,2,-999999,1,188939,0,2,534,189473,Target2.bmp,red,2,,,,12,4,71
KW_Experiment5A,18,1,"<?xml version=""1.0""?>\n<Clock xmlns:dt=""urn:schemas-microsoft-com:datatypes""><Description dt:dt=""string"">E-Prime Primary Realtime Clock</Description><StartTime><Timestamp dt:dt=""int"">0</Timestamp><DateUtc dt:dt=""string"">2018-10-11T21:17:35Z</DateUtc></StartTime><FrequencyChanges><FrequencyChange><Frequency dt:dt=""r8"">3215244</Frequency><Timestamp dt:dt=""r8"">5514343093876</Timestamp><Current dt:dt=""r8"">0</Current><DateUtc dt:dt=""string"">2018-10-11T21:17:35Z</DateUtc></FrequencyChange></FrequencyChanges></Clock>\n",KW_Experiment5A-18-1,59.944,1.0.0.105,2,-394305907,Professional,2.0.10.353,2.0.10.353,10/11/2018,10/11/2018 21:17,17:17:35,2.0.10.248,3,2,1,3,,,,,,,,TrainingProc,BlockList,24,2,Distractor1.bmp,1,0,,0,1,190490,601,,0,0,yellow,600,3,600,2,horizontal,lime,Target2.bmp,yellow,Distractor1.bmp,red,Distractor2.bmp,blue,Distractor1.bmp,cyan,Distractor2.bmp,purple,Distractor2.bmp,,,,TrialProc,,TrainingTrialList,0,2,-999999,1,191091,0,1,662,191753,Target2.bmp,lime,2,,,,1,4,72
KW_Experiment5A,18,1,"<?xml version=""1.0""?>\n<Clock xmlns:dt=""urn:schemas-microsoft-com:datatypes""><Description dt:dt=""string"">E-Prime Primary Realtime Clock</Description><StartTime><Timestamp dt:dt=""int"">0</Timestamp><DateUtc dt:dt=""string"">2018-10-11T21:17:35Z</DateUtc></StartTime><FrequencyChanges><FrequencyChange><Frequency dt:dt=""r8"">3215244</Frequency><Timestamp dt:dt=""r8"">5514343093876</Timestamp><Current dt:dt=""r8"">0</Current><DateUtc dt:dt=""string"">2018-10-11T21:17:35Z</DateUtc></FrequencyChange></FrequencyChanges></Clock>\n",KW_Experiment5A-18-1,59.944,1.0.0.105,2,-394305907,Professional,2.0.10.353,2.0.10.353,10/11/2018,10/11/2018 21:17,17:17:35,2.0.10.248,3,2,1,3,,,,,,,,TrainingProc,BlockList,25,1,Distractor1.bmp,1,0,,0,1,192776,400,,0,0,cyan,400,1,400,,vertical,cyan,Distractor1.bmp,purple,Distractor2.bmp,blue,Distractor2.bmp,lime,Distractor2.bmp,yellow,Distractor1.bmp,red,Target1.bmp,,,,TrialProc,4,TrainingTrialList,1,1,-999999,0,193176,0,1,489,193665,Target1.bmp,red,1,,,,12,5,73
KW_Experiment5A,18,1,"<?xml version=""1.0""?>\n<Clock xmlns:dt=""urn:schemas-microsoft-com:datatypes""><Description dt:dt=""string"">E-Prime Primary Realtime Clock</Description><StartTime><Timestamp dt:dt=""int"">0</Timestamp><DateUtc dt:dt=""string"">2018-10-11T21:17:35Z</DateUtc></StartTime><FrequencyChanges><FrequencyChange><Frequency dt:dt=""r8"">3215244</Frequency><Timestamp dt:dt=""r8"">5514343093876</Timestamp><Current dt:dt=""r8"">0</Current><DateUtc dt:dt=""string"">2018-10-11T21:17:35Z</DateUtc></FrequencyChange></FrequencyChanges></Clock>\n",KW_Experiment5A-18-1,59.944,1.0.0.105,2,-394305907,Professional,2.0.10.353,2.0.10.353,10/11/2018,10/11/2018 21:17,17:17:35,2.0.10.248,3,2,1,3,,,,,,,,TrainingProc,BlockList,26,1,Distractor1.bmp,1,0,,0,1,194677,601,,0,0,purple,600,3,600,5,vertical,purple,Distractor2.bmp,red,Distractor2.bmp,blue,Distractor2.bmp,yellow,Distractor2.bmp,lime,Target1.bmp,cyan,Distractor1.bmp,,,,TrialProc,,TrainingTrialList,1,1,-999999,1,195278,0,1,435,195713,Target1.bmp,lime,1,,,,5,5,74
KW_Experiment5A,18,1,"<?xml version=""1.0""?>\n<Clock xmlns:dt=""urn:schemas-microsoft-com:datatypes""><Description dt:dt=""string"">E-Prime Primary Realtime Clock</Description><StartTime><Timestamp dt:dt=""int"">0</Timestamp><DateUtc dt:dt=""string"">2018-10-11T21:17:35Z</DateUtc></StartTime><FrequencyChanges><FrequencyChange><Frequency dt:dt=""r8"">3215244</Frequency><Timestamp dt:dt=""r8"">5514343093876</Timestamp><Current dt:dt=""r8"">0</Current><DateUtc dt:dt=""string"">2018-10-11T21:17:35Z</DateUtc></FrequencyChange></FrequencyChanges></Clock>\n",KW_Experiment5A-18-1,59.944,1.0.0.105,2,-394305907,Professional,2.0.10.353,2.0.10.353,10/11/2018,10/11/2018 21:17,17:17:35,2.0.10.248,3,2,1,3,,,,,,,,TrainingProc,BlockList,27,1,Distractor2.bmp,2,0,,0,1,196729,401,,0,0,yellow,400,1,400,,vertical,red,Target1.bmp,lime,Distractor2.bmp,purple,Distractor1.bmp,cyan,Distractor1.bmp,blue,Distractor2.bmp,yellow,Distractor1.bmp,,,,TrialProc,2,TrainingTrialList,1,1,-999999,1,197130,0,1,631,197761,Target1.bmp,red,1,,,,7,5,75
KW_Experiment5A,18,1,"<?xml version=""1.0""?>\n<Clock xmlns:dt=""urn:schemas-microsoft-com:datatypes""><Description dt:dt=""string"">E-Prime Primary Realtime Clock</Description><StartTime><Timestamp dt:dt=""int"">0</Timestamp><DateUtc dt:dt=""string"">2018-10-11T21:17:35Z</DateUtc></StartTime><FrequencyChanges><FrequencyChange><Frequency dt:dt=""r8"">3215244</Frequency><Timestamp dt:dt=""r8"">5514343093876</Timestamp><Current dt:dt=""r8"">0</Current><DateUtc dt:dt=""string"">2018-10-11T21:17:35Z</DateUtc></FrequencyChange></FrequencyChanges></Clock>\n",KW_Experiment5A-18-1,59.944,1.0.0.105,2,-394305907,Professional,2.0.10.353,2.0.10.353,10/11/2018,10/11/2018 21:17,17:17:35,2.0.10.248,3,2,1,3,,,,,,,,TrainingProc,BlockList,28,2,Distractor2.bmp,2,0,,0,1,198781,501,,0,0,blue,500,2,500,3,horizontal,blue,Distractor2.bmp,lime,Target2.bmp,yellow,Distractor2.bmp,cyan,Distractor2.bmp,red,Distractor2.bmp,purple,Distractor2.bmp,,,,TrialProc,,TrainingTrialList,1,2,-999999,1,199282,0,2,495,199777,Target2.bmp,lime,2,,,,2,5,76
KW_Experiment5A,18,1,"<?xml version=""1.0""?>\n<Clock xmlns:dt=""urn:schemas-microsoft-com:datatypes""><Description dt:dt=""string"">E-Prime Primary Realtime Clock</Description><StartTime><Timestamp dt:dt=""int"">0</Timestamp><DateUtc dt:dt=""string"">2018-10-11T21:17:35Z</DateUtc></StartTime><FrequencyChanges><FrequencyChange><Frequency dt:dt=""r8"">3215244</Frequency><Timestamp dt:dt=""r8"">5514343093876</Timestamp><Current dt:dt=""r8"">0</Current><DateUtc dt:dt=""string"">2018-10-11T21:17:35Z</DateUtc></FrequencyChange></FrequencyChanges></Clock>\n",KW_Experiment5A-18-1,59.944,1.0.0.105,2,-394305907,Professional,2.0.10.353,2.0.10.353,10/11/2018,10/11/2018 21:17,17:17:35,2.0.10.248,3,2,1,3,,,,,,,,TrainingProc,BlockList,29,1,Distractor2.bmp,2,0,,0,1,200800,400,,0,0,lime,400,1,400,,vertical,lime,Distractor2.bmp,blue,Distractor2.bmp,purple,Distractor1.bmp,yellow,Distractor2.bmp,cyan,Distractor2.bmp,red,Target1.bmp,,,,TrialProc,6,TrainingTrialList,1,1,-999999,0,201200,0,1,425,201625,Target1.bmp,red,1,,,,12,5,77
KW_Experiment5A,18,1,"<?xml version=""1.0""?>\n<Clock xmlns:dt=""urn:schemas-microsoft-com:datatypes""><Description dt:dt=""string"">E-Prime Primary Realtime Clock</Description><StartTime><Timestamp dt:dt=""int"">0</Timestamp><DateUtc dt:dt=""string"">2018-10-11T21:17:35Z</DateUtc></StartTime><FrequencyChanges><FrequencyChange><Frequency dt:dt=""r8"">3215244</Frequency><Timestamp dt:dt=""r8"">5514343093876</Timestamp><Current dt:dt=""r8"">0</Current><DateUtc dt:dt=""string"">2018-10-11T21:17:35Z</DateUtc></FrequencyChange></FrequencyChanges></Clock>\n",KW_Experiment5A-18-1,59.944,1.0.0.105,2,-394305907,Professional,2.0.10.353,2.0.10.353,10/11/2018,10/11/2018 21:17,17:17:35,2.0.10.248,3,2,1,3,,,,,,,,TrainingProc,BlockList,30,1,Distractor2.bmp,2,0,,0,1,202651,601,,0,0,lime,600,3,600,,vertical,lime,Distractor1.bmp,purple,Distractor2.bmp,yellow,Distractor1.bmp,cyan,Distractor2.bmp,red,Target1.bmp,blue,Distractor2.bmp,,,,TrialProc,6,TrainingTrialList,1,1,-999999,1,203252,0,1,429,203681,Target1.bmp,red,1,,,,11,5,78
KW_Experiment5A,18,1,"<?xml version=""1.0""?>\n<Clock xmlns:dt=""urn:schemas-microsoft-com:datatypes""><Description dt:dt=""string"">E-Prime Primary Realtime Clock</Description><StartTime><Timestamp dt:dt=""int"">0</Timestamp><DateUtc dt:dt=""string"">2018-10-11T21:17:35Z</DateUtc></StartTime><FrequencyChanges><FrequencyChange><Frequency dt:dt=""r8"">3215244</Frequency><Timestamp dt:dt=""r8"">5514343093876</Timestamp><Current dt:dt=""r8"">0</Current><DateUtc dt:dt=""string"">2018-10-11T21:17:35Z</DateUtc></FrequencyChange></FrequencyChanges></Clock>\n",KW_Experiment5A-18-1,59.944,1.0.0.105,2,-394305907,Professional,2.0.10.353,2.0.10.353,10/11/2018,10/11/2018 21:17,17:17:35,2.0.10.248,3,2,1,3,,,,,,,,TrainingProc,BlockList,31,1,Distractor1.bmp,1,0,,0,1,204703,601,,0,0,lime,600,3,600,,vertical,lime,Distractor2.bmp,red,Target1.bmp,blue,Distractor1.bmp,purple,Distractor1.bmp,cyan,Distractor2.bmp,yellow,Distractor1.bmp,,,,TrialProc,6,TrainingTrialList,1,1,-999999,1,205304,0,1,425,205729,Target1.bmp,red,1,,,,8,5,79
KW_Experiment5A,18,1,"<?xml version=""1.0""?>\n<Clock xmlns:dt=""urn:schemas-microsoft-com:datatypes""><Description dt:dt=""string"">E-Prime Primary Realtime Clock</Description><StartTime><Timestamp dt:dt=""int"">0</Timestamp><DateUtc dt:dt=""string"">2018-10-11T21:17:35Z</DateUtc></StartTime><FrequencyChanges><FrequencyChange><Frequency dt:dt=""r8"">3215244</Frequency><Timestamp dt:dt=""r8"">5514343093876</Timestamp><Current dt:dt=""r8"">0</Current><DateUtc dt:dt=""string"">2018-10-11T21:17:35Z</DateUtc></FrequencyChange></FrequencyChanges></Clock>\n",KW_Experiment5A-18-1,59.944,1.0.0.105,2,-394305907,Professional,2.0.10.353,2.0.10.353,10/11/2018,10/11/2018 21:17,17:17:35,2.0.10.248,3,2,1,3,,,,,,,,TrainingProc,BlockList,32,1,Distractor2.bmp,2,0,,0,1,206755,501,,0,0,yellow,500,2,500,,vertical,yellow,Distractor2.bmp,blue,Distractor1.bmp,lime,Distractor2.bmp,red,Target1.bmp,purple,Distractor2.bmp,cyan,Distractor2.bmp,,,,TrialProc,2,TrainingTrialList,1,1,-999999,1,207256,0,1,369,207625,Target1.bmp,red,1,,,,10,5,80
KW_Experiment5A,18,1,"<?xml version=""1.0""?>\n<Clock xmlns:dt=""urn:schemas-microsoft-com:datatypes""><Description dt:dt=""string"">E-Prime Primary Realtime Clock</Description><StartTime><Timestamp dt:dt=""int"">0</Timestamp><DateUtc dt:dt=""string"">2018-10-11T21:17:35Z</DateUtc></StartTime><FrequencyChanges><FrequencyChange><Frequency dt:dt=""r8"">3215244</Frequency><Timestamp dt:dt=""r8"">5514343093876</Timestamp><Current dt:dt=""r8"">0</Current><DateUtc dt:dt=""string"">2018-10-11T21:17:35Z</DateUtc></FrequencyChange></FrequencyChanges></Clock>\n",KW_Experiment5A-18-1,59.944,1.0.0.105,2,-394305907,Professional,2.0.10.353,2.0.10.353,10/11/2018,10/11/2018 21:17,17:17:35,2.0.10.248,3,2,1,3,,,,,,,,TrainingProc,BlockList,33,2,Distractor1.bmp,1,0,,0,1,208640,601,,0,0,yellow,600,3,600,,horizontal,yellow,Distractor2.bmp,red,Target2.bmp,lime,Distractor1.bmp,cyan,Distractor1.bmp,purple,Distractor1.bmp,blue,Distractor2.bmp,,,,TrialProc,2,TrainingTrialList,1,2,-999999,1,209241,0,2,344,209585,Target2.bmp,red,2,,,,8,5,81
KW_Experiment5A,18,1,"<?xml version=""1.0""?>\n<Clock xmlns:dt=""urn:schemas-microsoft-com:datatypes""><Description dt:dt=""string"">E-Prime Primary Realtime Clock</Description><StartTime><Timestamp dt:dt=""int"">0</Timestamp><DateUtc dt:dt=""string"">2018-10-11T21:17:35Z</DateUtc></StartTime><FrequencyChanges><FrequencyChange><Frequency dt:dt=""r8"">3215244</Frequency><Timestamp dt:dt=""r8"">5514343093876</Timestamp><Current dt:dt=""r8"">0</Current><DateUtc dt:dt=""string"">2018-10-11T21:17:35Z</DateUtc></FrequencyChange></FrequencyChanges></Clock>\n",KW_Experiment5A-18-1,59.944,1.0.0.105,2,-394305907,Professional,2.0.10.353,2.0.10.353,10/11/2018,10/11/2018 21:17,17:17:35,2.0.10.248,3,2,1,3,,,,,,,,TrainingProc,BlockList,34,1,Distractor1.bmp,1,0,,0,1,210609,500,,0,0,lime,500,2,500,,vertical,lime,Distractor1.bmp,yellow,Distractor1.bmp,cyan,Distractor2.bmp,blue,Distractor2.bmp,red,Target1.bmp,purple,Distractor1.bmp,,,,TrialProc,6,TrainingTrialList,1,1,-999999,0,211109,0,1,372,211481,Target1.bmp,red,1,,,,11,5,82
KW_Experiment5A,18,1,"<?xml version=""1.0""?>\n<Clock xmlns:dt=""urn:schemas-microsoft-com:datatypes""><Description dt:dt=""string"">E-Prime Primary Realtime Clock</Description><StartTime><Timestamp dt:dt=""int"">0</Timestamp><DateUtc dt:dt=""string"">2018-10-11T21:17:35Z</DateUtc></StartTime><FrequencyChanges><FrequencyChange><Frequency dt:dt=""r8"">3215244</Frequency><Timestamp dt:dt=""r8"">5514343093876</Timestamp><Current dt:dt=""r8"">0</Current><DateUtc dt:dt=""string"">2018-10-11T21:17:35Z</DateUtc></FrequencyChange></FrequencyChanges></Clock>\n",KW_Experiment5A-18-1,59.944,1.0.0.105,2,-394305907,Professional,2.0.10.353,2.0.10.353,10/11/2018,10/11/2018 21:17,17:17:35,2.0.10.248,3,2,1,3,,,,,,,,TrainingProc,BlockList,35,2,Distractor1.bmp,1,0,,0,1,212494,400,,0,0,blue,400,1,400,3,horizontal,blue,Distractor1.bmp,cyan,Distractor1.bmp,yellow,Distractor1.bmp,lime,Target2.bmp,purple,Distractor1.bmp,red,Distractor2.bmp,,,,TrialProc,,TrainingTrialList,0,2,-999999,0,212894,0,1,403,213297,Target2.bmp,lime,2,,,,4,5,83
KW_Experiment5A,18,1,"<?xml version=""1.0""?>\n<Clock xmlns:dt=""urn:schemas-microsoft-com:datatypes""><Description dt:dt=""string"">E-Prime Primary Realtime Clock</Description><StartTime><Timestamp dt:dt=""int"">0</Timestamp><DateUtc dt:dt=""string"">2018-10-11T21:17:35Z</DateUtc></StartTime><FrequencyChanges><FrequencyChange><Frequency dt:dt=""r8"">3215244</Frequency><Timestamp dt:dt=""r8"">5514343093876</Timestamp><Current dt:dt=""r8"">0</Current><DateUtc dt:dt=""string"">2018-10-11T21:17:35Z</DateUtc></FrequencyChange></FrequencyChanges></Clock>\n",KW_Experiment5A-18-1,59.944,1.0.0.105,2,-394305907,Professional,2.0.10.353,2.0.10.353,10/11/2018,10/11/2018 21:17,17:17:35,2.0.10.248,3,2,1,3,,,,,,,,TrainingProc,BlockList,36,2,Distractor2.bmp,2,0,,0,1,214312,401,,0,0,lime,400,1,400,,horizontal,lime,Distractor1.bmp,yellow,Distractor1.bmp,red,Target2.bmp,purple,Distractor2.bmp,blue,Distractor1.bmp,cyan,Distractor2.bmp,,,,TrialProc,6,TrainingTrialList,1,2,-999999,1,214713,0,2,432,215145,Target2.bmp,red,2,,,,9,5,84
KW_Experiment5A,18,1,"<?xml version=""1.0""?>\n<Clock xmlns:dt=""urn:schemas-microsoft-com:datatypes""><Description dt:dt=""string"">E-Prime Primary Realtime Clock</Description><StartTime><Timestamp dt:dt=""int"">0</Timestamp><DateUtc dt:dt=""string"">2018-10-11T21:17:35Z</DateUtc></StartTime><FrequencyChanges><FrequencyChange><Frequency dt:dt=""r8"">3215244</Frequency><Timestamp dt:dt=""r8"">5514343093876</Timestamp><Current dt:dt=""r8"">0</Current><DateUtc dt:dt=""string"">2018-10-11T21:17:35Z</DateUtc></FrequencyChange></FrequencyChanges></Clock>\n",KW_Experiment5A-18-1,59.944,1.0.0.105,2,-394305907,Professional,2.0.10.353,2.0.10.353,10/11/2018,10/11/2018 21:17,17:17:35,2.0.10.248,3,2,1,3,,,,,,,,TrainingProc,BlockList,37,1,Distractor1.bmp,1,0,,0,1,216164,500,,0,0,lime,500,2,500,,vertical,lime,Distractor2.bmp,red,Target1.bmp,cyan,Distractor1.bmp,purple,Distractor2.bmp,yellow,Distractor2.bmp,blue,Distractor2.bmp,,,,TrialProc,6,TrainingTrialList,1,1,-999999,0,216664,0,1,513,217177,Target1.bmp,red,1,,,,8,5,85
KW_Experiment5A,18,1,"<?xml version=""1.0""?>\n<Clock xmlns:dt=""urn:schemas-microsoft-com:datatypes""><Description dt:dt=""string"">E-Prime Primary Realtime Clock</Description><StartTime><Timestamp dt:dt=""int"">0</Timestamp><DateUtc dt:dt=""string"">2018-10-11T21:17:35Z</DateUtc></StartTime><FrequencyChanges><FrequencyChange><Frequency dt:dt=""r8"">3215244</Frequency><Timestamp dt:dt=""r8"">5514343093876</Timestamp><Current dt:dt=""r8"">0</Current><DateUtc dt:dt=""string"">2018-10-11T21:17:35Z</DateUtc></FrequencyChange></FrequencyChanges></Clock>\n",KW_Experiment5A-18-1,59.944,1.0.0.105,2,-394305907,Professional,2.0.10.353,2.0.10.353,10/11/2018,10/11/2018 21:17,17:17:35,2.0.10.248,3,2,1,3,,,,,,,,TrainingProc,BlockList,38,1,Distractor1.bmp,1,0,,0,1,218199,400,,0,0,blue,400,1,400,3,vertical,blue,Distractor2.bmp,purple,Distractor2.bmp,lime,Target1.bmp,yellow,Distractor1.bmp,red,Distractor2.bmp,cyan,Distractor2.bmp,,,,TrialProc,,TrainingTrialList,1,1,-999999,0,218599,0,1,746,219345,Target1.bmp,lime,1,,,,3,5,86
KW_Experiment5A,18,1,"<?xml version=""1.0""?>\n<Clock xmlns:dt=""urn:schemas-microsoft-com:datatypes""><Description dt:dt=""string"">E-Prime Primary Realtime Clock</Description><StartTime><Timestamp dt:dt=""int"">0</Timestamp><DateUtc dt:dt=""string"">2018-10-11T21:17:35Z</DateUtc></StartTime><FrequencyChanges><FrequencyChange><Frequency dt:dt=""r8"">3215244</Frequency><Timestamp dt:dt=""r8"">5514343093876</Timestamp><Current dt:dt=""r8"">0</Current><DateUtc dt:dt=""string"">2018-10-11T21:17:35Z</DateUtc></FrequencyChange></FrequencyChanges></Clock>\n",KW_Experiment5A-18-1,59.944,1.0.0.105,2,-394305907,Professional,2.0.10.353,2.0.10.353,10/11/2018,10/11/2018 21:17,17:17:35,2.0.10.248,3,2,1,3,,,,,,,,TrainingProc,BlockList,39,2,Distractor2.bmp,2,0,,0,1,220368,600,,0,0,lime,600,3,600,,horizontal,red,Target2.bmp,yellow,Distractor2.bmp,purple,Distractor2.bmp,blue,Distractor2.bmp,cyan,Distractor1.bmp,lime,Distractor1.bmp,,,,TrialProc,6,TrainingTrialList,1,2,-999999,0,220968,0,2,633,221601,Target2.bmp,red,2,,,,7,5,87
KW_Experiment5A,18,1,"<?xml version=""1.0""?>\n<Clock xmlns:dt=""urn:schemas-microsoft-com:datatypes""><Description dt:dt=""string"">E-Prime Primary Realtime Clock</Description><StartTime><Timestamp dt:dt=""int"">0</Timestamp><DateUtc dt:dt=""string"">2018-10-11T21:17:35Z</DateUtc></StartTime><FrequencyChanges><FrequencyChange><Frequency dt:dt=""r8"">3215244</Frequency><Timestamp dt:dt=""r8"">5514343093876</Timestamp><Current dt:dt=""r8"">0</Current><DateUtc dt:dt=""string"">2018-10-11T21:17:35Z</DateUtc></FrequencyChange></FrequencyChanges></Clock>\n",KW_Experiment5A-18-1,59.944,1.0.0.105,2,-394305907,Professional,2.0.10.353,2.0.10.353,10/11/2018,10/11/2018 21:17,17:17:35,2.0.10.248,3,2,1,3,,,,,,,,TrainingProc,BlockList,40,2,Distractor2.bmp,2,0,,0,1,222620,400,,0,0,cyan,400,1,400,,horizontal,cyan,Distractor2.bmp,blue,Distractor2.bmp,yellow,Distractor1.bmp,red,Target2.bmp,lime,Distractor2.bmp,purple,Distractor1.bmp,,,,TrialProc,4,TrainingTrialList,1,2,-999999,0,223020,0,2,493,223513,Target2.bmp,red,2,,,,10,5,88
KW_Experiment5A,18,1,"<?xml version=""1.0""?>\n<Clock xmlns:dt=""urn:schemas-microsoft-com:datatypes""><Description dt:dt=""string"">E-Prime Primary Realtime Clock</Description><StartTime><Timestamp dt:dt=""int"">0</Timestamp><DateUtc dt:dt=""string"">2018-10-11T21:17:35Z</DateUtc></StartTime><FrequencyChanges><FrequencyChange><Frequency dt:dt=""r8"">3215244</Frequency><Timestamp dt:dt=""r8"">5514343093876</Timestamp><Current dt:dt=""r8"">0</Current><DateUtc dt:dt=""string"">2018-10-11T21:17:35Z</DateUtc></FrequencyChange></FrequencyChanges></Clock>\n",KW_Experiment5A-18-1,59.944,1.0.0.105,2,-394305907,Professional,2.0.10.353,2.0.10.353,10/11/2018,10/11/2018 21:17,17:17:35,2.0.10.248,3,2,1,3,,,,,,,,TrainingProc,BlockList,41,1,Distractor2.bmp,2,0,,0,1,224538,501,,0,0,blue,500,2,500,,vertical,blue,Distractor1.bmp,purple,Distractor2.bmp,red,Target1.bmp,yellow,Distractor2.bmp,lime,Distractor1.bmp,cyan,Distractor1.bmp,,,,TrialProc,3,TrainingTrialList,1,1,-999999,1,225039,0,1,482,225521,Target1.bmp,red,1,,,,9,5,89
KW_Experiment5A,18,1,"<?xml version=""1.0""?>\n<Clock xmlns:dt=""urn:schemas-microsoft-com:datatypes""><Description dt:dt=""string"">E-Prime Primary Realtime Clock</Description><StartTime><Timestamp dt:dt=""int"">0</Timestamp><DateUtc dt:dt=""string"">2018-10-11T21:17:35Z</DateUtc></StartTime><FrequencyChanges><FrequencyChange><Frequency dt:dt=""r8"">3215244</Frequency><Timestamp dt:dt=""r8"">5514343093876</Timestamp><Current dt:dt=""r8"">0</Current><DateUtc dt:dt=""string"">2018-10-11T21:17:35Z</DateUtc></FrequencyChange></FrequencyChanges></Clock>\n",KW_Experiment5A-18-1,59.944,1.0.0.105,2,-394305907,Professional,2.0.10.353,2.0.10.353,10/11/2018,10/11/2018 21:17,17:17:35,2.0.10.248,3,2,1,3,,,,,,,,TrainingProc,BlockList,42,2,Distractor1.bmp,1,0,,0,1,226540,601,,0,0,purple,600,3,600,,horizontal,purple,Distractor1.bmp,lime,Distractor2.bmp,blue,Distractor1.bmp,cyan,Distractor1.bmp,red,Target2.bmp,yellow,Distractor1.bmp,,,,TrialProc,5,TrainingTrialList,1,2,-999999,1,227141,0,2,428,227569,Target2.bmp,red,2,,,,11,5,90
