ExperimentName,Subject,Session,Clock.Information,DataFile.Basename,Display.RefreshRate,ExperimentVersion,Group,RandomSeed,RuntimeCapabilities,RuntimeVersion,RuntimeVersionExpected,SessionDate,SessionStartDateTimeUtc,SessionTime,StudioVersion,Block,BlockList,BlockList.Cycle,BlockList.Sample,PostTestQ1.RESP,PostTestQ1CJ.RESP,PostTestQ2.RESP,PostTestQ2CJ.RESP,PostTestQ3.RESP,PostTestQ3CJ.RESP,PostTestSlide.RESP,Procedure[Block],Running[Block],Trial,CorrectResponse,Distractor,DistractorList,Fixation.ACC,Fixation.CRESP,Fixation.DurationError,Fixation.OnsetDelay,Fixation.OnsetTime,Fixation.OnsetToOnsetTime,Fixation.RESP,Fixation.RT,Fixation.RTTime,ItemColor,Jitter,JitterList,JitterTime,Lime0List,Orientation,Pos1Color,Pos1Item,Pos2Color,Pos2Item,Pos3Color,Pos3Item,Pos4Color,Pos4Item,Pos5Color,Pos5Item,Pos6Color,Pos6Item,PracticeTrialList,PracticeTrialList.Cycle,PracticeTrialList.Sample,Procedure[Trial],Red0List,Running[Trial],Stimulus.ACC,Stimulus.CRESP,Stimulus.DurationError,Stimulus.OnsetDelay,Stimulus.OnsetTime,Stimulus.OnsetToOnsetTime,Stimulus.RESP,Stimulus.RT,Stimulus.RTTime,Target,TargetColor,TargetList,TestTrialList,TestTrialList.Cycle,TestTrialList.Sample,TrainingTrialList,TrainingTrialList.Cycle,TrainingTrialList.Sample
KW_Experiment5A,17,1,"<?xml version=""1.0""?>\n<Clock xmlns:dt=""urn:schemas-microsoft-com:datatypes""><Description dt:dt=""string"">E-Prime Primary Realtime Clock</Description><StartTime><Timestamp dt:dt=""int"">0</Timestamp><DateUtc dt:dt=""string"">2018-10-11T21:17:12Z</DateUtc></StartTime><FrequencyChanges><FrequencyChange><Frequency dt:dt=""r8"">3215292</Frequency><Timestamp dt:dt=""r8"">4230837846023</Timestamp><Current dt:dt=""r8"">0</Current><DateUtc dt:dt=""string"">2018-10-11T21:17:12Z</DateUtc></FrequencyChange></FrequencyChanges></Clock>\n",KW_Experiment5A-17-1,59.945,1.0.0.105,1,295693217,Professional,2.0.10.353,2.0.10.353,10/11/2018,10/11/2018 21:17,17:17:12,2.0.10.248,1,1,1,1,,,,,,,,PracticeProc,BlockList,1,1,Distractor2.bmp,2,0,,0,43,39472,500,,0,0,blue,500,2,500,3,vertical,lime,Target1.bmp,purple,Distractor2.bmp,red,Distractor1.bmp,cyan,Distractor2.bmp,yellow,Distractor1.bmp,blue,Distractor2.bmp,1,1,1,TrialProc,,PracticeTrialList,1,1,-999999,0,39972,0,1,9601,49573,Target1.bmp,lime,1,,,,,,
KW_Experiment5A,17,1,"<?xml version=""1.0""?>\n<Clock xmlns:dt=""urn:schemas-microsoft-com:datatypes""><Description dt:dt=""string"">E-Prime Primary Realtime Clock</Description><StartTime><Timestamp dt:dt=""int"">0</Timestamp><DateUtc dt:dt=""string"">2018-10-11T21:17:12Z</DateUtc></StartTime><FrequencyChanges><FrequencyChange><Frequency dt:dt=""r8"">3215292</Frequency><Timestamp dt:dt=""r8"">4230837846023</Timestamp><Current dt:dt=""r8"">0</Current><DateUtc dt:dt=""string"">2018-10-11T21:17:12Z</DateUtc></FrequencyChange></FrequencyChanges></Clock>\n",KW_Experiment5A-17-1,59.945,1.0.0.105,1,295693217,Professional,2.0.10.353,2.0.10.353,10/11/2018,10/11/2018 21:17,17:17:12,2.0.10.248,1,1,1,1,,,,,,,,PracticeProc,BlockList,2,2,Distractor2.bmp,2,0,,0,1,50599,600,,0,0,red,600,3,600,1,horizontal,cyan,Distractor1.bmp,blue,Distractor1.bmp,yellow,Distractor1.bmp,red,Distractor2.bmp,lime,Target2.bmp,purple,Distractor2.bmp,5,1,2,TrialProc,,PracticeTrialList,0,2,-999999,0,51199,0,1,4406,55605,Target2.bmp,lime,2,,,,,,
KW_Experiment5A,17,1,"<?xml version=""1.0""?>\n<Clock xmlns:dt=""urn:schemas-microsoft-com:datatypes""><Description dt:dt=""string"">E-Prime Primary Realtime Clock</Description><StartTime><Timestamp dt:dt=""int"">0</Timestamp><DateUtc dt:dt=""string"">2018-10-11T21:17:12Z</DateUtc></StartTime><FrequencyChanges><FrequencyChange><Frequency dt:dt=""r8"">3215292</Frequency><Timestamp dt:dt=""r8"">4230837846023</Timestamp><Current dt:dt=""r8"">0</Current><DateUtc dt:dt=""string"">2018-10-11T21:17:12Z</DateUtc></FrequencyChange></FrequencyChanges></Clock>\n",KW_Experiment5A-17-1,59.945,1.0.0.105,1,295693217,Professional,2.0.10.353,2.0.10.353,10/11/2018,10/11/2018 21:17,17:17:12,2.0.10.248,1,1,1,1,,,,,,,,PracticeProc,BlockList,3,1,Distractor1.bmp,1,0,,0,1,56621,500,,0,0,blue,500,2,500,3,vertical,yellow,Distractor2.bmp,blue,Distractor2.bmp,lime,Target1.bmp,purple,Distractor1.bmp,cyan,Distractor1.bmp,red,Distractor2.bmp,3,1,3,TrialProc,,PracticeTrialList,1,1,-999999,0,57121,0,1,1068,58189,Target1.bmp,lime,1,,,,,,
KW_Experiment5A,17,1,"<?xml version=""1.0""?>\n<Clock xmlns:dt=""urn:schemas-microsoft-com:datatypes""><Description dt:dt=""string"">E-Prime Primary Realtime Clock</Description><StartTime><Timestamp dt:dt=""int"">0</Timestamp><DateUtc dt:dt=""string"">2018-10-11T21:17:12Z</DateUtc></StartTime><FrequencyChanges><FrequencyChange><Frequency dt:dt=""r8"">3215292</Frequency><Timestamp dt:dt=""r8"">4230837846023</Timestamp><Current dt:dt=""r8"">0</Current><DateUtc dt:dt=""string"">2018-10-11T21:17:12Z</DateUtc></FrequencyChange></FrequencyChanges></Clock>\n",KW_Experiment5A-17-1,59.945,1.0.0.105,1,295693217,Professional,2.0.10.353,2.0.10.353,10/11/2018,10/11/2018 21:17,17:17:12,2.0.10.248,1,1,1,1,,,,,,,,PracticeProc,BlockList,4,2,Distractor1.bmp,1,0,,0,1,59207,600,,0,0,yellow,600,3,600,,horizontal,yellow,Distractor1.bmp,red,Target2.bmp,blue,Distractor1.bmp,cyan,Distractor1.bmp,lime,Distractor2.bmp,purple,Distractor2.bmp,2,1,4,TrialProc,2,PracticeTrialList,1,2,-999999,0,59807,0,2,662,60469,Target2.bmp,red,2,,,,,,
KW_Experiment5A,17,1,"<?xml version=""1.0""?>\n<Clock xmlns:dt=""urn:schemas-microsoft-com:datatypes""><Description dt:dt=""string"">E-Prime Primary Realtime Clock</Description><StartTime><Timestamp dt:dt=""int"">0</Timestamp><DateUtc dt:dt=""string"">2018-10-11T21:17:12Z</DateUtc></StartTime><FrequencyChanges><FrequencyChange><Frequency dt:dt=""r8"">3215292</Frequency><Timestamp dt:dt=""r8"">4230837846023</Timestamp><Current dt:dt=""r8"">0</Current><DateUtc dt:dt=""string"">2018-10-11T21:17:12Z</DateUtc></FrequencyChange></FrequencyChanges></Clock>\n",KW_Experiment5A-17-1,59.945,1.0.0.105,1,295693217,Professional,2.0.10.353,2.0.10.353,10/11/2018,10/11/2018 21:17,17:17:12,2.0.10.248,1,1,1,1,,,,,,,,PracticeProc,BlockList,5,2,Distractor1.bmp,1,0,,0,1,61492,400,,0,0,yellow,400,1,400,,horizontal,cyan,Distractor2.bmp,lime,Distractor1.bmp,yellow,Distractor1.bmp,red,Target2.bmp,blue,Distractor1.bmp,purple,Distractor2.bmp,4,1,5,TrialProc,2,PracticeTrialList,1,2,-999999,0,61892,0,2,681,62573,Target2.bmp,red,2,,,,,,
KW_Experiment5A,17,1,"<?xml version=""1.0""?>\n<Clock xmlns:dt=""urn:schemas-microsoft-com:datatypes""><Description dt:dt=""string"">E-Prime Primary Realtime Clock</Description><StartTime><Timestamp dt:dt=""int"">0</Timestamp><DateUtc dt:dt=""string"">2018-10-11T21:17:12Z</DateUtc></StartTime><FrequencyChanges><FrequencyChange><Frequency dt:dt=""r8"">3215292</Frequency><Timestamp dt:dt=""r8"">4230837846023</Timestamp><Current dt:dt=""r8"">0</Current><DateUtc dt:dt=""string"">2018-10-11T21:17:12Z</DateUtc></FrequencyChange></FrequencyChanges></Clock>\n",KW_Experiment5A-17-1,59.945,1.0.0.105,1,295693217,Professional,2.0.10.353,2.0.10.353,10/11/2018,10/11/2018 21:17,17:17:12,2.0.10.248,1,1,1,1,,,,,,,,PracticeProc,BlockList,6,1,Distractor1.bmp,1,0,,0,1,63594,600,,0,0,lime,600,3,600,,vertical,purple,Distractor1.bmp,cyan,Distractor2.bmp,yellow,Distractor2.bmp,blue,Distractor2.bmp,lime,Distractor1.bmp,red,Target1.bmp,6,1,6,TrialProc,6,PracticeTrialList,1,1,-999999,0,64194,0,1,531,64725,Target1.bmp,red,1,,,,,,
KW_Experiment5A,17,1,"<?xml version=""1.0""?>\n<Clock xmlns:dt=""urn:schemas-microsoft-com:datatypes""><Description dt:dt=""string"">E-Prime Primary Realtime Clock</Description><StartTime><Timestamp dt:dt=""int"">0</Timestamp><DateUtc dt:dt=""string"">2018-10-11T21:17:12Z</DateUtc></StartTime><FrequencyChanges><FrequencyChange><Frequency dt:dt=""r8"">3215292</Frequency><Timestamp dt:dt=""r8"">4230837846023</Timestamp><Current dt:dt=""r8"">0</Current><DateUtc dt:dt=""string"">2018-10-11T21:17:12Z</DateUtc></FrequencyChange></FrequencyChanges></Clock>\n",KW_Experiment5A-17-1,59.945,1.0.0.105,1,295693217,Professional,2.0.10.353,2.0.10.353,10/11/2018,10/11/2018 21:17,17:17:12,2.0.10.248,2,2,1,2,,,,,,,,TrainingProc,BlockList,1,1,Distractor2.bmp,2,0,,0,21,70650,501,,0,0,yellow,500,2,500,2,vertical,yellow,Distractor2.bmp,purple,Distractor1.bmp,lime,Target1.bmp,blue,Distractor2.bmp,red,Distractor2.bmp,cyan,Distractor1.bmp,,,,TrialProc,,TrainingTrialList,0,1,-999999,1,71151,0,2,854,72005,Target1.bmp,lime,1,,,,3,1,1
KW_Experiment5A,17,1,"<?xml version=""1.0""?>\n<Clock xmlns:dt=""urn:schemas-microsoft-com:datatypes""><Description dt:dt=""string"">E-Prime Primary Realtime Clock</Description><StartTime><Timestamp dt:dt=""int"">0</Timestamp><DateUtc dt:dt=""string"">2018-10-11T21:17:12Z</DateUtc></StartTime><FrequencyChanges><FrequencyChange><Frequency dt:dt=""r8"">3215292</Frequency><Timestamp dt:dt=""r8"">4230837846023</Timestamp><Current dt:dt=""r8"">0</Current><DateUtc dt:dt=""string"">2018-10-11T21:17:12Z</DateUtc></FrequencyChange></FrequencyChanges></Clock>\n",KW_Experiment5A-17-1,59.945,1.0.0.105,1,295693217,Professional,2.0.10.353,2.0.10.353,10/11/2018,10/11/2018 21:17,17:17:12,2.0.10.248,2,2,1,2,,,,,,,,TrainingProc,BlockList,2,2,Distractor1.bmp,1,0,,0,1,73019,601,,0,0,blue,600,3,600,3,horizontal,lime,Target2.bmp,blue,Distractor1.bmp,yellow,Distractor2.bmp,red,Distractor1.bmp,cyan,Distractor2.bmp,purple,Distractor2.bmp,,,,TrialProc,,TrainingTrialList,0,2,-999999,1,73620,0,1,656,74276,Target2.bmp,lime,2,,,,1,1,2
KW_Experiment5A,17,1,"<?xml version=""1.0""?>\n<Clock xmlns:dt=""urn:schemas-microsoft-com:datatypes""><Description dt:dt=""string"">E-Prime Primary Realtime Clock</Description><StartTime><Timestamp dt:dt=""int"">0</Timestamp><DateUtc dt:dt=""string"">2018-10-11T21:17:12Z</DateUtc></StartTime><FrequencyChanges><FrequencyChange><Frequency dt:dt=""r8"">3215292</Frequency><Timestamp dt:dt=""r8"">4230837846023</Timestamp><Current dt:dt=""r8"">0</Current><DateUtc dt:dt=""string"">2018-10-11T21:17:12Z</DateUtc></FrequencyChange></FrequencyChanges></Clock>\n",KW_Experiment5A-17-1,59.945,1.0.0.105,1,295693217,Professional,2.0.10.353,2.0.10.353,10/11/2018,10/11/2018 21:17,17:17:12,2.0.10.248,2,2,1,2,,,,,,,,TrainingProc,BlockList,3,2,Distractor2.bmp,2,0,,0,1,75288,500,,0,0,cyan,500,2,500,4,horizontal,cyan,Distractor2.bmp,blue,Distractor2.bmp,red,Distractor2.bmp,yellow,Distractor2.bmp,purple,Distractor1.bmp,lime,Target2.bmp,,,,TrialProc,,TrainingTrialList,1,2,-999999,0,75788,0,2,512,76300,Target2.bmp,lime,2,,,,6,1,3
KW_Experiment5A,17,1,"<?xml version=""1.0""?>\n<Clock xmlns:dt=""urn:schemas-microsoft-com:datatypes""><Description dt:dt=""string"">E-Prime Primary Realtime Clock</Description><StartTime><Timestamp dt:dt=""int"">0</Timestamp><DateUtc dt:dt=""string"">2018-10-11T21:17:12Z</DateUtc></StartTime><FrequencyChanges><FrequencyChange><Frequency dt:dt=""r8"">3215292</Frequency><Timestamp dt:dt=""r8"">4230837846023</Timestamp><Current dt:dt=""r8"">0</Current><DateUtc dt:dt=""string"">2018-10-11T21:17:12Z</DateUtc></FrequencyChange></FrequencyChanges></Clock>\n",KW_Experiment5A-17-1,59.945,1.0.0.105,1,295693217,Professional,2.0.10.353,2.0.10.353,10/11/2018,10/11/2018 21:17,17:17:12,2.0.10.248,2,2,1,2,,,,,,,,TrainingProc,BlockList,4,2,Distractor1.bmp,1,0,,0,1,77323,400,,0,0,cyan,400,1,400,4,horizontal,lime,Target2.bmp,cyan,Distractor1.bmp,red,Distractor2.bmp,purple,Distractor2.bmp,yellow,Distractor2.bmp,blue,Distractor2.bmp,,,,TrialProc,,TrainingTrialList,1,2,-999999,0,77723,0,2,649,78372,Target2.bmp,lime,2,,,,1,1,4
KW_Experiment5A,17,1,"<?xml version=""1.0""?>\n<Clock xmlns:dt=""urn:schemas-microsoft-com:datatypes""><Description dt:dt=""string"">E-Prime Primary Realtime Clock</Description><StartTime><Timestamp dt:dt=""int"">0</Timestamp><DateUtc dt:dt=""string"">2018-10-11T21:17:12Z</DateUtc></StartTime><FrequencyChanges><FrequencyChange><Frequency dt:dt=""r8"">3215292</Frequency><Timestamp dt:dt=""r8"">4230837846023</Timestamp><Current dt:dt=""r8"">0</Current><DateUtc dt:dt=""string"">2018-10-11T21:17:12Z</DateUtc></FrequencyChange></FrequencyChanges></Clock>\n",KW_Experiment5A-17-1,59.945,1.0.0.105,1,295693217,Professional,2.0.10.353,2.0.10.353,10/11/2018,10/11/2018 21:17,17:17:12,2.0.10.248,2,2,1,2,,,,,,,,TrainingProc,BlockList,5,2,Distractor1.bmp,1,0,,0,1,79392,600,,0,0,red,600,3,600,1,horizontal,red,Distractor1.bmp,purple,Distractor1.bmp,cyan,Distractor1.bmp,lime,Target2.bmp,yellow,Distractor1.bmp,blue,Distractor2.bmp,,,,TrialProc,,TrainingTrialList,0,2,-999999,0,79992,0,1,620,80612,Target2.bmp,lime,2,,,,4,1,5
KW_Experiment5A,17,1,"<?xml version=""1.0""?>\n<Clock xmlns:dt=""urn:schemas-microsoft-com:datatypes""><Description dt:dt=""string"">E-Prime Primary Realtime Clock</Description><StartTime><Timestamp dt:dt=""int"">0</Timestamp><DateUtc dt:dt=""string"">2018-10-11T21:17:12Z</DateUtc></StartTime><FrequencyChanges><FrequencyChange><Frequency dt:dt=""r8"">3215292</Frequency><Timestamp dt:dt=""r8"">4230837846023</Timestamp><Current dt:dt=""r8"">0</Current><DateUtc dt:dt=""string"">2018-10-11T21:17:12Z</DateUtc></FrequencyChange></FrequencyChanges></Clock>\n",KW_Experiment5A-17-1,59.945,1.0.0.105,1,295693217,Professional,2.0.10.353,2.0.10.353,10/11/2018,10/11/2018 21:17,17:17:12,2.0.10.248,2,2,1,2,,,,,,,,TrainingProc,BlockList,6,2,Distractor1.bmp,1,0,,0,1,81627,500,,0,0,blue,500,2,500,3,horizontal,blue,Distractor2.bmp,purple,Distractor1.bmp,lime,Target2.bmp,cyan,Distractor1.bmp,red,Distractor1.bmp,yellow,Distractor1.bmp,,,,TrialProc,,TrainingTrialList,1,2,-999999,0,82127,0,2,429,82556,Target2.bmp,lime,2,,,,3,1,6
KW_Experiment5A,17,1,"<?xml version=""1.0""?>\n<Clock xmlns:dt=""urn:schemas-microsoft-com:datatypes""><Description dt:dt=""string"">E-Prime Primary Realtime Clock</Description><StartTime><Timestamp dt:dt=""int"">0</Timestamp><DateUtc dt:dt=""string"">2018-10-11T21:17:12Z</DateUtc></StartTime><FrequencyChanges><FrequencyChange><Frequency dt:dt=""r8"">3215292</Frequency><Timestamp dt:dt=""r8"">4230837846023</Timestamp><Current dt:dt=""r8"">0</Current><DateUtc dt:dt=""string"">2018-10-11T21:17:12Z</DateUtc></FrequencyChange></FrequencyChanges></Clock>\n",KW_Experiment5A-17-1,59.945,1.0.0.105,1,295693217,Professional,2.0.10.353,2.0.10.353,10/11/2018,10/11/2018 21:17,17:17:12,2.0.10.248,2,2,1,2,,,,,,,,TrainingProc,BlockList,7,2,Distractor2.bmp,2,0,,0,1,83579,500,,0,0,blue,500,2,500,3,horizontal,lime,Target2.bmp,blue,Distractor2.bmp,cyan,Distractor2.bmp,red,Distractor2.bmp,purple,Distractor1.bmp,yellow,Distractor1.bmp,,,,TrialProc,,TrainingTrialList,1,2,-999999,0,84079,0,2,493,84572,Target2.bmp,lime,2,,,,1,1,7
KW_Experiment5A,17,1,"<?xml version=""1.0""?>\n<Clock xmlns:dt=""urn:schemas-microsoft-com:datatypes""><Description dt:dt=""string"">E-Prime Primary Realtime Clock</Description><StartTime><Timestamp dt:dt=""int"">0</Timestamp><DateUtc dt:dt=""string"">2018-10-11T21:17:12Z</DateUtc></StartTime><FrequencyChanges><FrequencyChange><Frequency dt:dt=""r8"">3215292</Frequency><Timestamp dt:dt=""r8"">4230837846023</Timestamp><Current dt:dt=""r8"">0</Current><DateUtc dt:dt=""string"">2018-10-11T21:17:12Z</DateUtc></FrequencyChange></FrequencyChanges></Clock>\n",KW_Experiment5A-17-1,59.945,1.0.0.105,1,295693217,Professional,2.0.10.353,2.0.10.353,10/11/2018,10/11/2018 21:17,17:17:12,2.0.10.248,2,2,1,2,,,,,,,,TrainingProc,BlockList,8,1,Distractor2.bmp,2,0,,0,1,85597,401,,0,0,blue,400,1,400,,vertical,blue,Distractor2.bmp,lime,Distractor2.bmp,cyan,Distractor2.bmp,red,Target1.bmp,yellow,Distractor2.bmp,purple,Distractor1.bmp,,,,TrialProc,3,TrainingTrialList,1,1,-999999,1,85998,0,1,694,86692,Target1.bmp,red,1,,,,10,1,8
KW_Experiment5A,17,1,"<?xml version=""1.0""?>\n<Clock xmlns:dt=""urn:schemas-microsoft-com:datatypes""><Description dt:dt=""string"">E-Prime Primary Realtime Clock</Description><StartTime><Timestamp dt:dt=""int"">0</Timestamp><DateUtc dt:dt=""string"">2018-10-11T21:17:12Z</DateUtc></StartTime><FrequencyChanges><FrequencyChange><Frequency dt:dt=""r8"">3215292</Frequency><Timestamp dt:dt=""r8"">4230837846023</Timestamp><Current dt:dt=""r8"">0</Current><DateUtc dt:dt=""string"">2018-10-11T21:17:12Z</DateUtc></FrequencyChange></FrequencyChanges></Clock>\n",KW_Experiment5A-17-1,59.945,1.0.0.105,1,295693217,Professional,2.0.10.353,2.0.10.353,10/11/2018,10/11/2018 21:17,17:17:12,2.0.10.248,2,2,1,2,,,,,,,,TrainingProc,BlockList,9,2,Distractor1.bmp,1,0,,0,1,87716,600,,0,0,yellow,600,3,600,,horizontal,yellow,Distractor1.bmp,blue,Distractor1.bmp,purple,Distractor2.bmp,lime,Distractor1.bmp,cyan,Distractor1.bmp,red,Target2.bmp,,,,TrialProc,2,TrainingTrialList,1,2,-999999,0,88316,0,2,584,88900,Target2.bmp,red,2,,,,12,1,9
KW_Experiment5A,17,1,"<?xml version=""1.0""?>\n<Clock xmlns:dt=""urn:schemas-microsoft-com:datatypes""><Description dt:dt=""string"">E-Prime Primary Realtime Clock</Description><StartTime><Timestamp dt:dt=""int"">0</Timestamp><DateUtc dt:dt=""string"">2018-10-11T21:17:12Z</DateUtc></StartTime><FrequencyChanges><FrequencyChange><Frequency dt:dt=""r8"">3215292</Frequency><Timestamp dt:dt=""r8"">4230837846023</Timestamp><Current dt:dt=""r8"">0</Current><DateUtc dt:dt=""string"">2018-10-11T21:17:12Z</DateUtc></FrequencyChange></FrequencyChanges></Clock>\n",KW_Experiment5A-17-1,59.945,1.0.0.105,1,295693217,Professional,2.0.10.353,2.0.10.353,10/11/2018,10/11/2018 21:17,17:17:12,2.0.10.248,2,2,1,2,,,,,,,,TrainingProc,BlockList,10,2,Distractor1.bmp,1,0,,0,1,89918,600,,0,0,lime,600,3,600,,horizontal,lime,Distractor2.bmp,red,Target2.bmp,yellow,Distractor1.bmp,purple,Distractor1.bmp,blue,Distractor1.bmp,cyan,Distractor1.bmp,,,,TrialProc,6,TrainingTrialList,1,2,-999999,0,90518,0,2,510,91028,Target2.bmp,red,2,,,,8,1,10
KW_Experiment5A,17,1,"<?xml version=""1.0""?>\n<Clock xmlns:dt=""urn:schemas-microsoft-com:datatypes""><Description dt:dt=""string"">E-Prime Primary Realtime Clock</Description><StartTime><Timestamp dt:dt=""int"">0</Timestamp><DateUtc dt:dt=""string"">2018-10-11T21:17:12Z</DateUtc></StartTime><FrequencyChanges><FrequencyChange><Frequency dt:dt=""r8"">3215292</Frequency><Timestamp dt:dt=""r8"">4230837846023</Timestamp><Current dt:dt=""r8"">0</Current><DateUtc dt:dt=""string"">2018-10-11T21:17:12Z</DateUtc></FrequencyChange></FrequencyChanges></Clock>\n",KW_Experiment5A-17-1,59.945,1.0.0.105,1,295693217,Professional,2.0.10.353,2.0.10.353,10/11/2018,10/11/2018 21:17,17:17:12,2.0.10.248,2,2,1,2,,,,,,,,TrainingProc,BlockList,11,2,Distractor1.bmp,1,0,,0,1,92053,601,,0,0,purple,600,3,600,5,horizontal,purple,Distractor2.bmp,yellow,Distractor1.bmp,cyan,Distractor1.bmp,blue,Distractor1.bmp,lime,Target2.bmp,red,Distractor1.bmp,,,,TrialProc,,TrainingTrialList,0,2,-999999,1,92654,0,1,462,93116,Target2.bmp,lime,2,,,,5,1,11
KW_Experiment5A,17,1,"<?xml version=""1.0""?>\n<Clock xmlns:dt=""urn:schemas-microsoft-com:datatypes""><Description dt:dt=""string"">E-Prime Primary Realtime Clock</Description><StartTime><Timestamp dt:dt=""int"">0</Timestamp><DateUtc dt:dt=""string"">2018-10-11T21:17:12Z</DateUtc></StartTime><FrequencyChanges><FrequencyChange><Frequency dt:dt=""r8"">3215292</Frequency><Timestamp dt:dt=""r8"">4230837846023</Timestamp><Current dt:dt=""r8"">0</Current><DateUtc dt:dt=""string"">2018-10-11T21:17:12Z</DateUtc></FrequencyChange></FrequencyChanges></Clock>\n",KW_Experiment5A-17-1,59.945,1.0.0.105,1,295693217,Professional,2.0.10.353,2.0.10.353,10/11/2018,10/11/2018 21:17,17:17:12,2.0.10.248,2,2,1,2,,,,,,,,TrainingProc,BlockList,12,2,Distractor2.bmp,2,0,,0,1,94138,401,,0,0,blue,400,1,400,3,horizontal,blue,Distractor2.bmp,red,Distractor2.bmp,purple,Distractor1.bmp,cyan,Distractor1.bmp,yellow,Distractor2.bmp,lime,Target2.bmp,,,,TrialProc,,TrainingTrialList,1,2,-999999,1,94539,0,2,537,95076,Target2.bmp,lime,2,,,,6,1,12
KW_Experiment5A,17,1,"<?xml version=""1.0""?>\n<Clock xmlns:dt=""urn:schemas-microsoft-com:datatypes""><Description dt:dt=""string"">E-Prime Primary Realtime Clock</Description><StartTime><Timestamp dt:dt=""int"">0</Timestamp><DateUtc dt:dt=""string"">2018-10-11T21:17:12Z</DateUtc></StartTime><FrequencyChanges><FrequencyChange><Frequency dt:dt=""r8"">3215292</Frequency><Timestamp dt:dt=""r8"">4230837846023</Timestamp><Current dt:dt=""r8"">0</Current><DateUtc dt:dt=""string"">2018-10-11T21:17:12Z</DateUtc></FrequencyChange></FrequencyChanges></Clock>\n",KW_Experiment5A-17-1,59.945,1.0.0.105,1,295693217,Professional,2.0.10.353,2.0.10.353,10/11/2018,10/11/2018 21:17,17:17:12,2.0.10.248,2,2,1,2,,,,,,,,TrainingProc,BlockList,13,1,Distractor1.bmp,1,0,,0,1,96090,601,,0,0,yellow,600,3,600,2,vertical,yellow,Distractor1.bmp,purple,Distractor2.bmp,red,Distractor2.bmp,lime,Target1.bmp,blue,Distractor1.bmp,cyan,Distractor1.bmp,,,,TrialProc,,TrainingTrialList,1,1,-999999,1,96691,0,1,593,97284,Target1.bmp,lime,1,,,,4,1,13
KW_Experiment5A,17,1,"<?xml version=""1.0""?>\n<Clock xmlns:dt=""urn:schemas-microsoft-com:datatypes""><Description dt:dt=""string"">E-Prime Primary Realtime Clock</Description><StartTime><Timestamp dt:dt=""int"">0</Timestamp><DateUtc dt:dt=""string"">2018-10-11T21:17:12Z</DateUtc></StartTime><FrequencyChanges><FrequencyChange><Frequency dt:dt=""r8"">3215292</Frequency><Timestamp dt:dt=""r8"">4230837846023</Timestamp><Current dt:dt=""r8"">0</Current><DateUtc dt:dt=""string"">2018-10-11T21:17:12Z</DateUtc></FrequencyChange></FrequencyChanges></Clock>\n",KW_Experiment5A-17-1,59.945,1.0.0.105,1,295693217,Professional,2.0.10.353,2.0.10.353,10/11/2018,10/11/2018 21:17,17:17:12,2.0.10.248,2,2,1,2,,,,,,,,TrainingProc,BlockList,14,1,Distractor2.bmp,2,0,,0,1,98309,600,,0,0,lime,600,3,600,,vertical,lime,Distractor2.bmp,blue,Distractor1.bmp,red,Target1.bmp,cyan,Distractor2.bmp,yellow,Distractor2.bmp,purple,Distractor1.bmp,,,,TrialProc,6,TrainingTrialList,0,1,-999999,0,98909,0,2,631,99540,Target1.bmp,red,1,,,,9,1,14
KW_Experiment5A,17,1,"<?xml version=""1.0""?>\n<Clock xmlns:dt=""urn:schemas-microsoft-com:datatypes""><Description dt:dt=""string"">E-Prime Primary Realtime Clock</Description><StartTime><Timestamp dt:dt=""int"">0</Timestamp><DateUtc dt:dt=""string"">2018-10-11T21:17:12Z</DateUtc></StartTime><FrequencyChanges><FrequencyChange><Frequency dt:dt=""r8"">3215292</Frequency><Timestamp dt:dt=""r8"">4230837846023</Timestamp><Current dt:dt=""r8"">0</Current><DateUtc dt:dt=""string"">2018-10-11T21:17:12Z</DateUtc></FrequencyChange></FrequencyChanges></Clock>\n",KW_Experiment5A-17-1,59.945,1.0.0.105,1,295693217,Professional,2.0.10.353,2.0.10.353,10/11/2018,10/11/2018 21:17,17:17:12,2.0.10.248,2,2,1,2,,,,,,,,TrainingProc,BlockList,15,2,Distractor1.bmp,1,0,,0,1,100561,600,,0,0,cyan,600,3,600,4,horizontal,cyan,Distractor1.bmp,yellow,Distractor1.bmp,purple,Distractor2.bmp,lime,Target2.bmp,blue,Distractor1.bmp,red,Distractor1.bmp,,,,TrialProc,,TrainingTrialList,0,2,-999999,0,101161,0,1,579,101740,Target2.bmp,lime,2,,,,4,1,15
KW_Experiment5A,17,1,"<?xml version=""1.0""?>\n<Clock xmlns:dt=""urn:schemas-microsoft-com:datatypes""><Description dt:dt=""string"">E-Prime Primary Realtime Clock</Description><StartTime><Timestamp dt:dt=""int"">0</Timestamp><DateUtc dt:dt=""string"">2018-10-11T21:17:12Z</DateUtc></StartTime><FrequencyChanges><FrequencyChange><Frequency dt:dt=""r8"">3215292</Frequency><Timestamp dt:dt=""r8"">4230837846023</Timestamp><Current dt:dt=""r8"">0</Current><DateUtc dt:dt=""string"">2018-10-11T21:17:12Z</DateUtc></FrequencyChange></FrequencyChanges></Clock>\n",KW_Experiment5A-17-1,59.945,1.0.0.105,1,295693217,Professional,2.0.10.353,2.0.10.353,10/11/2018,10/11/2018 21:17,17:17:12,2.0.10.248,2,2,1,2,,,,,,,,TrainingProc,BlockList,16,2,Distractor2.bmp,2,0,,0,1,102763,400,,0,0,red,400,1,400,1,horizontal,red,Distractor2.bmp,cyan,Distractor2.bmp,yellow,Distractor2.bmp,blue,Distractor1.bmp,purple,Distractor1.bmp,lime,Target2.bmp,,,,TrialProc,,TrainingTrialList,1,2,-999999,0,103163,0,2,561,103724,Target2.bmp,lime,2,,,,6,1,16
KW_Experiment5A,17,1,"<?xml version=""1.0""?>\n<Clock xmlns:dt=""urn:schemas-microsoft-com:datatypes""><Description dt:dt=""string"">E-Prime Primary Realtime Clock</Description><StartTime><Timestamp dt:dt=""int"">0</Timestamp><DateUtc dt:dt=""string"">2018-10-11T21:17:12Z</DateUtc></StartTime><FrequencyChanges><FrequencyChange><Frequency dt:dt=""r8"">3215292</Frequency><Timestamp dt:dt=""r8"">4230837846023</Timestamp><Current dt:dt=""r8"">0</Current><DateUtc dt:dt=""string"">2018-10-11T21:17:12Z</DateUtc></FrequencyChange></FrequencyChanges></Clock>\n",KW_Experiment5A-17-1,59.945,1.0.0.105,1,295693217,Professional,2.0.10.353,2.0.10.353,10/11/2018,10/11/2018 21:17,17:17:12,2.0.10.248,2,2,1,2,,,,,,,,TrainingProc,BlockList,17,2,Distractor1.bmp,1,0,,0,1,104748,500,,0,0,purple,500,2,500,5,horizontal,purple,Distractor2.bmp,cyan,Distractor2.bmp,lime,Target2.bmp,blue,Distractor1.bmp,red,Distractor2.bmp,yellow,Distractor1.bmp,,,,TrialProc,,TrainingTrialList,1,2,-999999,0,105248,0,2,692,105940,Target2.bmp,lime,2,,,,3,1,17
KW_Experiment5A,17,1,"<?xml version=""1.0""?>\n<Clock xmlns:dt=""urn:schemas-microsoft-com:datatypes""><Description dt:dt=""string"">E-Prime Primary Realtime Clock</Description><StartTime><Timestamp dt:dt=""int"">0</Timestamp><DateUtc dt:dt=""string"">2018-10-11T21:17:12Z</DateUtc></StartTime><FrequencyChanges><FrequencyChange><Frequency dt:dt=""r8"">3215292</Frequency><Timestamp dt:dt=""r8"">4230837846023</Timestamp><Current dt:dt=""r8"">0</Current><DateUtc dt:dt=""string"">2018-10-11T21:17:12Z</DateUtc></FrequencyChange></FrequencyChanges></Clock>\n",KW_Experiment5A-17-1,59.945,1.0.0.105,1,295693217,Professional,2.0.10.353,2.0.10.353,10/11/2018,10/11/2018 21:17,17:17:12,2.0.10.248,2,2,1,2,,,,,,,,TrainingProc,BlockList,18,2,Distractor2.bmp,2,0,,0,1,106950,600,,0,0,purple,600,3,600,5,horizontal,purple,Distractor2.bmp,lime,Target2.bmp,cyan,Distractor2.bmp,blue,Distractor2.bmp,red,Distractor1.bmp,yellow,Distractor1.bmp,,,,TrialProc,,TrainingTrialList,1,2,-999999,0,107550,0,2,406,107956,Target2.bmp,lime,2,,,,2,1,18
KW_Experiment5A,17,1,"<?xml version=""1.0""?>\n<Clock xmlns:dt=""urn:schemas-microsoft-com:datatypes""><Description dt:dt=""string"">E-Prime Primary Realtime Clock</Description><StartTime><Timestamp dt:dt=""int"">0</Timestamp><DateUtc dt:dt=""string"">2018-10-11T21:17:12Z</DateUtc></StartTime><FrequencyChanges><FrequencyChange><Frequency dt:dt=""r8"">3215292</Frequency><Timestamp dt:dt=""r8"">4230837846023</Timestamp><Current dt:dt=""r8"">0</Current><DateUtc dt:dt=""string"">2018-10-11T21:17:12Z</DateUtc></FrequencyChange></FrequencyChanges></Clock>\n",KW_Experiment5A-17-1,59.945,1.0.0.105,1,295693217,Professional,2.0.10.353,2.0.10.353,10/11/2018,10/11/2018 21:17,17:17:12,2.0.10.248,2,2,1,2,,,,,,,,TrainingProc,BlockList,19,2,Distractor2.bmp,2,0,,1,0,108968,601,,0,0,blue,600,3,600,,horizontal,blue,Distractor2.bmp,yellow,Distractor1.bmp,cyan,Distractor2.bmp,purple,Distractor2.bmp,red,Target2.bmp,lime,Distractor2.bmp,,,,TrialProc,3,TrainingTrialList,1,2,-999999,1,109569,0,2,459,110028,Target2.bmp,red,2,,,,11,1,19
KW_Experiment5A,17,1,"<?xml version=""1.0""?>\n<Clock xmlns:dt=""urn:schemas-microsoft-com:datatypes""><Description dt:dt=""string"">E-Prime Primary Realtime Clock</Description><StartTime><Timestamp dt:dt=""int"">0</Timestamp><DateUtc dt:dt=""string"">2018-10-11T21:17:12Z</DateUtc></StartTime><FrequencyChanges><FrequencyChange><Frequency dt:dt=""r8"">3215292</Frequency><Timestamp dt:dt=""r8"">4230837846023</Timestamp><Current dt:dt=""r8"">0</Current><DateUtc dt:dt=""string"">2018-10-11T21:17:12Z</DateUtc></FrequencyChange></FrequencyChanges></Clock>\n",KW_Experiment5A-17-1,59.945,1.0.0.105,1,295693217,Professional,2.0.10.353,2.0.10.353,10/11/2018,10/11/2018 21:17,17:17:12,2.0.10.248,2,2,1,2,,,,,,,,TrainingProc,BlockList,20,1,Distractor2.bmp,2,0,,0,1,111037,601,,0,0,red,600,3,600,1,vertical,red,Distractor1.bmp,purple,Distractor1.bmp,cyan,Distractor2.bmp,blue,Distractor2.bmp,lime,Target1.bmp,yellow,Distractor2.bmp,,,,TrialProc,,TrainingTrialList,0,1,-999999,1,111638,0,2,462,112100,Target1.bmp,lime,1,,,,5,1,20
KW_Experiment5A,17,1,"<?xml version=""1.0""?>\n<Clock xmlns:dt=""urn:schemas-microsoft-com:datatypes""><Description dt:dt=""string"">E-Prime Primary Realtime Clock</Description><StartTime><Timestamp dt:dt=""int"">0</Timestamp><DateUtc dt:dt=""string"">2018-10-11T21:17:12Z</DateUtc></StartTime><FrequencyChanges><FrequencyChange><Frequency dt:dt=""r8"">3215292</Frequency><Timestamp dt:dt=""r8"">4230837846023</Timestamp><Current dt:dt=""r8"">0</Current><DateUtc dt:dt=""string"">2018-10-11T21:17:12Z</DateUtc></FrequencyChange></FrequencyChanges></Clock>\n",KW_Experiment5A-17-1,59.945,1.0.0.105,1,295693217,Professional,2.0.10.353,2.0.10.353,10/11/2018,10/11/2018 21:17,17:17:12,2.0.10.248,2,2,1,2,,,,,,,,TrainingProc,BlockList,21,1,Distractor1.bmp,1,0,,0,1,113122,601,,0,0,lime,600,3,600,,vertical,red,Target1.bmp,cyan,Distractor1.bmp,blue,Distractor2.bmp,purple,Distractor2.bmp,yellow,Distractor1.bmp,lime,Distractor1.bmp,,,,TrialProc,6,TrainingTrialList,1,1,-999999,1,113723,0,1,328,114051,Target1.bmp,red,1,,,,7,1,21
KW_Experiment5A,17,1,"<?xml version=""1.0""?>\n<Clock xmlns:dt=""urn:schemas-microsoft-com:datatypes""><Description dt:dt=""string"">E-Prime Primary Realtime Clock</Description><StartTime><Timestamp dt:dt=""int"">0</Timestamp><DateUtc dt:dt=""string"">2018-10-11T21:17:12Z</DateUtc></StartTime><FrequencyChanges><FrequencyChange><Frequency dt:dt=""r8"">3215292</Frequency><Timestamp dt:dt=""r8"">4230837846023</Timestamp><Current dt:dt=""r8"">0</Current><DateUtc dt:dt=""string"">2018-10-11T21:17:12Z</DateUtc></FrequencyChange></FrequencyChanges></Clock>\n",KW_Experiment5A-17-1,59.945,1.0.0.105,1,295693217,Professional,2.0.10.353,2.0.10.353,10/11/2018,10/11/2018 21:17,17:17:12,2.0.10.248,2,2,1,2,,,,,,,,TrainingProc,BlockList,22,2,Distractor2.bmp,2,0,,0,1,115074,601,,0,0,cyan,600,3,600,4,horizontal,cyan,Distractor1.bmp,lime,Target2.bmp,red,Distractor2.bmp,purple,Distractor1.bmp,yellow,Distractor2.bmp,blue,Distractor1.bmp,,,,TrialProc,,TrainingTrialList,0,2,-999999,1,115675,0,1,472,116147,Target2.bmp,lime,2,,,,2,1,22
KW_Experiment5A,17,1,"<?xml version=""1.0""?>\n<Clock xmlns:dt=""urn:schemas-microsoft-com:datatypes""><Description dt:dt=""string"">E-Prime Primary Realtime Clock</Description><StartTime><Timestamp dt:dt=""int"">0</Timestamp><DateUtc dt:dt=""string"">2018-10-11T21:17:12Z</DateUtc></StartTime><FrequencyChanges><FrequencyChange><Frequency dt:dt=""r8"">3215292</Frequency><Timestamp dt:dt=""r8"">4230837846023</Timestamp><Current dt:dt=""r8"">0</Current><DateUtc dt:dt=""string"">2018-10-11T21:17:12Z</DateUtc></FrequencyChange></FrequencyChanges></Clock>\n",KW_Experiment5A-17-1,59.945,1.0.0.105,1,295693217,Professional,2.0.10.353,2.0.10.353,10/11/2018,10/11/2018 21:17,17:17:12,2.0.10.248,2,2,1,2,,,,,,,,TrainingProc,BlockList,23,2,Distractor2.bmp,2,0,,0,1,117159,401,,0,0,red,400,1,400,1,horizontal,red,Distractor1.bmp,lime,Target2.bmp,blue,Distractor2.bmp,cyan,Distractor1.bmp,yellow,Distractor2.bmp,purple,Distractor1.bmp,,,,TrialProc,,TrainingTrialList,1,2,-999999,1,117560,0,2,411,117971,Target2.bmp,lime,2,,,,2,1,23
KW_Experiment5A,17,1,"<?xml version=""1.0""?>\n<Clock xmlns:dt=""urn:schemas-microsoft-com:datatypes""><Description dt:dt=""string"">E-Prime Primary Realtime Clock</Description><StartTime><Timestamp dt:dt=""int"">0</Timestamp><DateUtc dt:dt=""string"">2018-10-11T21:17:12Z</DateUtc></StartTime><FrequencyChanges><FrequencyChange><Frequency dt:dt=""r8"">3215292</Frequency><Timestamp dt:dt=""r8"">4230837846023</Timestamp><Current dt:dt=""r8"">0</Current><DateUtc dt:dt=""string"">2018-10-11T21:17:12Z</DateUtc></FrequencyChange></FrequencyChanges></Clock>\n",KW_Experiment5A-17-1,59.945,1.0.0.105,1,295693217,Professional,2.0.10.353,2.0.10.353,10/11/2018,10/11/2018 21:17,17:17:12,2.0.10.248,2,2,1,2,,,,,,,,TrainingProc,BlockList,24,2,Distractor2.bmp,2,0,,0,1,118994,601,,0,0,blue,600,3,600,3,horizontal,blue,Distractor2.bmp,red,Distractor1.bmp,cyan,Distractor1.bmp,purple,Distractor2.bmp,lime,Target2.bmp,yellow,Distractor2.bmp,,,,TrialProc,,TrainingTrialList,0,2,-999999,1,119595,0,1,496,120091,Target2.bmp,lime,2,,,,5,1,24
KW_Experiment5A,17,1,"<?xml version=""1.0""?>\n<Clock xmlns:dt=""urn:schemas-microsoft-com:datatypes""><Description dt:dt=""string"">E-Prime Primary Realtime Clock</Description><StartTime><Timestamp dt:dt=""int"">0</Timestamp><DateUtc dt:dt=""string"">2018-10-11T21:17:12Z</DateUtc></StartTime><FrequencyChanges><FrequencyChange><Frequency dt:dt=""r8"">3215292</Frequency><Timestamp dt:dt=""r8"">4230837846023</Timestamp><Current dt:dt=""r8"">0</Current><DateUtc dt:dt=""string"">2018-10-11T21:17:12Z</DateUtc></FrequencyChange></FrequencyChanges></Clock>\n",KW_Experiment5A-17-1,59.945,1.0.0.105,1,295693217,Professional,2.0.10.353,2.0.10.353,10/11/2018,10/11/2018 21:17,17:17:12,2.0.10.248,2,2,1,2,,,,,,,,TrainingProc,BlockList,25,2,Distractor2.bmp,2,0,,0,1,121113,600,,0,0,cyan,600,3,600,4,horizontal,cyan,Distractor1.bmp,blue,Distractor2.bmp,lime,Target2.bmp,purple,Distractor2.bmp,red,Distractor2.bmp,yellow,Distractor1.bmp,,,,TrialProc,,TrainingTrialList,1,2,-999999,0,121713,0,2,378,122091,Target2.bmp,lime,2,,,,3,2,25
KW_Experiment5A,17,1,"<?xml version=""1.0""?>\n<Clock xmlns:dt=""urn:schemas-microsoft-com:datatypes""><Description dt:dt=""string"">E-Prime Primary Realtime Clock</Description><StartTime><Timestamp dt:dt=""int"">0</Timestamp><DateUtc dt:dt=""string"">2018-10-11T21:17:12Z</DateUtc></StartTime><FrequencyChanges><FrequencyChange><Frequency dt:dt=""r8"">3215292</Frequency><Timestamp dt:dt=""r8"">4230837846023</Timestamp><Current dt:dt=""r8"">0</Current><DateUtc dt:dt=""string"">2018-10-11T21:17:12Z</DateUtc></FrequencyChange></FrequencyChanges></Clock>\n",KW_Experiment5A-17-1,59.945,1.0.0.105,1,295693217,Professional,2.0.10.353,2.0.10.353,10/11/2018,10/11/2018 21:17,17:17:12,2.0.10.248,2,2,1,2,,,,,,,,TrainingProc,BlockList,26,1,Distractor2.bmp,2,0,,0,1,123115,500,,0,0,yellow,500,2,500,2,vertical,yellow,Distractor2.bmp,cyan,Distractor2.bmp,purple,Distractor1.bmp,red,Distractor2.bmp,lime,Target1.bmp,blue,Distractor2.bmp,,,,TrialProc,,TrainingTrialList,1,1,-999999,0,123615,0,1,372,123987,Target1.bmp,lime,1,,,,5,2,26
KW_Experiment5A,17,1,"<?xml version=""1.0""?>\n<Clock xmlns:dt=""urn:schemas-microsoft-com:datatypes""><Description dt:dt=""string"">E-Prime Primary Realtime Clock</Description><StartTime><Timestamp dt:dt=""int"">0</Timestamp><DateUtc dt:dt=""string"">2018-10-11T21:17:12Z</DateUtc></StartTime><FrequencyChanges><FrequencyChange><Frequency dt:dt=""r8"">3215292</Frequency><Timestamp dt:dt=""r8"">4230837846023</Timestamp><Current dt:dt=""r8"">0</Current><DateUtc dt:dt=""string"">2018-10-11T21:17:12Z</DateUtc></FrequencyChange></FrequencyChanges></Clock>\n",KW_Experiment5A-17-1,59.945,1.0.0.105,1,295693217,Professional,2.0.10.353,2.0.10.353,10/11/2018,10/11/2018 21:17,17:17:12,2.0.10.248,2,2,1,2,,,,,,,,TrainingProc,BlockList,27,2,Distractor2.bmp,2,0,,0,1,125000,500,,0,0,red,500,2,500,1,horizontal,red,Distractor2.bmp,lime,Target2.bmp,blue,Distractor2.bmp,cyan,Distractor2.bmp,purple,Distractor1.bmp,yellow,Distractor2.bmp,,,,TrialProc,,TrainingTrialList,1,2,-999999,0,125500,0,2,319,125819,Target2.bmp,lime,2,,,,2,2,27
KW_Experiment5A,17,1,"<?xml version=""1.0""?>\n<Clock xmlns:dt=""urn:schemas-microsoft-com:datatypes""><Description dt:dt=""string"">E-Prime Primary Realtime Clock</Description><StartTime><Timestamp dt:dt=""int"">0</Timestamp><DateUtc dt:dt=""string"">2018-10-11T21:17:12Z</DateUtc></StartTime><FrequencyChanges><FrequencyChange><Frequency dt:dt=""r8"">3215292</Frequency><Timestamp dt:dt=""r8"">4230837846023</Timestamp><Current dt:dt=""r8"">0</Current><DateUtc dt:dt=""string"">2018-10-11T21:17:12Z</DateUtc></FrequencyChange></FrequencyChanges></Clock>\n",KW_Experiment5A-17-1,59.945,1.0.0.105,1,295693217,Professional,2.0.10.353,2.0.10.353,10/11/2018,10/11/2018 21:17,17:17:12,2.0.10.248,2,2,1,2,,,,,,,,TrainingProc,BlockList,28,2,Distractor2.bmp,2,0,,0,1,126835,400,,0,0,yellow,400,1,400,,horizontal,yellow,Distractor1.bmp,blue,Distractor1.bmp,red,Target2.bmp,cyan,Distractor2.bmp,lime,Distractor2.bmp,purple,Distractor2.bmp,,,,TrialProc,2,TrainingTrialList,0,2,-999999,0,127235,0,1,416,127651,Target2.bmp,red,2,,,,9,2,28
KW_Experiment5A,17,1,"<?xml version=""1.0""?>\n<Clock xmlns:dt=""urn:schemas-microsoft-com:datatypes""><Description dt:dt=""string"">E-Prime Primary Realtime Clock</Description><StartTime><Timestamp dt:dt=""int"">0</Timestamp><DateUtc dt:dt=""string"">2018-10-11T21:17:12Z</DateUtc></StartTime><FrequencyChanges><FrequencyChange><Frequency dt:dt=""r8"">3215292</Frequency><Timestamp dt:dt=""r8"">4230837846023</Timestamp><Current dt:dt=""r8"">0</Current><DateUtc dt:dt=""string"">2018-10-11T21:17:12Z</DateUtc></FrequencyChange></FrequencyChanges></Clock>\n",KW_Experiment5A-17-1,59.945,1.0.0.105,1,295693217,Professional,2.0.10.353,2.0.10.353,10/11/2018,10/11/2018 21:17,17:17:12,2.0.10.248,2,2,1,2,,,,,,,,TrainingProc,BlockList,29,2,Distractor1.bmp,1,0,,0,1,128670,600,,0,0,yellow,600,3,600,2,horizontal,lime,Target2.bmp,yellow,Distractor1.bmp,blue,Distractor1.bmp,red,Distractor1.bmp,purple,Distractor1.bmp,cyan,Distractor1.bmp,,,,TrialProc,,TrainingTrialList,1,2,-999999,0,129270,0,2,493,129763,Target2.bmp,lime,2,,,,1,2,29
KW_Experiment5A,17,1,"<?xml version=""1.0""?>\n<Clock xmlns:dt=""urn:schemas-microsoft-com:datatypes""><Description dt:dt=""string"">E-Prime Primary Realtime Clock</Description><StartTime><Timestamp dt:dt=""int"">0</Timestamp><DateUtc dt:dt=""string"">2018-10-11T21:17:12Z</DateUtc></StartTime><FrequencyChanges><FrequencyChange><Frequency dt:dt=""r8"">3215292</Frequency><Timestamp dt:dt=""r8"">4230837846023</Timestamp><Current dt:dt=""r8"">0</Current><DateUtc dt:dt=""string"">2018-10-11T21:17:12Z</DateUtc></FrequencyChange></FrequencyChanges></Clock>\n",KW_Experiment5A-17-1,59.945,1.0.0.105,1,295693217,Professional,2.0.10.353,2.0.10.353,10/11/2018,10/11/2018 21:17,17:17:12,2.0.10.248,2,2,1,2,,,,,,,,TrainingProc,BlockList,30,1,Distractor1.bmp,1,0,,0,1,130788,501,,0,0,blue,500,2,500,3,vertical,blue,Distractor2.bmp,yellow,Distractor2.bmp,lime,Target1.bmp,red,Distractor1.bmp,cyan,Distractor2.bmp,purple,Distractor2.bmp,,,,TrialProc,,TrainingTrialList,1,1,-999999,1,131289,0,1,738,132027,Target1.bmp,lime,1,,,,3,2,30
KW_Experiment5A,17,1,"<?xml version=""1.0""?>\n<Clock xmlns:dt=""urn:schemas-microsoft-com:datatypes""><Description dt:dt=""string"">E-Prime Primary Realtime Clock</Description><StartTime><Timestamp dt:dt=""int"">0</Timestamp><DateUtc dt:dt=""string"">2018-10-11T21:17:12Z</DateUtc></StartTime><FrequencyChanges><FrequencyChange><Frequency dt:dt=""r8"">3215292</Frequency><Timestamp dt:dt=""r8"">4230837846023</Timestamp><Current dt:dt=""r8"">0</Current><DateUtc dt:dt=""string"">2018-10-11T21:17:12Z</DateUtc></FrequencyChange></FrequencyChanges></Clock>\n",KW_Experiment5A-17-1,59.945,1.0.0.105,1,295693217,Professional,2.0.10.353,2.0.10.353,10/11/2018,10/11/2018 21:17,17:17:12,2.0.10.248,2,2,1,2,,,,,,,,TrainingProc,BlockList,31,2,Distractor2.bmp,2,0,,0,1,133040,401,,0,0,purple,400,1,400,,horizontal,purple,Distractor2.bmp,blue,Distractor2.bmp,lime,Distractor1.bmp,yellow,Distractor2.bmp,cyan,Distractor1.bmp,red,Target2.bmp,,,,TrialProc,5,TrainingTrialList,0,2,-999999,1,133441,0,1,610,134051,Target2.bmp,red,2,,,,12,2,31
KW_Experiment5A,17,1,"<?xml version=""1.0""?>\n<Clock xmlns:dt=""urn:schemas-microsoft-com:datatypes""><Description dt:dt=""string"">E-Prime Primary Realtime Clock</Description><StartTime><Timestamp dt:dt=""int"">0</Timestamp><DateUtc dt:dt=""string"">2018-10-11T21:17:12Z</DateUtc></StartTime><FrequencyChanges><FrequencyChange><Frequency dt:dt=""r8"">3215292</Frequency><Timestamp dt:dt=""r8"">4230837846023</Timestamp><Current dt:dt=""r8"">0</Current><DateUtc dt:dt=""string"">2018-10-11T21:17:12Z</DateUtc></FrequencyChange></FrequencyChanges></Clock>\n",KW_Experiment5A-17-1,59.945,1.0.0.105,1,295693217,Professional,2.0.10.353,2.0.10.353,10/11/2018,10/11/2018 21:17,17:17:12,2.0.10.248,2,2,1,2,,,,,,,,TrainingProc,BlockList,32,2,Distractor2.bmp,2,0,,0,1,135076,600,,0,0,cyan,600,3,600,4,horizontal,cyan,Distractor2.bmp,purple,Distractor1.bmp,yellow,Distractor2.bmp,red,Distractor2.bmp,blue,Distractor1.bmp,lime,Target2.bmp,,,,TrialProc,,TrainingTrialList,1,2,-999999,0,135676,0,2,391,136067,Target2.bmp,lime,2,,,,6,2,32
KW_Experiment5A,17,1,"<?xml version=""1.0""?>\n<Clock xmlns:dt=""urn:schemas-microsoft-com:datatypes""><Description dt:dt=""string"">E-Prime Primary Realtime Clock</Description><StartTime><Timestamp dt:dt=""int"">0</Timestamp><DateUtc dt:dt=""string"">2018-10-11T21:17:12Z</DateUtc></StartTime><FrequencyChanges><FrequencyChange><Frequency dt:dt=""r8"">3215292</Frequency><Timestamp dt:dt=""r8"">4230837846023</Timestamp><Current dt:dt=""r8"">0</Current><DateUtc dt:dt=""string"">2018-10-11T21:17:12Z</DateUtc></FrequencyChange></FrequencyChanges></Clock>\n",KW_Experiment5A-17-1,59.945,1.0.0.105,1,295693217,Professional,2.0.10.353,2.0.10.353,10/11/2018,10/11/2018 21:17,17:17:12,2.0.10.248,2,2,1,2,,,,,,,,TrainingProc,BlockList,33,2,Distractor2.bmp,2,0,,0,1,137077,401,,0,0,blue,400,1,400,3,horizontal,blue,Distractor2.bmp,red,Distractor1.bmp,cyan,Distractor2.bmp,yellow,Distractor2.bmp,lime,Target2.bmp,purple,Distractor2.bmp,,,,TrialProc,,TrainingTrialList,1,2,-999999,1,137478,0,2,645,138123,Target2.bmp,lime,2,,,,5,2,33
KW_Experiment5A,17,1,"<?xml version=""1.0""?>\n<Clock xmlns:dt=""urn:schemas-microsoft-com:datatypes""><Description dt:dt=""string"">E-Prime Primary Realtime Clock</Description><StartTime><Timestamp dt:dt=""int"">0</Timestamp><DateUtc dt:dt=""string"">2018-10-11T21:17:12Z</DateUtc></StartTime><FrequencyChanges><FrequencyChange><Frequency dt:dt=""r8"">3215292</Frequency><Timestamp dt:dt=""r8"">4230837846023</Timestamp><Current dt:dt=""r8"">0</Current><DateUtc dt:dt=""string"">2018-10-11T21:17:12Z</DateUtc></FrequencyChange></FrequencyChanges></Clock>\n",KW_Experiment5A-17-1,59.945,1.0.0.105,1,295693217,Professional,2.0.10.353,2.0.10.353,10/11/2018,10/11/2018 21:17,17:17:12,2.0.10.248,2,2,1,2,,,,,,,,TrainingProc,BlockList,34,2,Distractor2.bmp,2,0,,0,1,139146,400,,0,0,lime,400,1,400,,horizontal,lime,Distractor2.bmp,red,Target2.bmp,blue,Distractor2.bmp,yellow,Distractor2.bmp,purple,Distractor2.bmp,cyan,Distractor2.bmp,,,,TrialProc,6,TrainingTrialList,1,2,-999999,0,139546,0,2,425,139971,Target2.bmp,red,2,,,,8,2,34
KW_Experiment5A,17,1,"<?xml version=""1.0""?>\n<Clock xmlns:dt=""urn:schemas-microsoft-com:datatypes""><Description dt:dt=""string"">E-Prime Primary Realtime Clock</Description><StartTime><Timestamp dt:dt=""int"">0</Timestamp><DateUtc dt:dt=""string"">2018-10-11T21:17:12Z</DateUtc></StartTime><FrequencyChanges><FrequencyChange><Frequency dt:dt=""r8"">3215292</Frequency><Timestamp dt:dt=""r8"">4230837846023</Timestamp><Current dt:dt=""r8"">0</Current><DateUtc dt:dt=""string"">2018-10-11T21:17:12Z</DateUtc></FrequencyChange></FrequencyChanges></Clock>\n",KW_Experiment5A-17-1,59.945,1.0.0.105,1,295693217,Professional,2.0.10.353,2.0.10.353,10/11/2018,10/11/2018 21:17,17:17:12,2.0.10.248,2,2,1,2,,,,,,,,TrainingProc,BlockList,35,1,Distractor1.bmp,1,0,,0,1,140981,400,,0,0,purple,400,1,400,5,vertical,purple,Distractor2.bmp,red,Distractor1.bmp,cyan,Distractor1.bmp,lime,Target1.bmp,yellow,Distractor1.bmp,blue,Distractor1.bmp,,,,TrialProc,,TrainingTrialList,1,1,-999999,0,141381,0,1,550,141931,Target1.bmp,lime,1,,,,4,2,35
KW_Experiment5A,17,1,"<?xml version=""1.0""?>\n<Clock xmlns:dt=""urn:schemas-microsoft-com:datatypes""><Description dt:dt=""string"">E-Prime Primary Realtime Clock</Description><StartTime><Timestamp dt:dt=""int"">0</Timestamp><DateUtc dt:dt=""string"">2018-10-11T21:17:12Z</DateUtc></StartTime><FrequencyChanges><FrequencyChange><Frequency dt:dt=""r8"">3215292</Frequency><Timestamp dt:dt=""r8"">4230837846023</Timestamp><Current dt:dt=""r8"">0</Current><DateUtc dt:dt=""string"">2018-10-11T21:17:12Z</DateUtc></FrequencyChange></FrequencyChanges></Clock>\n",KW_Experiment5A-17-1,59.945,1.0.0.105,1,295693217,Professional,2.0.10.353,2.0.10.353,10/11/2018,10/11/2018 21:17,17:17:12,2.0.10.248,2,2,1,2,,,,,,,,TrainingProc,BlockList,36,1,Distractor1.bmp,1,0,,0,1,142949,401,,0,0,purple,400,1,400,5,vertical,purple,Distractor1.bmp,yellow,Distractor1.bmp,cyan,Distractor1.bmp,red,Distractor1.bmp,lime,Target1.bmp,blue,Distractor1.bmp,,,,TrialProc,,TrainingTrialList,0,1,-999999,1,143350,0,2,453,143803,Target1.bmp,lime,1,,,,5,2,36
KW_Experiment5A,17,1,"<?xml version=""1.0""?>\n<Clock xmlns:dt=""urn:schemas-microsoft-com:datatypes""><Description dt:dt=""string"">E-Prime Primary Realtime Clock</Description><StartTime><Timestamp dt:dt=""int"">0</Timestamp><DateUtc dt:dt=""string"">2018-10-11T21:17:12Z</DateUtc></StartTime><FrequencyChanges><FrequencyChange><Frequency dt:dt=""r8"">3215292</Frequency><Timestamp dt:dt=""r8"">4230837846023</Timestamp><Current dt:dt=""r8"">0</Current><DateUtc dt:dt=""string"">2018-10-11T21:17:12Z</DateUtc></FrequencyChange></FrequencyChanges></Clock>\n",KW_Experiment5A-17-1,59.945,1.0.0.105,1,295693217,Professional,2.0.10.353,2.0.10.353,10/11/2018,10/11/2018 21:17,17:17:12,2.0.10.248,2,2,1,2,,,,,,,,TrainingProc,BlockList,37,2,Distractor1.bmp,1,0,,0,1,144818,600,,0,0,yellow,600,3,600,2,horizontal,yellow,Distractor1.bmp,lime,Target2.bmp,blue,Distractor1.bmp,purple,Distractor1.bmp,cyan,Distractor2.bmp,red,Distractor2.bmp,,,,TrialProc,,TrainingTrialList,1,2,-999999,0,145418,0,2,433,145851,Target2.bmp,lime,2,,,,2,2,37
KW_Experiment5A,17,1,"<?xml version=""1.0""?>\n<Clock xmlns:dt=""urn:schemas-microsoft-com:datatypes""><Description dt:dt=""string"">E-Prime Primary Realtime Clock</Description><StartTime><Timestamp dt:dt=""int"">0</Timestamp><DateUtc dt:dt=""string"">2018-10-11T21:17:12Z</DateUtc></StartTime><FrequencyChanges><FrequencyChange><Frequency dt:dt=""r8"">3215292</Frequency><Timestamp dt:dt=""r8"">4230837846023</Timestamp><Current dt:dt=""r8"">0</Current><DateUtc dt:dt=""string"">2018-10-11T21:17:12Z</DateUtc></FrequencyChange></FrequencyChanges></Clock>\n",KW_Experiment5A-17-1,59.945,1.0.0.105,1,295693217,Professional,2.0.10.353,2.0.10.353,10/11/2018,10/11/2018 21:17,17:17:12,2.0.10.248,2,2,1,2,,,,,,,,TrainingProc,BlockList,38,2,Distractor1.bmp,1,0,,0,1,146870,600,,0,0,blue,600,3,600,,horizontal,blue,Distractor2.bmp,yellow,Distractor1.bmp,cyan,Distractor2.bmp,purple,Distractor2.bmp,red,Target2.bmp,lime,Distractor1.bmp,,,,TrialProc,3,TrainingTrialList,1,2,-999999,0,147470,0,2,421,147891,Target2.bmp,red,2,,,,11,2,38
KW_Experiment5A,17,1,"<?xml version=""1.0""?>\n<Clock xmlns:dt=""urn:schemas-microsoft-com:datatypes""><Description dt:dt=""string"">E-Prime Primary Realtime Clock</Description><StartTime><Timestamp dt:dt=""int"">0</Timestamp><DateUtc dt:dt=""string"">2018-10-11T21:17:12Z</DateUtc></StartTime><FrequencyChanges><FrequencyChange><Frequency dt:dt=""r8"">3215292</Frequency><Timestamp dt:dt=""r8"">4230837846023</Timestamp><Current dt:dt=""r8"">0</Current><DateUtc dt:dt=""string"">2018-10-11T21:17:12Z</DateUtc></FrequencyChange></FrequencyChanges></Clock>\n",KW_Experiment5A-17-1,59.945,1.0.0.105,1,295693217,Professional,2.0.10.353,2.0.10.353,10/11/2018,10/11/2018 21:17,17:17:12,2.0.10.248,2,2,1,2,,,,,,,,TrainingProc,BlockList,39,2,Distractor1.bmp,1,0,,0,1,148905,400,,0,0,yellow,400,1,400,2,horizontal,yellow,Distractor1.bmp,cyan,Distractor2.bmp,blue,Distractor2.bmp,purple,Distractor1.bmp,red,Distractor1.bmp,lime,Target2.bmp,,,,TrialProc,,TrainingTrialList,1,2,-999999,0,149305,0,2,434,149739,Target2.bmp,lime,2,,,,6,2,39
KW_Experiment5A,17,1,"<?xml version=""1.0""?>\n<Clock xmlns:dt=""urn:schemas-microsoft-com:datatypes""><Description dt:dt=""string"">E-Prime Primary Realtime Clock</Description><StartTime><Timestamp dt:dt=""int"">0</Timestamp><DateUtc dt:dt=""string"">2018-10-11T21:17:12Z</DateUtc></StartTime><FrequencyChanges><FrequencyChange><Frequency dt:dt=""r8"">3215292</Frequency><Timestamp dt:dt=""r8"">4230837846023</Timestamp><Current dt:dt=""r8"">0</Current><DateUtc dt:dt=""string"">2018-10-11T21:17:12Z</DateUtc></FrequencyChange></FrequencyChanges></Clock>\n",KW_Experiment5A-17-1,59.945,1.0.0.105,1,295693217,Professional,2.0.10.353,2.0.10.353,10/11/2018,10/11/2018 21:17,17:17:12,2.0.10.248,2,2,1,2,,,,,,,,TrainingProc,BlockList,40,1,Distractor2.bmp,2,0,,1,0,150756,501,,0,0,purple,500,2,500,5,vertical,purple,Distractor2.bmp,lime,Target1.bmp,cyan,Distractor2.bmp,red,Distractor1.bmp,blue,Distractor1.bmp,yellow,Distractor2.bmp,,,,TrialProc,,TrainingTrialList,1,1,-999999,1,151257,0,1,538,151795,Target1.bmp,lime,1,,,,2,2,40
KW_Experiment5A,17,1,"<?xml version=""1.0""?>\n<Clock xmlns:dt=""urn:schemas-microsoft-com:datatypes""><Description dt:dt=""string"">E-Prime Primary Realtime Clock</Description><StartTime><Timestamp dt:dt=""int"">0</Timestamp><DateUtc dt:dt=""string"">2018-10-11T21:17:12Z</DateUtc></StartTime><FrequencyChanges><FrequencyChange><Frequency dt:dt=""r8"">3215292</Frequency><Timestamp dt:dt=""r8"">4230837846023</Timestamp><Current dt:dt=""r8"">0</Current><DateUtc dt:dt=""string"">2018-10-11T21:17:12Z</DateUtc></FrequencyChange></FrequencyChanges></Clock>\n",KW_Experiment5A-17-1,59.945,1.0.0.105,1,295693217,Professional,2.0.10.353,2.0.10.353,10/11/2018,10/11/2018 21:17,17:17:12,2.0.10.248,2,2,1,2,,,,,,,,TrainingProc,BlockList,41,1,Distractor2.bmp,2,0,,0,1,152808,501,,0,0,yellow,500,2,500,,vertical,yellow,Distractor2.bmp,cyan,Distractor2.bmp,purple,Distractor2.bmp,red,Target1.bmp,lime,Distractor2.bmp,blue,Distractor1.bmp,,,,TrialProc,2,TrainingTrialList,1,1,-999999,1,153309,0,1,670,153979,Target1.bmp,red,1,,,,10,2,41
KW_Experiment5A,17,1,"<?xml version=""1.0""?>\n<Clock xmlns:dt=""urn:schemas-microsoft-com:datatypes""><Description dt:dt=""string"">E-Prime Primary Realtime Clock</Description><StartTime><Timestamp dt:dt=""int"">0</Timestamp><DateUtc dt:dt=""string"">2018-10-11T21:17:12Z</DateUtc></StartTime><FrequencyChanges><FrequencyChange><Frequency dt:dt=""r8"">3215292</Frequency><Timestamp dt:dt=""r8"">4230837846023</Timestamp><Current dt:dt=""r8"">0</Current><DateUtc dt:dt=""string"">2018-10-11T21:17:12Z</DateUtc></FrequencyChange></FrequencyChanges></Clock>\n",KW_Experiment5A-17-1,59.945,1.0.0.105,1,295693217,Professional,2.0.10.353,2.0.10.353,10/11/2018,10/11/2018 21:17,17:17:12,2.0.10.248,2,2,1,2,,,,,,,,TrainingProc,BlockList,42,1,Distractor2.bmp,2,0,,0,1,154994,600,,0,0,purple,600,3,600,5,vertical,purple,Distractor2.bmp,blue,Distractor1.bmp,cyan,Distractor2.bmp,lime,Target1.bmp,red,Distractor2.bmp,yellow,Distractor2.bmp,,,,TrialProc,,TrainingTrialList,1,1,-999999,0,155594,0,1,448,156042,Target1.bmp,lime,1,,,,4,2,42
KW_Experiment5A,17,1,"<?xml version=""1.0""?>\n<Clock xmlns:dt=""urn:schemas-microsoft-com:datatypes""><Description dt:dt=""string"">E-Prime Primary Realtime Clock</Description><StartTime><Timestamp dt:dt=""int"">0</Timestamp><DateUtc dt:dt=""string"">2018-10-11T21:17:12Z</DateUtc></StartTime><FrequencyChanges><FrequencyChange><Frequency dt:dt=""r8"">3215292</Frequency><Timestamp dt:dt=""r8"">4230837846023</Timestamp><Current dt:dt=""r8"">0</Current><DateUtc dt:dt=""string"">2018-10-11T21:17:12Z</DateUtc></FrequencyChange></FrequencyChanges></Clock>\n",KW_Experiment5A-17-1,59.945,1.0.0.105,1,295693217,Professional,2.0.10.353,2.0.10.353,10/11/2018,10/11/2018 21:17,17:17:12,2.0.10.248,2,2,1,2,,,,,,,,TrainingProc,BlockList,43,1,Distractor1.bmp,1,0,,0,1,157062,401,,0,0,red,400,1,400,1,vertical,lime,Target1.bmp,red,Distractor1.bmp,purple,Distractor1.bmp,blue,Distractor1.bmp,cyan,Distractor1.bmp,yellow,Distractor1.bmp,,,,TrialProc,,TrainingTrialList,1,1,-999999,1,157463,0,1,523,157986,Target1.bmp,lime,1,,,,1,2,43
KW_Experiment5A,17,1,"<?xml version=""1.0""?>\n<Clock xmlns:dt=""urn:schemas-microsoft-com:datatypes""><Description dt:dt=""string"">E-Prime Primary Realtime Clock</Description><StartTime><Timestamp dt:dt=""int"">0</Timestamp><DateUtc dt:dt=""string"">2018-10-11T21:17:12Z</DateUtc></StartTime><FrequencyChanges><FrequencyChange><Frequency dt:dt=""r8"">3215292</Frequency><Timestamp dt:dt=""r8"">4230837846023</Timestamp><Current dt:dt=""r8"">0</Current><DateUtc dt:dt=""string"">2018-10-11T21:17:12Z</DateUtc></FrequencyChange></FrequencyChanges></Clock>\n",KW_Experiment5A-17-1,59.945,1.0.0.105,1,295693217,Professional,2.0.10.353,2.0.10.353,10/11/2018,10/11/2018 21:17,17:17:12,2.0.10.248,2,2,1,2,,,,,,,,TrainingProc,BlockList,44,1,Distractor1.bmp,1,0,,0,1,158997,401,,0,0,yellow,400,1,400,,vertical,red,Target1.bmp,cyan,Distractor1.bmp,blue,Distractor2.bmp,purple,Distractor2.bmp,lime,Distractor1.bmp,yellow,Distractor1.bmp,,,,TrialProc,2,TrainingTrialList,1,1,-999999,1,159398,0,1,364,159762,Target1.bmp,red,1,,,,7,2,44
KW_Experiment5A,17,1,"<?xml version=""1.0""?>\n<Clock xmlns:dt=""urn:schemas-microsoft-com:datatypes""><Description dt:dt=""string"">E-Prime Primary Realtime Clock</Description><StartTime><Timestamp dt:dt=""int"">0</Timestamp><DateUtc dt:dt=""string"">2018-10-11T21:17:12Z</DateUtc></StartTime><FrequencyChanges><FrequencyChange><Frequency dt:dt=""r8"">3215292</Frequency><Timestamp dt:dt=""r8"">4230837846023</Timestamp><Current dt:dt=""r8"">0</Current><DateUtc dt:dt=""string"">2018-10-11T21:17:12Z</DateUtc></FrequencyChange></FrequencyChanges></Clock>\n",KW_Experiment5A-17-1,59.945,1.0.0.105,1,295693217,Professional,2.0.10.353,2.0.10.353,10/11/2018,10/11/2018 21:17,17:17:12,2.0.10.248,2,2,1,2,,,,,,,,TrainingProc,BlockList,45,1,Distractor2.bmp,2,0,,0,1,160782,501,,0,0,yellow,500,2,500,2,vertical,yellow,Distractor2.bmp,cyan,Distractor1.bmp,purple,Distractor2.bmp,red,Distractor2.bmp,blue,Distractor2.bmp,lime,Target1.bmp,,,,TrialProc,,TrainingTrialList,1,1,-999999,1,161283,0,1,463,161746,Target1.bmp,lime,1,,,,6,2,45
KW_Experiment5A,17,1,"<?xml version=""1.0""?>\n<Clock xmlns:dt=""urn:schemas-microsoft-com:datatypes""><Description dt:dt=""string"">E-Prime Primary Realtime Clock</Description><StartTime><Timestamp dt:dt=""int"">0</Timestamp><DateUtc dt:dt=""string"">2018-10-11T21:17:12Z</DateUtc></StartTime><FrequencyChanges><FrequencyChange><Frequency dt:dt=""r8"">3215292</Frequency><Timestamp dt:dt=""r8"">4230837846023</Timestamp><Current dt:dt=""r8"">0</Current><DateUtc dt:dt=""string"">2018-10-11T21:17:12Z</DateUtc></FrequencyChange></FrequencyChanges></Clock>\n",KW_Experiment5A-17-1,59.945,1.0.0.105,1,295693217,Professional,2.0.10.353,2.0.10.353,10/11/2018,10/11/2018 21:17,17:17:12,2.0.10.248,2,2,1,2,,,,,,,,TrainingProc,BlockList,46,1,Distractor1.bmp,1,0,,0,1,162767,601,,0,0,red,600,3,600,1,vertical,lime,Target1.bmp,red,Distractor1.bmp,purple,Distractor2.bmp,blue,Distractor1.bmp,yellow,Distractor1.bmp,cyan,Distractor1.bmp,,,,TrialProc,,TrainingTrialList,0,1,-999999,1,163368,0,2,378,163746,Target1.bmp,lime,1,,,,1,2,46
KW_Experiment5A,17,1,"<?xml version=""1.0""?>\n<Clock xmlns:dt=""urn:schemas-microsoft-com:datatypes""><Description dt:dt=""string"">E-Prime Primary Realtime Clock</Description><StartTime><Timestamp dt:dt=""int"">0</Timestamp><DateUtc dt:dt=""string"">2018-10-11T21:17:12Z</DateUtc></StartTime><FrequencyChanges><FrequencyChange><Frequency dt:dt=""r8"">3215292</Frequency><Timestamp dt:dt=""r8"">4230837846023</Timestamp><Current dt:dt=""r8"">0</Current><DateUtc dt:dt=""string"">2018-10-11T21:17:12Z</DateUtc></FrequencyChange></FrequencyChanges></Clock>\n",KW_Experiment5A-17-1,59.945,1.0.0.105,1,295693217,Professional,2.0.10.353,2.0.10.353,10/11/2018,10/11/2018 21:17,17:17:12,2.0.10.248,2,2,1,2,,,,,,,,TrainingProc,BlockList,47,2,Distractor1.bmp,1,0,,0,1,164769,401,,0,0,purple,400,1,400,5,horizontal,purple,Distractor1.bmp,red,Distractor1.bmp,cyan,Distractor2.bmp,lime,Target2.bmp,blue,Distractor1.bmp,yellow,Distractor1.bmp,,,,TrialProc,,TrainingTrialList,0,2,-999999,1,165170,0,1,688,165858,Target2.bmp,lime,2,,,,4,2,47
KW_Experiment5A,17,1,"<?xml version=""1.0""?>\n<Clock xmlns:dt=""urn:schemas-microsoft-com:datatypes""><Description dt:dt=""string"">E-Prime Primary Realtime Clock</Description><StartTime><Timestamp dt:dt=""int"">0</Timestamp><DateUtc dt:dt=""string"">2018-10-11T21:17:12Z</DateUtc></StartTime><FrequencyChanges><FrequencyChange><Frequency dt:dt=""r8"">3215292</Frequency><Timestamp dt:dt=""r8"">4230837846023</Timestamp><Current dt:dt=""r8"">0</Current><DateUtc dt:dt=""string"">2018-10-11T21:17:12Z</DateUtc></FrequencyChange></FrequencyChanges></Clock>\n",KW_Experiment5A-17-1,59.945,1.0.0.105,1,295693217,Professional,2.0.10.353,2.0.10.353,10/11/2018,10/11/2018 21:17,17:17:12,2.0.10.248,2,2,1,2,,,,,,,,TrainingProc,BlockList,48,2,Distractor1.bmp,1,0,,0,1,166871,501,,0,0,purple,500,2,500,5,horizontal,purple,Distractor2.bmp,blue,Distractor2.bmp,lime,Target2.bmp,red,Distractor1.bmp,cyan,Distractor2.bmp,yellow,Distractor1.bmp,,,,TrialProc,,TrainingTrialList,1,2,-999999,1,167372,0,2,486,167858,Target2.bmp,lime,2,,,,3,2,48
KW_Experiment5A,17,1,"<?xml version=""1.0""?>\n<Clock xmlns:dt=""urn:schemas-microsoft-com:datatypes""><Description dt:dt=""string"">E-Prime Primary Realtime Clock</Description><StartTime><Timestamp dt:dt=""int"">0</Timestamp><DateUtc dt:dt=""string"">2018-10-11T21:17:12Z</DateUtc></StartTime><FrequencyChanges><FrequencyChange><Frequency dt:dt=""r8"">3215292</Frequency><Timestamp dt:dt=""r8"">4230837846023</Timestamp><Current dt:dt=""r8"">0</Current><DateUtc dt:dt=""string"">2018-10-11T21:17:12Z</DateUtc></FrequencyChange></FrequencyChanges></Clock>\n",KW_Experiment5A-17-1,59.945,1.0.0.105,1,295693217,Professional,2.0.10.353,2.0.10.353,10/11/2018,10/11/2018 21:17,17:17:12,2.0.10.248,3,2,1,3,,,,,,,,TrainingProc,BlockList,1,2,Distractor2.bmp,2,0,,0,15,170241,600,,0,0,red,600,3,600,1,horizontal,red,Distractor2.bmp,lime,Target2.bmp,blue,Distractor2.bmp,purple,Distractor1.bmp,cyan,Distractor2.bmp,yellow,Distractor1.bmp,,,,TrialProc,,TrainingTrialList,1,2,-999999,0,170841,0,2,401,171242,Target2.bmp,lime,2,,,,2,3,49
KW_Experiment5A,17,1,"<?xml version=""1.0""?>\n<Clock xmlns:dt=""urn:schemas-microsoft-com:datatypes""><Description dt:dt=""string"">E-Prime Primary Realtime Clock</Description><StartTime><Timestamp dt:dt=""int"">0</Timestamp><DateUtc dt:dt=""string"">2018-10-11T21:17:12Z</DateUtc></StartTime><FrequencyChanges><FrequencyChange><Frequency dt:dt=""r8"">3215292</Frequency><Timestamp dt:dt=""r8"">4230837846023</Timestamp><Current dt:dt=""r8"">0</Current><DateUtc dt:dt=""string"">2018-10-11T21:17:12Z</DateUtc></FrequencyChange></FrequencyChanges></Clock>\n",KW_Experiment5A-17-1,59.945,1.0.0.105,1,295693217,Professional,2.0.10.353,2.0.10.353,10/11/2018,10/11/2018 21:17,17:17:12,2.0.10.248,3,2,1,3,,,,,,,,TrainingProc,BlockList,2,2,Distractor1.bmp,1,0,,0,1,172259,401,,0,0,blue,400,1,400,,horizontal,blue,Distractor1.bmp,yellow,Distractor2.bmp,purple,Distractor1.bmp,cyan,Distractor2.bmp,lime,Distractor1.bmp,red,Target2.bmp,,,,TrialProc,3,TrainingTrialList,0,2,-999999,1,172660,0,1,438,173098,Target2.bmp,red,2,,,,12,3,50
KW_Experiment5A,17,1,"<?xml version=""1.0""?>\n<Clock xmlns:dt=""urn:schemas-microsoft-com:datatypes""><Description dt:dt=""string"">E-Prime Primary Realtime Clock</Description><StartTime><Timestamp dt:dt=""int"">0</Timestamp><DateUtc dt:dt=""string"">2018-10-11T21:17:12Z</DateUtc></StartTime><FrequencyChanges><FrequencyChange><Frequency dt:dt=""r8"">3215292</Frequency><Timestamp dt:dt=""r8"">4230837846023</Timestamp><Current dt:dt=""r8"">0</Current><DateUtc dt:dt=""string"">2018-10-11T21:17:12Z</DateUtc></FrequencyChange></FrequencyChanges></Clock>\n",KW_Experiment5A-17-1,59.945,1.0.0.105,1,295693217,Professional,2.0.10.353,2.0.10.353,10/11/2018,10/11/2018 21:17,17:17:12,2.0.10.248,3,2,1,3,,,,,,,,TrainingProc,BlockList,3,1,Distractor1.bmp,1,0,,0,1,174111,400,,0,0,yellow,400,1,400,2,vertical,yellow,Distractor2.bmp,cyan,Distractor1.bmp,purple,Distractor1.bmp,red,Distractor2.bmp,lime,Target1.bmp,blue,Distractor1.bmp,,,,TrialProc,,TrainingTrialList,1,1,-999999,0,174511,0,1,499,175010,Target1.bmp,lime,1,,,,5,3,51
KW_Experiment5A,17,1,"<?xml version=""1.0""?>\n<Clock xmlns:dt=""urn:schemas-microsoft-com:datatypes""><Description dt:dt=""string"">E-Prime Primary Realtime Clock</Description><StartTime><Timestamp dt:dt=""int"">0</Timestamp><DateUtc dt:dt=""string"">2018-10-11T21:17:12Z</DateUtc></StartTime><FrequencyChanges><FrequencyChange><Frequency dt:dt=""r8"">3215292</Frequency><Timestamp dt:dt=""r8"">4230837846023</Timestamp><Current dt:dt=""r8"">0</Current><DateUtc dt:dt=""string"">2018-10-11T21:17:12Z</DateUtc></FrequencyChange></FrequencyChanges></Clock>\n",KW_Experiment5A-17-1,59.945,1.0.0.105,1,295693217,Professional,2.0.10.353,2.0.10.353,10/11/2018,10/11/2018 21:17,17:17:12,2.0.10.248,3,2,1,3,,,,,,,,TrainingProc,BlockList,4,1,Distractor1.bmp,1,0,,0,1,176029,401,,0,0,yellow,400,1,400,,vertical,yellow,Distractor2.bmp,purple,Distractor2.bmp,red,Target1.bmp,cyan,Distractor1.bmp,blue,Distractor2.bmp,lime,Distractor2.bmp,,,,TrialProc,2,TrainingTrialList,0,1,-999999,1,176430,0,2,364,176794,Target1.bmp,red,1,,,,9,3,52
KW_Experiment5A,17,1,"<?xml version=""1.0""?>\n<Clock xmlns:dt=""urn:schemas-microsoft-com:datatypes""><Description dt:dt=""string"">E-Prime Primary Realtime Clock</Description><StartTime><Timestamp dt:dt=""int"">0</Timestamp><DateUtc dt:dt=""string"">2018-10-11T21:17:12Z</DateUtc></StartTime><FrequencyChanges><FrequencyChange><Frequency dt:dt=""r8"">3215292</Frequency><Timestamp dt:dt=""r8"">4230837846023</Timestamp><Current dt:dt=""r8"">0</Current><DateUtc dt:dt=""string"">2018-10-11T21:17:12Z</DateUtc></FrequencyChange></FrequencyChanges></Clock>\n",KW_Experiment5A-17-1,59.945,1.0.0.105,1,295693217,Professional,2.0.10.353,2.0.10.353,10/11/2018,10/11/2018 21:17,17:17:12,2.0.10.248,3,2,1,3,,,,,,,,TrainingProc,BlockList,5,2,Distractor2.bmp,2,0,,0,1,177814,401,,0,0,red,400,1,400,1,horizontal,red,Distractor1.bmp,purple,Distractor1.bmp,blue,Distractor1.bmp,lime,Target2.bmp,yellow,Distractor2.bmp,cyan,Distractor1.bmp,,,,TrialProc,,TrainingTrialList,0,2,-999999,1,178215,0,1,507,178722,Target2.bmp,lime,2,,,,4,3,53
KW_Experiment5A,17,1,"<?xml version=""1.0""?>\n<Clock xmlns:dt=""urn:schemas-microsoft-com:datatypes""><Description dt:dt=""string"">E-Prime Primary Realtime Clock</Description><StartTime><Timestamp dt:dt=""int"">0</Timestamp><DateUtc dt:dt=""string"">2018-10-11T21:17:12Z</DateUtc></StartTime><FrequencyChanges><FrequencyChange><Frequency dt:dt=""r8"">3215292</Frequency><Timestamp dt:dt=""r8"">4230837846023</Timestamp><Current dt:dt=""r8"">0</Current><DateUtc dt:dt=""string"">2018-10-11T21:17:12Z</DateUtc></FrequencyChange></FrequencyChanges></Clock>\n",KW_Experiment5A-17-1,59.945,1.0.0.105,1,295693217,Professional,2.0.10.353,2.0.10.353,10/11/2018,10/11/2018 21:17,17:17:12,2.0.10.248,3,2,1,3,,,,,,,,TrainingProc,BlockList,6,1,Distractor2.bmp,2,0,,0,1,179733,500,,0,0,blue,500,2,500,3,vertical,blue,Distractor2.bmp,cyan,Distractor1.bmp,yellow,Distractor2.bmp,red,Distractor1.bmp,purple,Distractor1.bmp,lime,Target1.bmp,,,,TrialProc,,TrainingTrialList,1,1,-999999,0,180233,0,1,449,180682,Target1.bmp,lime,1,,,,6,3,54
KW_Experiment5A,17,1,"<?xml version=""1.0""?>\n<Clock xmlns:dt=""urn:schemas-microsoft-com:datatypes""><Description dt:dt=""string"">E-Prime Primary Realtime Clock</Description><StartTime><Timestamp dt:dt=""int"">0</Timestamp><DateUtc dt:dt=""string"">2018-10-11T21:17:12Z</DateUtc></StartTime><FrequencyChanges><FrequencyChange><Frequency dt:dt=""r8"">3215292</Frequency><Timestamp dt:dt=""r8"">4230837846023</Timestamp><Current dt:dt=""r8"">0</Current><DateUtc dt:dt=""string"">2018-10-11T21:17:12Z</DateUtc></FrequencyChange></FrequencyChanges></Clock>\n",KW_Experiment5A-17-1,59.945,1.0.0.105,1,295693217,Professional,2.0.10.353,2.0.10.353,10/11/2018,10/11/2018 21:17,17:17:12,2.0.10.248,3,2,1,3,,,,,,,,TrainingProc,BlockList,7,2,Distractor1.bmp,1,0,,0,1,181701,601,,0,0,red,600,3,600,1,horizontal,red,Distractor1.bmp,cyan,Distractor1.bmp,purple,Distractor2.bmp,blue,Distractor1.bmp,yellow,Distractor2.bmp,lime,Target2.bmp,,,,TrialProc,,TrainingTrialList,0,2,-999999,1,182302,0,1,444,182746,Target2.bmp,lime,2,,,,6,3,55
KW_Experiment5A,17,1,"<?xml version=""1.0""?>\n<Clock xmlns:dt=""urn:schemas-microsoft-com:datatypes""><Description dt:dt=""string"">E-Prime Primary Realtime Clock</Description><StartTime><Timestamp dt:dt=""int"">0</Timestamp><DateUtc dt:dt=""string"">2018-10-11T21:17:12Z</DateUtc></StartTime><FrequencyChanges><FrequencyChange><Frequency dt:dt=""r8"">3215292</Frequency><Timestamp dt:dt=""r8"">4230837846023</Timestamp><Current dt:dt=""r8"">0</Current><DateUtc dt:dt=""string"">2018-10-11T21:17:12Z</DateUtc></FrequencyChange></FrequencyChanges></Clock>\n",KW_Experiment5A-17-1,59.945,1.0.0.105,1,295693217,Professional,2.0.10.353,2.0.10.353,10/11/2018,10/11/2018 21:17,17:17:12,2.0.10.248,3,2,1,3,,,,,,,,TrainingProc,BlockList,8,2,Distractor2.bmp,2,0,,0,1,183770,500,,0,0,blue,500,2,500,3,horizontal,blue,Distractor1.bmp,lime,Target2.bmp,red,Distractor2.bmp,purple,Distractor2.bmp,yellow,Distractor2.bmp,cyan,Distractor2.bmp,,,,TrialProc,,TrainingTrialList,1,2,-999999,0,184270,0,2,404,184674,Target2.bmp,lime,2,,,,2,3,56
KW_Experiment5A,17,1,"<?xml version=""1.0""?>\n<Clock xmlns:dt=""urn:schemas-microsoft-com:datatypes""><Description dt:dt=""string"">E-Prime Primary Realtime Clock</Description><StartTime><Timestamp dt:dt=""int"">0</Timestamp><DateUtc dt:dt=""string"">2018-10-11T21:17:12Z</DateUtc></StartTime><FrequencyChanges><FrequencyChange><Frequency dt:dt=""r8"">3215292</Frequency><Timestamp dt:dt=""r8"">4230837846023</Timestamp><Current dt:dt=""r8"">0</Current><DateUtc dt:dt=""string"">2018-10-11T21:17:12Z</DateUtc></FrequencyChange></FrequencyChanges></Clock>\n",KW_Experiment5A-17-1,59.945,1.0.0.105,1,295693217,Professional,2.0.10.353,2.0.10.353,10/11/2018,10/11/2018 21:17,17:17:12,2.0.10.248,3,2,1,3,,,,,,,,TrainingProc,BlockList,9,1,Distractor2.bmp,2,0,,0,1,185688,501,,0,0,lime,500,2,500,,vertical,lime,Distractor2.bmp,blue,Distractor1.bmp,yellow,Distractor2.bmp,red,Target1.bmp,purple,Distractor2.bmp,cyan,Distractor1.bmp,,,,TrialProc,6,TrainingTrialList,1,1,-999999,1,186189,0,1,501,186690,Target1.bmp,red,1,,,,10,3,57
KW_Experiment5A,17,1,"<?xml version=""1.0""?>\n<Clock xmlns:dt=""urn:schemas-microsoft-com:datatypes""><Description dt:dt=""string"">E-Prime Primary Realtime Clock</Description><StartTime><Timestamp dt:dt=""int"">0</Timestamp><DateUtc dt:dt=""string"">2018-10-11T21:17:12Z</DateUtc></StartTime><FrequencyChanges><FrequencyChange><Frequency dt:dt=""r8"">3215292</Frequency><Timestamp dt:dt=""r8"">4230837846023</Timestamp><Current dt:dt=""r8"">0</Current><DateUtc dt:dt=""string"">2018-10-11T21:17:12Z</DateUtc></FrequencyChange></FrequencyChanges></Clock>\n",KW_Experiment5A-17-1,59.945,1.0.0.105,1,295693217,Professional,2.0.10.353,2.0.10.353,10/11/2018,10/11/2018 21:17,17:17:12,2.0.10.248,3,2,1,3,,,,,,,,TrainingProc,BlockList,10,2,Distractor2.bmp,2,0,,0,1,187707,400,,0,0,purple,400,1,400,5,horizontal,purple,Distractor2.bmp,yellow,Distractor2.bmp,red,Distractor1.bmp,cyan,Distractor2.bmp,blue,Distractor1.bmp,lime,Target2.bmp,,,,TrialProc,,TrainingTrialList,1,2,-999999,0,188107,0,2,559,188666,Target2.bmp,lime,2,,,,6,3,58
KW_Experiment5A,17,1,"<?xml version=""1.0""?>\n<Clock xmlns:dt=""urn:schemas-microsoft-com:datatypes""><Description dt:dt=""string"">E-Prime Primary Realtime Clock</Description><StartTime><Timestamp dt:dt=""int"">0</Timestamp><DateUtc dt:dt=""string"">2018-10-11T21:17:12Z</DateUtc></StartTime><FrequencyChanges><FrequencyChange><Frequency dt:dt=""r8"">3215292</Frequency><Timestamp dt:dt=""r8"">4230837846023</Timestamp><Current dt:dt=""r8"">0</Current><DateUtc dt:dt=""string"">2018-10-11T21:17:12Z</DateUtc></FrequencyChange></FrequencyChanges></Clock>\n",KW_Experiment5A-17-1,59.945,1.0.0.105,1,295693217,Professional,2.0.10.353,2.0.10.353,10/11/2018,10/11/2018 21:17,17:17:12,2.0.10.248,3,2,1,3,,,,,,,,TrainingProc,BlockList,11,2,Distractor2.bmp,2,0,,0,1,189675,400,,0,0,blue,400,1,400,,horizontal,blue,Distractor1.bmp,red,Target2.bmp,cyan,Distractor2.bmp,purple,Distractor2.bmp,lime,Distractor2.bmp,yellow,Distractor2.bmp,,,,TrialProc,3,TrainingTrialList,1,2,-999999,0,190075,0,2,447,190522,Target2.bmp,red,2,,,,8,3,59
KW_Experiment5A,17,1,"<?xml version=""1.0""?>\n<Clock xmlns:dt=""urn:schemas-microsoft-com:datatypes""><Description dt:dt=""string"">E-Prime Primary Realtime Clock</Description><StartTime><Timestamp dt:dt=""int"">0</Timestamp><DateUtc dt:dt=""string"">2018-10-11T21:17:12Z</DateUtc></StartTime><FrequencyChanges><FrequencyChange><Frequency dt:dt=""r8"">3215292</Frequency><Timestamp dt:dt=""r8"">4230837846023</Timestamp><Current dt:dt=""r8"">0</Current><DateUtc dt:dt=""string"">2018-10-11T21:17:12Z</DateUtc></FrequencyChange></FrequencyChanges></Clock>\n",KW_Experiment5A-17-1,59.945,1.0.0.105,1,295693217,Professional,2.0.10.353,2.0.10.353,10/11/2018,10/11/2018 21:17,17:17:12,2.0.10.248,3,2,1,3,,,,,,,,TrainingProc,BlockList,12,2,Distractor1.bmp,1,0,,0,1,191544,500,,0,0,blue,500,2,500,3,horizontal,blue,Distractor1.bmp,purple,Distractor2.bmp,cyan,Distractor1.bmp,lime,Target2.bmp,yellow,Distractor1.bmp,red,Distractor2.bmp,,,,TrialProc,,TrainingTrialList,1,2,-999999,0,192044,0,2,614,192658,Target2.bmp,lime,2,,,,4,3,60
KW_Experiment5A,17,1,"<?xml version=""1.0""?>\n<Clock xmlns:dt=""urn:schemas-microsoft-com:datatypes""><Description dt:dt=""string"">E-Prime Primary Realtime Clock</Description><StartTime><Timestamp dt:dt=""int"">0</Timestamp><DateUtc dt:dt=""string"">2018-10-11T21:17:12Z</DateUtc></StartTime><FrequencyChanges><FrequencyChange><Frequency dt:dt=""r8"">3215292</Frequency><Timestamp dt:dt=""r8"">4230837846023</Timestamp><Current dt:dt=""r8"">0</Current><DateUtc dt:dt=""string"">2018-10-11T21:17:12Z</DateUtc></FrequencyChange></FrequencyChanges></Clock>\n",KW_Experiment5A-17-1,59.945,1.0.0.105,1,295693217,Professional,2.0.10.353,2.0.10.353,10/11/2018,10/11/2018 21:17,17:17:12,2.0.10.248,3,2,1,3,,,,,,,,TrainingProc,BlockList,13,2,Distractor1.bmp,1,0,,0,1,193679,500,,0,0,cyan,500,2,500,4,horizontal,cyan,Distractor1.bmp,yellow,Distractor1.bmp,lime,Target2.bmp,red,Distractor1.bmp,purple,Distractor1.bmp,blue,Distractor2.bmp,,,,TrialProc,,TrainingTrialList,1,2,-999999,0,194179,0,2,423,194602,Target2.bmp,lime,2,,,,3,3,61
KW_Experiment5A,17,1,"<?xml version=""1.0""?>\n<Clock xmlns:dt=""urn:schemas-microsoft-com:datatypes""><Description dt:dt=""string"">E-Prime Primary Realtime Clock</Description><StartTime><Timestamp dt:dt=""int"">0</Timestamp><DateUtc dt:dt=""string"">2018-10-11T21:17:12Z</DateUtc></StartTime><FrequencyChanges><FrequencyChange><Frequency dt:dt=""r8"">3215292</Frequency><Timestamp dt:dt=""r8"">4230837846023</Timestamp><Current dt:dt=""r8"">0</Current><DateUtc dt:dt=""string"">2018-10-11T21:17:12Z</DateUtc></FrequencyChange></FrequencyChanges></Clock>\n",KW_Experiment5A-17-1,59.945,1.0.0.105,1,295693217,Professional,2.0.10.353,2.0.10.353,10/11/2018,10/11/2018 21:17,17:17:12,2.0.10.248,3,2,1,3,,,,,,,,TrainingProc,BlockList,14,2,Distractor1.bmp,1,0,,0,1,195614,600,,0,0,yellow,600,3,600,2,horizontal,lime,Target2.bmp,yellow,Distractor1.bmp,purple,Distractor1.bmp,red,Distractor1.bmp,blue,Distractor1.bmp,cyan,Distractor2.bmp,,,,TrialProc,,TrainingTrialList,1,2,-999999,0,196214,0,2,403,196617,Target2.bmp,lime,2,,,,1,3,62
KW_Experiment5A,17,1,"<?xml version=""1.0""?>\n<Clock xmlns:dt=""urn:schemas-microsoft-com:datatypes""><Description dt:dt=""string"">E-Prime Primary Realtime Clock</Description><StartTime><Timestamp dt:dt=""int"">0</Timestamp><DateUtc dt:dt=""string"">2018-10-11T21:17:12Z</DateUtc></StartTime><FrequencyChanges><FrequencyChange><Frequency dt:dt=""r8"">3215292</Frequency><Timestamp dt:dt=""r8"">4230837846023</Timestamp><Current dt:dt=""r8"">0</Current><DateUtc dt:dt=""string"">2018-10-11T21:17:12Z</DateUtc></FrequencyChange></FrequencyChanges></Clock>\n",KW_Experiment5A-17-1,59.945,1.0.0.105,1,295693217,Professional,2.0.10.353,2.0.10.353,10/11/2018,10/11/2018 21:17,17:17:12,2.0.10.248,3,2,1,3,,,,,,,,TrainingProc,BlockList,15,2,Distractor2.bmp,2,0,,0,1,197632,401,,0,0,cyan,400,1,400,,horizontal,red,Target2.bmp,blue,Distractor2.bmp,yellow,Distractor2.bmp,lime,Distractor2.bmp,purple,Distractor2.bmp,cyan,Distractor1.bmp,,,,TrialProc,4,TrainingTrialList,1,2,-999999,1,198033,0,2,392,198425,Target2.bmp,red,2,,,,7,3,63
KW_Experiment5A,17,1,"<?xml version=""1.0""?>\n<Clock xmlns:dt=""urn:schemas-microsoft-com:datatypes""><Description dt:dt=""string"">E-Prime Primary Realtime Clock</Description><StartTime><Timestamp dt:dt=""int"">0</Timestamp><DateUtc dt:dt=""string"">2018-10-11T21:17:12Z</DateUtc></StartTime><FrequencyChanges><FrequencyChange><Frequency dt:dt=""r8"">3215292</Frequency><Timestamp dt:dt=""r8"">4230837846023</Timestamp><Current dt:dt=""r8"">0</Current><DateUtc dt:dt=""string"">2018-10-11T21:17:12Z</DateUtc></FrequencyChange></FrequencyChanges></Clock>\n",KW_Experiment5A-17-1,59.945,1.0.0.105,1,295693217,Professional,2.0.10.353,2.0.10.353,10/11/2018,10/11/2018 21:17,17:17:12,2.0.10.248,3,2,1,3,,,,,,,,TrainingProc,BlockList,16,1,Distractor2.bmp,2,0,,0,1,199451,400,,0,0,blue,400,1,400,3,vertical,blue,Distractor1.bmp,cyan,Distractor2.bmp,red,Distractor1.bmp,yellow,Distractor1.bmp,lime,Target1.bmp,purple,Distractor2.bmp,,,,TrialProc,,TrainingTrialList,0,1,-999999,0,199851,0,2,454,200305,Target1.bmp,lime,1,,,,5,3,64
KW_Experiment5A,17,1,"<?xml version=""1.0""?>\n<Clock xmlns:dt=""urn:schemas-microsoft-com:datatypes""><Description dt:dt=""string"">E-Prime Primary Realtime Clock</Description><StartTime><Timestamp dt:dt=""int"">0</Timestamp><DateUtc dt:dt=""string"">2018-10-11T21:17:12Z</DateUtc></StartTime><FrequencyChanges><FrequencyChange><Frequency dt:dt=""r8"">3215292</Frequency><Timestamp dt:dt=""r8"">4230837846023</Timestamp><Current dt:dt=""r8"">0</Current><DateUtc dt:dt=""string"">2018-10-11T21:17:12Z</DateUtc></FrequencyChange></FrequencyChanges></Clock>\n",KW_Experiment5A-17-1,59.945,1.0.0.105,1,295693217,Professional,2.0.10.353,2.0.10.353,10/11/2018,10/11/2018 21:17,17:17:12,2.0.10.248,3,2,1,3,,,,,,,,TrainingProc,BlockList,17,2,Distractor2.bmp,2,0,,0,1,201319,601,,0,0,red,600,3,600,1,horizontal,red,Distractor2.bmp,blue,Distractor2.bmp,purple,Distractor1.bmp,lime,Target2.bmp,yellow,Distractor2.bmp,cyan,Distractor1.bmp,,,,TrialProc,,TrainingTrialList,1,2,-999999,1,201920,0,2,633,202553,Target2.bmp,lime,2,,,,4,3,65
KW_Experiment5A,17,1,"<?xml version=""1.0""?>\n<Clock xmlns:dt=""urn:schemas-microsoft-com:datatypes""><Description dt:dt=""string"">E-Prime Primary Realtime Clock</Description><StartTime><Timestamp dt:dt=""int"">0</Timestamp><DateUtc dt:dt=""string"">2018-10-11T21:17:12Z</DateUtc></StartTime><FrequencyChanges><FrequencyChange><Frequency dt:dt=""r8"">3215292</Frequency><Timestamp dt:dt=""r8"">4230837846023</Timestamp><Current dt:dt=""r8"">0</Current><DateUtc dt:dt=""string"">2018-10-11T21:17:12Z</DateUtc></FrequencyChange></FrequencyChanges></Clock>\n",KW_Experiment5A-17-1,59.945,1.0.0.105,1,295693217,Professional,2.0.10.353,2.0.10.353,10/11/2018,10/11/2018 21:17,17:17:12,2.0.10.248,3,2,1,3,,,,,,,,TrainingProc,BlockList,18,2,Distractor1.bmp,1,0,,0,1,203571,400,,0,0,lime,400,1,400,,horizontal,lime,Distractor1.bmp,cyan,Distractor2.bmp,yellow,Distractor1.bmp,purple,Distractor1.bmp,red,Target2.bmp,blue,Distractor1.bmp,,,,TrialProc,6,TrainingTrialList,1,2,-999999,0,203971,0,2,582,204553,Target2.bmp,red,2,,,,11,3,66
KW_Experiment5A,17,1,"<?xml version=""1.0""?>\n<Clock xmlns:dt=""urn:schemas-microsoft-com:datatypes""><Description dt:dt=""string"">E-Prime Primary Realtime Clock</Description><StartTime><Timestamp dt:dt=""int"">0</Timestamp><DateUtc dt:dt=""string"">2018-10-11T21:17:12Z</DateUtc></StartTime><FrequencyChanges><FrequencyChange><Frequency dt:dt=""r8"">3215292</Frequency><Timestamp dt:dt=""r8"">4230837846023</Timestamp><Current dt:dt=""r8"">0</Current><DateUtc dt:dt=""string"">2018-10-11T21:17:12Z</DateUtc></FrequencyChange></FrequencyChanges></Clock>\n",KW_Experiment5A-17-1,59.945,1.0.0.105,1,295693217,Professional,2.0.10.353,2.0.10.353,10/11/2018,10/11/2018 21:17,17:17:12,2.0.10.248,3,2,1,3,,,,,,,,TrainingProc,BlockList,19,2,Distractor1.bmp,1,0,,0,1,205573,500,,0,0,red,500,2,500,1,horizontal,red,Distractor2.bmp,yellow,Distractor2.bmp,cyan,Distractor1.bmp,purple,Distractor1.bmp,lime,Target2.bmp,blue,Distractor1.bmp,,,,TrialProc,,TrainingTrialList,1,2,-999999,0,206073,0,2,472,206545,Target2.bmp,lime,2,,,,5,3,67
KW_Experiment5A,17,1,"<?xml version=""1.0""?>\n<Clock xmlns:dt=""urn:schemas-microsoft-com:datatypes""><Description dt:dt=""string"">E-Prime Primary Realtime Clock</Description><StartTime><Timestamp dt:dt=""int"">0</Timestamp><DateUtc dt:dt=""string"">2018-10-11T21:17:12Z</DateUtc></StartTime><FrequencyChanges><FrequencyChange><Frequency dt:dt=""r8"">3215292</Frequency><Timestamp dt:dt=""r8"">4230837846023</Timestamp><Current dt:dt=""r8"">0</Current><DateUtc dt:dt=""string"">2018-10-11T21:17:12Z</DateUtc></FrequencyChange></FrequencyChanges></Clock>\n",KW_Experiment5A-17-1,59.945,1.0.0.105,1,295693217,Professional,2.0.10.353,2.0.10.353,10/11/2018,10/11/2018 21:17,17:17:12,2.0.10.248,3,2,1,3,,,,,,,,TrainingProc,BlockList,20,2,Distractor1.bmp,1,0,,0,1,207558,601,,0,0,purple,600,3,600,5,horizontal,purple,Distractor2.bmp,cyan,Distractor2.bmp,lime,Target2.bmp,yellow,Distractor1.bmp,red,Distractor1.bmp,blue,Distractor1.bmp,,,,TrialProc,,TrainingTrialList,0,2,-999999,1,208159,0,1,498,208657,Target2.bmp,lime,2,,,,3,3,68
KW_Experiment5A,17,1,"<?xml version=""1.0""?>\n<Clock xmlns:dt=""urn:schemas-microsoft-com:datatypes""><Description dt:dt=""string"">E-Prime Primary Realtime Clock</Description><StartTime><Timestamp dt:dt=""int"">0</Timestamp><DateUtc dt:dt=""string"">2018-10-11T21:17:12Z</DateUtc></StartTime><FrequencyChanges><FrequencyChange><Frequency dt:dt=""r8"">3215292</Frequency><Timestamp dt:dt=""r8"">4230837846023</Timestamp><Current dt:dt=""r8"">0</Current><DateUtc dt:dt=""string"">2018-10-11T21:17:12Z</DateUtc></FrequencyChange></FrequencyChanges></Clock>\n",KW_Experiment5A-17-1,59.945,1.0.0.105,1,295693217,Professional,2.0.10.353,2.0.10.353,10/11/2018,10/11/2018 21:17,17:17:12,2.0.10.248,3,2,1,3,,,,,,,,TrainingProc,BlockList,21,2,Distractor1.bmp,1,0,,0,1,209677,500,,0,0,cyan,500,2,500,4,horizontal,cyan,Distractor1.bmp,lime,Target2.bmp,purple,Distractor1.bmp,blue,Distractor1.bmp,red,Distractor1.bmp,yellow,Distractor2.bmp,,,,TrialProc,,TrainingTrialList,1,2,-999999,0,210177,0,2,488,210665,Target2.bmp,lime,2,,,,2,3,69
KW_Experiment5A,17,1,"<?xml version=""1.0""?>\n<Clock xmlns:dt=""urn:schemas-microsoft-com:datatypes""><Description dt:dt=""string"">E-Prime Primary Realtime Clock</Description><StartTime><Timestamp dt:dt=""int"">0</Timestamp><DateUtc dt:dt=""string"">2018-10-11T21:17:12Z</DateUtc></StartTime><FrequencyChanges><FrequencyChange><Frequency dt:dt=""r8"">3215292</Frequency><Timestamp dt:dt=""r8"">4230837846023</Timestamp><Current dt:dt=""r8"">0</Current><DateUtc dt:dt=""string"">2018-10-11T21:17:12Z</DateUtc></FrequencyChange></FrequencyChanges></Clock>\n",KW_Experiment5A-17-1,59.945,1.0.0.105,1,295693217,Professional,2.0.10.353,2.0.10.353,10/11/2018,10/11/2018 21:17,17:17:12,2.0.10.248,3,2,1,3,,,,,,,,TrainingProc,BlockList,22,2,Distractor2.bmp,2,0,,1,0,211678,601,,0,0,cyan,600,3,600,4,horizontal,cyan,Distractor2.bmp,purple,Distractor1.bmp,lime,Target2.bmp,yellow,Distractor2.bmp,red,Distractor2.bmp,blue,Distractor1.bmp,,,,TrialProc,,TrainingTrialList,1,2,-999999,1,212279,0,2,434,212713,Target2.bmp,lime,2,,,,3,3,70
KW_Experiment5A,17,1,"<?xml version=""1.0""?>\n<Clock xmlns:dt=""urn:schemas-microsoft-com:datatypes""><Description dt:dt=""string"">E-Prime Primary Realtime Clock</Description><StartTime><Timestamp dt:dt=""int"">0</Timestamp><DateUtc dt:dt=""string"">2018-10-11T21:17:12Z</DateUtc></StartTime><FrequencyChanges><FrequencyChange><Frequency dt:dt=""r8"">3215292</Frequency><Timestamp dt:dt=""r8"">4230837846023</Timestamp><Current dt:dt=""r8"">0</Current><DateUtc dt:dt=""string"">2018-10-11T21:17:12Z</DateUtc></FrequencyChange></FrequencyChanges></Clock>\n",KW_Experiment5A-17-1,59.945,1.0.0.105,1,295693217,Professional,2.0.10.353,2.0.10.353,10/11/2018,10/11/2018 21:17,17:17:12,2.0.10.248,3,2,1,3,,,,,,,,TrainingProc,BlockList,23,1,Distractor2.bmp,2,0,,0,1,213730,501,,0,0,purple,500,2,500,5,vertical,lime,Target1.bmp,purple,Distractor2.bmp,red,Distractor2.bmp,yellow,Distractor1.bmp,blue,Distractor1.bmp,cyan,Distractor1.bmp,,,,TrialProc,,TrainingTrialList,1,1,-999999,1,214231,0,1,546,214777,Target1.bmp,lime,1,,,,1,3,71
KW_Experiment5A,17,1,"<?xml version=""1.0""?>\n<Clock xmlns:dt=""urn:schemas-microsoft-com:datatypes""><Description dt:dt=""string"">E-Prime Primary Realtime Clock</Description><StartTime><Timestamp dt:dt=""int"">0</Timestamp><DateUtc dt:dt=""string"">2018-10-11T21:17:12Z</DateUtc></StartTime><FrequencyChanges><FrequencyChange><Frequency dt:dt=""r8"">3215292</Frequency><Timestamp dt:dt=""r8"">4230837846023</Timestamp><Current dt:dt=""r8"">0</Current><DateUtc dt:dt=""string"">2018-10-11T21:17:12Z</DateUtc></FrequencyChange></FrequencyChanges></Clock>\n",KW_Experiment5A-17-1,59.945,1.0.0.105,1,295693217,Professional,2.0.10.353,2.0.10.353,10/11/2018,10/11/2018 21:17,17:17:12,2.0.10.248,3,2,1,3,,,,,,,,TrainingProc,BlockList,24,2,Distractor1.bmp,1,0,,0,1,215799,600,,0,0,cyan,600,3,600,4,horizontal,lime,Target2.bmp,cyan,Distractor1.bmp,yellow,Distractor2.bmp,red,Distractor2.bmp,purple,Distractor1.bmp,blue,Distractor2.bmp,,,,TrialProc,,TrainingTrialList,1,2,-999999,0,216399,0,2,482,216881,Target2.bmp,lime,2,,,,1,3,72
KW_Experiment5A,17,1,"<?xml version=""1.0""?>\n<Clock xmlns:dt=""urn:schemas-microsoft-com:datatypes""><Description dt:dt=""string"">E-Prime Primary Realtime Clock</Description><StartTime><Timestamp dt:dt=""int"">0</Timestamp><DateUtc dt:dt=""string"">2018-10-11T21:17:12Z</DateUtc></StartTime><FrequencyChanges><FrequencyChange><Frequency dt:dt=""r8"">3215292</Frequency><Timestamp dt:dt=""r8"">4230837846023</Timestamp><Current dt:dt=""r8"">0</Current><DateUtc dt:dt=""string"">2018-10-11T21:17:12Z</DateUtc></FrequencyChange></FrequencyChanges></Clock>\n",KW_Experiment5A-17-1,59.945,1.0.0.105,1,295693217,Professional,2.0.10.353,2.0.10.353,10/11/2018,10/11/2018 21:17,17:17:12,2.0.10.248,3,2,1,3,,,,,,,,TrainingProc,BlockList,25,2,Distractor2.bmp,2,0,,0,1,217901,600,,0,0,cyan,600,3,600,4,horizontal,cyan,Distractor2.bmp,red,Distractor2.bmp,purple,Distractor1.bmp,lime,Target2.bmp,blue,Distractor2.bmp,yellow,Distractor1.bmp,,,,TrialProc,,TrainingTrialList,0,2,-999999,0,218501,0,1,604,219105,Target2.bmp,lime,2,,,,4,4,73
KW_Experiment5A,17,1,"<?xml version=""1.0""?>\n<Clock xmlns:dt=""urn:schemas-microsoft-com:datatypes""><Description dt:dt=""string"">E-Prime Primary Realtime Clock</Description><StartTime><Timestamp dt:dt=""int"">0</Timestamp><DateUtc dt:dt=""string"">2018-10-11T21:17:12Z</DateUtc></StartTime><FrequencyChanges><FrequencyChange><Frequency dt:dt=""r8"">3215292</Frequency><Timestamp dt:dt=""r8"">4230837846023</Timestamp><Current dt:dt=""r8"">0</Current><DateUtc dt:dt=""string"">2018-10-11T21:17:12Z</DateUtc></FrequencyChange></FrequencyChanges></Clock>\n",KW_Experiment5A-17-1,59.945,1.0.0.105,1,295693217,Professional,2.0.10.353,2.0.10.353,10/11/2018,10/11/2018 21:17,17:17:12,2.0.10.248,3,2,1,3,,,,,,,,TrainingProc,BlockList,26,1,Distractor1.bmp,1,0,,1,0,220119,401,,0,0,blue,400,1,400,,vertical,blue,Distractor1.bmp,lime,Distractor1.bmp,cyan,Distractor1.bmp,yellow,Distractor2.bmp,purple,Distractor2.bmp,red,Target1.bmp,,,,TrialProc,3,TrainingTrialList,1,1,-999999,1,220520,0,1,609,221129,Target1.bmp,red,1,,,,12,4,74
KW_Experiment5A,17,1,"<?xml version=""1.0""?>\n<Clock xmlns:dt=""urn:schemas-microsoft-com:datatypes""><Description dt:dt=""string"">E-Prime Primary Realtime Clock</Description><StartTime><Timestamp dt:dt=""int"">0</Timestamp><DateUtc dt:dt=""string"">2018-10-11T21:17:12Z</DateUtc></StartTime><FrequencyChanges><FrequencyChange><Frequency dt:dt=""r8"">3215292</Frequency><Timestamp dt:dt=""r8"">4230837846023</Timestamp><Current dt:dt=""r8"">0</Current><DateUtc dt:dt=""string"">2018-10-11T21:17:12Z</DateUtc></FrequencyChange></FrequencyChanges></Clock>\n",KW_Experiment5A-17-1,59.945,1.0.0.105,1,295693217,Professional,2.0.10.353,2.0.10.353,10/11/2018,10/11/2018 21:17,17:17:12,2.0.10.248,3,2,1,3,,,,,,,,TrainingProc,BlockList,27,1,Distractor2.bmp,2,0,,0,1,222138,500,,0,0,red,500,2,500,1,vertical,red,Distractor1.bmp,cyan,Distractor2.bmp,lime,Target1.bmp,purple,Distractor2.bmp,yellow,Distractor1.bmp,blue,Distractor2.bmp,,,,TrialProc,,TrainingTrialList,0,1,-999999,0,222638,0,2,651,223289,Target1.bmp,lime,1,,,,3,4,75
KW_Experiment5A,17,1,"<?xml version=""1.0""?>\n<Clock xmlns:dt=""urn:schemas-microsoft-com:datatypes""><Description dt:dt=""string"">E-Prime Primary Realtime Clock</Description><StartTime><Timestamp dt:dt=""int"">0</Timestamp><DateUtc dt:dt=""string"">2018-10-11T21:17:12Z</DateUtc></StartTime><FrequencyChanges><FrequencyChange><Frequency dt:dt=""r8"">3215292</Frequency><Timestamp dt:dt=""r8"">4230837846023</Timestamp><Current dt:dt=""r8"">0</Current><DateUtc dt:dt=""string"">2018-10-11T21:17:12Z</DateUtc></FrequencyChange></FrequencyChanges></Clock>\n",KW_Experiment5A-17-1,59.945,1.0.0.105,1,295693217,Professional,2.0.10.353,2.0.10.353,10/11/2018,10/11/2018 21:17,17:17:12,2.0.10.248,3,2,1,3,,,,,,,,TrainingProc,BlockList,28,2,Distractor2.bmp,2,0,,0,1,224307,600,,0,0,cyan,600,3,600,4,horizontal,cyan,Distractor2.bmp,lime,Target2.bmp,blue,Distractor2.bmp,yellow,Distractor1.bmp,purple,Distractor2.bmp,red,Distractor1.bmp,,,,TrialProc,,TrainingTrialList,1,2,-999999,0,224907,0,2,574,225481,Target2.bmp,lime,2,,,,2,4,76
KW_Experiment5A,17,1,"<?xml version=""1.0""?>\n<Clock xmlns:dt=""urn:schemas-microsoft-com:datatypes""><Description dt:dt=""string"">E-Prime Primary Realtime Clock</Description><StartTime><Timestamp dt:dt=""int"">0</Timestamp><DateUtc dt:dt=""string"">2018-10-11T21:17:12Z</DateUtc></StartTime><FrequencyChanges><FrequencyChange><Frequency dt:dt=""r8"">3215292</Frequency><Timestamp dt:dt=""r8"">4230837846023</Timestamp><Current dt:dt=""r8"">0</Current><DateUtc dt:dt=""string"">2018-10-11T21:17:12Z</DateUtc></FrequencyChange></FrequencyChanges></Clock>\n",KW_Experiment5A-17-1,59.945,1.0.0.105,1,295693217,Professional,2.0.10.353,2.0.10.353,10/11/2018,10/11/2018 21:17,17:17:12,2.0.10.248,3,2,1,3,,,,,,,,TrainingProc,BlockList,29,1,Distractor2.bmp,2,0,,0,1,226492,500,,0,0,cyan,500,2,500,4,vertical,lime,Target1.bmp,cyan,Distractor2.bmp,blue,Distractor1.bmp,purple,Distractor1.bmp,red,Distractor2.bmp,yellow,Distractor1.bmp,,,,TrialProc,,TrainingTrialList,1,1,-999999,0,226992,0,1,529,227521,Target1.bmp,lime,1,,,,1,4,77
KW_Experiment5A,17,1,"<?xml version=""1.0""?>\n<Clock xmlns:dt=""urn:schemas-microsoft-com:datatypes""><Description dt:dt=""string"">E-Prime Primary Realtime Clock</Description><StartTime><Timestamp dt:dt=""int"">0</Timestamp><DateUtc dt:dt=""string"">2018-10-11T21:17:12Z</DateUtc></StartTime><FrequencyChanges><FrequencyChange><Frequency dt:dt=""r8"">3215292</Frequency><Timestamp dt:dt=""r8"">4230837846023</Timestamp><Current dt:dt=""r8"">0</Current><DateUtc dt:dt=""string"">2018-10-11T21:17:12Z</DateUtc></FrequencyChange></FrequencyChanges></Clock>\n",KW_Experiment5A-17-1,59.945,1.0.0.105,1,295693217,Professional,2.0.10.353,2.0.10.353,10/11/2018,10/11/2018 21:17,17:17:12,2.0.10.248,3,2,1,3,,,,,,,,TrainingProc,BlockList,30,2,Distractor2.bmp,2,0,,0,1,228544,400,,0,0,yellow,400,1,400,2,horizontal,yellow,Distractor2.bmp,lime,Target2.bmp,blue,Distractor2.bmp,red,Distractor2.bmp,cyan,Distractor2.bmp,purple,Distractor2.bmp,,,,TrialProc,,TrainingTrialList,1,2,-999999,0,228944,0,2,593,229537,Target2.bmp,lime,2,,,,2,4,78
KW_Experiment5A,17,1,"<?xml version=""1.0""?>\n<Clock xmlns:dt=""urn:schemas-microsoft-com:datatypes""><Description dt:dt=""string"">E-Prime Primary Realtime Clock</Description><StartTime><Timestamp dt:dt=""int"">0</Timestamp><DateUtc dt:dt=""string"">2018-10-11T21:17:12Z</DateUtc></StartTime><FrequencyChanges><FrequencyChange><Frequency dt:dt=""r8"">3215292</Frequency><Timestamp dt:dt=""r8"">4230837846023</Timestamp><Current dt:dt=""r8"">0</Current><DateUtc dt:dt=""string"">2018-10-11T21:17:12Z</DateUtc></FrequencyChange></FrequencyChanges></Clock>\n",KW_Experiment5A-17-1,59.945,1.0.0.105,1,295693217,Professional,2.0.10.353,2.0.10.353,10/11/2018,10/11/2018 21:17,17:17:12,2.0.10.248,3,2,1,3,,,,,,,,TrainingProc,BlockList,31,1,Distractor1.bmp,1,0,,0,1,230562,501,,0,0,cyan,500,2,500,4,vertical,cyan,Distractor2.bmp,red,Distractor2.bmp,lime,Target1.bmp,yellow,Distractor1.bmp,blue,Distractor1.bmp,purple,Distractor2.bmp,,,,TrialProc,,TrainingTrialList,1,1,-999999,1,231063,0,1,594,231657,Target1.bmp,lime,1,,,,3,4,79
KW_Experiment5A,17,1,"<?xml version=""1.0""?>\n<Clock xmlns:dt=""urn:schemas-microsoft-com:datatypes""><Description dt:dt=""string"">E-Prime Primary Realtime Clock</Description><StartTime><Timestamp dt:dt=""int"">0</Timestamp><DateUtc dt:dt=""string"">2018-10-11T21:17:12Z</DateUtc></StartTime><FrequencyChanges><FrequencyChange><Frequency dt:dt=""r8"">3215292</Frequency><Timestamp dt:dt=""r8"">4230837846023</Timestamp><Current dt:dt=""r8"">0</Current><DateUtc dt:dt=""string"">2018-10-11T21:17:12Z</DateUtc></FrequencyChange></FrequencyChanges></Clock>\n",KW_Experiment5A-17-1,59.945,1.0.0.105,1,295693217,Professional,2.0.10.353,2.0.10.353,10/11/2018,10/11/2018 21:17,17:17:12,2.0.10.248,3,2,1,3,,,,,,,,TrainingProc,BlockList,32,1,Distractor1.bmp,1,0,,0,1,232681,600,,0,0,blue,600,3,600,3,vertical,blue,Distractor1.bmp,red,Distractor1.bmp,yellow,Distractor2.bmp,cyan,Distractor2.bmp,purple,Distractor2.bmp,lime,Target1.bmp,,,,TrialProc,,TrainingTrialList,1,1,-999999,0,233281,0,1,512,233793,Target1.bmp,lime,1,,,,6,4,80
KW_Experiment5A,17,1,"<?xml version=""1.0""?>\n<Clock xmlns:dt=""urn:schemas-microsoft-com:datatypes""><Description dt:dt=""string"">E-Prime Primary Realtime Clock</Description><StartTime><Timestamp dt:dt=""int"">0</Timestamp><DateUtc dt:dt=""string"">2018-10-11T21:17:12Z</DateUtc></StartTime><FrequencyChanges><FrequencyChange><Frequency dt:dt=""r8"">3215292</Frequency><Timestamp dt:dt=""r8"">4230837846023</Timestamp><Current dt:dt=""r8"">0</Current><DateUtc dt:dt=""string"">2018-10-11T21:17:12Z</DateUtc></FrequencyChange></FrequencyChanges></Clock>\n",KW_Experiment5A-17-1,59.945,1.0.0.105,1,295693217,Professional,2.0.10.353,2.0.10.353,10/11/2018,10/11/2018 21:17,17:17:12,2.0.10.248,3,2,1,3,,,,,,,,TrainingProc,BlockList,33,2,Distractor1.bmp,1,0,,0,1,234816,401,,0,0,cyan,400,1,400,,horizontal,cyan,Distractor2.bmp,blue,Distractor1.bmp,red,Target2.bmp,purple,Distractor1.bmp,lime,Distractor1.bmp,yellow,Distractor2.bmp,,,,TrialProc,4,TrainingTrialList,1,2,-999999,1,235217,0,2,536,235753,Target2.bmp,red,2,,,,9,4,81
KW_Experiment5A,17,1,"<?xml version=""1.0""?>\n<Clock xmlns:dt=""urn:schemas-microsoft-com:datatypes""><Description dt:dt=""string"">E-Prime Primary Realtime Clock</Description><StartTime><Timestamp dt:dt=""int"">0</Timestamp><DateUtc dt:dt=""string"">2018-10-11T21:17:12Z</DateUtc></StartTime><FrequencyChanges><FrequencyChange><Frequency dt:dt=""r8"">3215292</Frequency><Timestamp dt:dt=""r8"">4230837846023</Timestamp><Current dt:dt=""r8"">0</Current><DateUtc dt:dt=""string"">2018-10-11T21:17:12Z</DateUtc></FrequencyChange></FrequencyChanges></Clock>\n",KW_Experiment5A-17-1,59.945,1.0.0.105,1,295693217,Professional,2.0.10.353,2.0.10.353,10/11/2018,10/11/2018 21:17,17:17:12,2.0.10.248,3,2,1,3,,,,,,,,TrainingProc,BlockList,34,2,Distractor2.bmp,2,0,,0,1,236768,600,,0,0,purple,600,3,600,,horizontal,red,Target2.bmp,blue,Distractor2.bmp,yellow,Distractor2.bmp,lime,Distractor1.bmp,cyan,Distractor1.bmp,purple,Distractor1.bmp,,,,TrialProc,5,TrainingTrialList,1,2,-999999,0,237368,0,2,480,237848,Target2.bmp,red,2,,,,7,4,82
KW_Experiment5A,17,1,"<?xml version=""1.0""?>\n<Clock xmlns:dt=""urn:schemas-microsoft-com:datatypes""><Description dt:dt=""string"">E-Prime Primary Realtime Clock</Description><StartTime><Timestamp dt:dt=""int"">0</Timestamp><DateUtc dt:dt=""string"">2018-10-11T21:17:12Z</DateUtc></StartTime><FrequencyChanges><FrequencyChange><Frequency dt:dt=""r8"">3215292</Frequency><Timestamp dt:dt=""r8"">4230837846023</Timestamp><Current dt:dt=""r8"">0</Current><DateUtc dt:dt=""string"">2018-10-11T21:17:12Z</DateUtc></FrequencyChange></FrequencyChanges></Clock>\n",KW_Experiment5A-17-1,59.945,1.0.0.105,1,295693217,Professional,2.0.10.353,2.0.10.353,10/11/2018,10/11/2018 21:17,17:17:12,2.0.10.248,3,2,1,3,,,,,,,,TrainingProc,BlockList,35,1,Distractor1.bmp,1,0,,0,1,238870,600,,0,0,purple,600,3,600,5,vertical,purple,Distractor1.bmp,yellow,Distractor2.bmp,blue,Distractor1.bmp,lime,Target1.bmp,red,Distractor1.bmp,cyan,Distractor1.bmp,,,,TrialProc,,TrainingTrialList,1,1,-999999,0,239470,0,1,650,240120,Target1.bmp,lime,1,,,,4,4,83
KW_Experiment5A,17,1,"<?xml version=""1.0""?>\n<Clock xmlns:dt=""urn:schemas-microsoft-com:datatypes""><Description dt:dt=""string"">E-Prime Primary Realtime Clock</Description><StartTime><Timestamp dt:dt=""int"">0</Timestamp><DateUtc dt:dt=""string"">2018-10-11T21:17:12Z</DateUtc></StartTime><FrequencyChanges><FrequencyChange><Frequency dt:dt=""r8"">3215292</Frequency><Timestamp dt:dt=""r8"">4230837846023</Timestamp><Current dt:dt=""r8"">0</Current><DateUtc dt:dt=""string"">2018-10-11T21:17:12Z</DateUtc></FrequencyChange></FrequencyChanges></Clock>\n",KW_Experiment5A-17-1,59.945,1.0.0.105,1,295693217,Professional,2.0.10.353,2.0.10.353,10/11/2018,10/11/2018 21:17,17:17:12,2.0.10.248,3,2,1,3,,,,,,,,TrainingProc,BlockList,36,1,Distractor1.bmp,1,0,,0,1,241139,600,,0,0,blue,600,3,600,3,vertical,blue,Distractor1.bmp,red,Distractor1.bmp,yellow,Distractor1.bmp,lime,Target1.bmp,purple,Distractor1.bmp,cyan,Distractor2.bmp,,,,TrialProc,,TrainingTrialList,0,1,-999999,0,241739,0,2,525,242264,Target1.bmp,lime,1,,,,4,4,84
KW_Experiment5A,17,1,"<?xml version=""1.0""?>\n<Clock xmlns:dt=""urn:schemas-microsoft-com:datatypes""><Description dt:dt=""string"">E-Prime Primary Realtime Clock</Description><StartTime><Timestamp dt:dt=""int"">0</Timestamp><DateUtc dt:dt=""string"">2018-10-11T21:17:12Z</DateUtc></StartTime><FrequencyChanges><FrequencyChange><Frequency dt:dt=""r8"">3215292</Frequency><Timestamp dt:dt=""r8"">4230837846023</Timestamp><Current dt:dt=""r8"">0</Current><DateUtc dt:dt=""string"">2018-10-11T21:17:12Z</DateUtc></FrequencyChange></FrequencyChanges></Clock>\n",KW_Experiment5A-17-1,59.945,1.0.0.105,1,295693217,Professional,2.0.10.353,2.0.10.353,10/11/2018,10/11/2018 21:17,17:17:12,2.0.10.248,3,2,1,3,,,,,,,,TrainingProc,BlockList,37,1,Distractor2.bmp,2,0,,0,1,243291,400,,0,0,blue,400,1,400,3,vertical,blue,Distractor1.bmp,red,Distractor1.bmp,lime,Target1.bmp,purple,Distractor2.bmp,yellow,Distractor2.bmp,cyan,Distractor1.bmp,,,,TrialProc,,TrainingTrialList,0,1,-999999,0,243691,0,2,757,244448,Target1.bmp,lime,1,,,,3,4,85
KW_Experiment5A,17,1,"<?xml version=""1.0""?>\n<Clock xmlns:dt=""urn:schemas-microsoft-com:datatypes""><Description dt:dt=""string"">E-Prime Primary Realtime Clock</Description><StartTime><Timestamp dt:dt=""int"">0</Timestamp><DateUtc dt:dt=""string"">2018-10-11T21:17:12Z</DateUtc></StartTime><FrequencyChanges><FrequencyChange><Frequency dt:dt=""r8"">3215292</Frequency><Timestamp dt:dt=""r8"">4230837846023</Timestamp><Current dt:dt=""r8"">0</Current><DateUtc dt:dt=""string"">2018-10-11T21:17:12Z</DateUtc></FrequencyChange></FrequencyChanges></Clock>\n",KW_Experiment5A-17-1,59.945,1.0.0.105,1,295693217,Professional,2.0.10.353,2.0.10.353,10/11/2018,10/11/2018 21:17,17:17:12,2.0.10.248,3,2,1,3,,,,,,,,TrainingProc,BlockList,38,1,Distractor2.bmp,2,0,,0,1,245459,401,,0,0,blue,400,1,400,3,vertical,blue,Distractor2.bmp,cyan,Distractor2.bmp,yellow,Distractor2.bmp,red,Distractor2.bmp,lime,Target1.bmp,purple,Distractor2.bmp,,,,TrialProc,,TrainingTrialList,1,1,-999999,1,245860,0,1,628,246488,Target1.bmp,lime,1,,,,5,4,86
KW_Experiment5A,17,1,"<?xml version=""1.0""?>\n<Clock xmlns:dt=""urn:schemas-microsoft-com:datatypes""><Description dt:dt=""string"">E-Prime Primary Realtime Clock</Description><StartTime><Timestamp dt:dt=""int"">0</Timestamp><DateUtc dt:dt=""string"">2018-10-11T21:17:12Z</DateUtc></StartTime><FrequencyChanges><FrequencyChange><Frequency dt:dt=""r8"">3215292</Frequency><Timestamp dt:dt=""r8"">4230837846023</Timestamp><Current dt:dt=""r8"">0</Current><DateUtc dt:dt=""string"">2018-10-11T21:17:12Z</DateUtc></FrequencyChange></FrequencyChanges></Clock>\n",KW_Experiment5A-17-1,59.945,1.0.0.105,1,295693217,Professional,2.0.10.353,2.0.10.353,10/11/2018,10/11/2018 21:17,17:17:12,2.0.10.248,3,2,1,3,,,,,,,,TrainingProc,BlockList,39,1,Distractor2.bmp,2,0,,0,1,247511,400,,0,0,red,400,1,400,1,vertical,red,Distractor2.bmp,lime,Target1.bmp,blue,Distractor2.bmp,purple,Distractor1.bmp,yellow,Distractor1.bmp,cyan,Distractor1.bmp,,,,TrialProc,,TrainingTrialList,1,1,-999999,0,247911,0,1,449,248360,Target1.bmp,lime,1,,,,2,4,87
KW_Experiment5A,17,1,"<?xml version=""1.0""?>\n<Clock xmlns:dt=""urn:schemas-microsoft-com:datatypes""><Description dt:dt=""string"">E-Prime Primary Realtime Clock</Description><StartTime><Timestamp dt:dt=""int"">0</Timestamp><DateUtc dt:dt=""string"">2018-10-11T21:17:12Z</DateUtc></StartTime><FrequencyChanges><FrequencyChange><Frequency dt:dt=""r8"">3215292</Frequency><Timestamp dt:dt=""r8"">4230837846023</Timestamp><Current dt:dt=""r8"">0</Current><DateUtc dt:dt=""string"">2018-10-11T21:17:12Z</DateUtc></FrequencyChange></FrequencyChanges></Clock>\n",KW_Experiment5A-17-1,59.945,1.0.0.105,1,295693217,Professional,2.0.10.353,2.0.10.353,10/11/2018,10/11/2018 21:17,17:17:12,2.0.10.248,3,2,1,3,,,,,,,,TrainingProc,BlockList,40,1,Distractor2.bmp,2,0,,1,0,249379,501,,0,0,cyan,500,2,500,4,vertical,lime,Target1.bmp,cyan,Distractor2.bmp,yellow,Distractor2.bmp,purple,Distractor1.bmp,blue,Distractor1.bmp,red,Distractor2.bmp,,,,TrialProc,,TrainingTrialList,1,1,-999999,1,249880,0,1,392,250272,Target1.bmp,lime,1,,,,1,4,88
KW_Experiment5A,17,1,"<?xml version=""1.0""?>\n<Clock xmlns:dt=""urn:schemas-microsoft-com:datatypes""><Description dt:dt=""string"">E-Prime Primary Realtime Clock</Description><StartTime><Timestamp dt:dt=""int"">0</Timestamp><DateUtc dt:dt=""string"">2018-10-11T21:17:12Z</DateUtc></StartTime><FrequencyChanges><FrequencyChange><Frequency dt:dt=""r8"">3215292</Frequency><Timestamp dt:dt=""r8"">4230837846023</Timestamp><Current dt:dt=""r8"">0</Current><DateUtc dt:dt=""string"">2018-10-11T21:17:12Z</DateUtc></FrequencyChange></FrequencyChanges></Clock>\n",KW_Experiment5A-17-1,59.945,1.0.0.105,1,295693217,Professional,2.0.10.353,2.0.10.353,10/11/2018,10/11/2018 21:17,17:17:12,2.0.10.248,3,2,1,3,,,,,,,,TrainingProc,BlockList,41,2,Distractor2.bmp,2,0,,0,1,251281,501,,0,0,blue,500,2,500,3,horizontal,blue,Distractor2.bmp,purple,Distractor2.bmp,yellow,Distractor2.bmp,red,Distractor2.bmp,cyan,Distractor2.bmp,lime,Target2.bmp,,,,TrialProc,,TrainingTrialList,1,2,-999999,1,251782,0,2,530,252312,Target2.bmp,lime,2,,,,6,4,89
KW_Experiment5A,17,1,"<?xml version=""1.0""?>\n<Clock xmlns:dt=""urn:schemas-microsoft-com:datatypes""><Description dt:dt=""string"">E-Prime Primary Realtime Clock</Description><StartTime><Timestamp dt:dt=""int"">0</Timestamp><DateUtc dt:dt=""string"">2018-10-11T21:17:12Z</DateUtc></StartTime><FrequencyChanges><FrequencyChange><Frequency dt:dt=""r8"">3215292</Frequency><Timestamp dt:dt=""r8"">4230837846023</Timestamp><Current dt:dt=""r8"">0</Current><DateUtc dt:dt=""string"">2018-10-11T21:17:12Z</DateUtc></FrequencyChange></FrequencyChanges></Clock>\n",KW_Experiment5A-17-1,59.945,1.0.0.105,1,295693217,Professional,2.0.10.353,2.0.10.353,10/11/2018,10/11/2018 21:17,17:17:12,2.0.10.248,3,2,1,3,,,,,,,,TrainingProc,BlockList,42,2,Distractor2.bmp,2,0,,0,1,253333,500,,0,0,blue,500,2,500,,horizontal,blue,Distractor2.bmp,purple,Distractor2.bmp,cyan,Distractor1.bmp,lime,Distractor2.bmp,red,Target2.bmp,yellow,Distractor2.bmp,,,,TrialProc,3,TrainingTrialList,1,2,-999999,0,253833,0,2,583,254416,Target2.bmp,red,2,,,,11,4,90
