ExperimentName,Subject,Session,Clock.Information,DataFile.Basename,Display.RefreshRate,ExperimentVersion,Group,RandomSeed,RuntimeCapabilities,RuntimeVersion,RuntimeVersionExpected,SessionDate,SessionStartDateTimeUtc,SessionTime,StudioVersion,Block,BlockList,BlockList.Cycle,BlockList.Sample,PostTestQ1.RESP,PostTestQ1CJ.RESP,PostTestQ2.RESP,PostTestQ2CJ.RESP,PostTestQ3.RESP,PostTestQ3CJ.RESP,PostTestSlide.RESP,Procedure[Block],Running[Block],Trial,CorrectResponse,Distractor,DistractorList,Fixation.ACC,Fixation.CRESP,Fixation.DurationError,Fixation.OnsetDelay,Fixation.OnsetTime,Fixation.OnsetToOnsetTime,Fixation.RESP,Fixation.RT,Fixation.RTTime,ItemColor,Jitter,JitterList,JitterTime,Lime0List,Orientation,Pos1Color,Pos1Item,Pos2Color,Pos2Item,Pos3Color,Pos3Item,Pos4Color,Pos4Item,Pos5Color,Pos5Item,Pos6Color,Pos6Item,PracticeTrialList,PracticeTrialList.Cycle,PracticeTrialList.Sample,Procedure[Trial],Red0List,Running[Trial],Stimulus.ACC,Stimulus.CRESP,Stimulus.DurationError,Stimulus.OnsetDelay,Stimulus.OnsetTime,Stimulus.OnsetToOnsetTime,Stimulus.RESP,Stimulus.RT,Stimulus.RTTime,Target,TargetColor,TargetList,TestTrialList,TestTrialList.Cycle,TestTrialList.Sample,TrainingTrialList,TrainingTrialList.Cycle,TrainingTrialList.Sample
KW_Experiment5A,28,1,"<?xml version=""1.0""?>\n<Clock xmlns:dt=""urn:schemas-microsoft-com:datatypes""><Description dt:dt=""string"">E-Prime Primary Realtime Clock</Description><StartTime><Timestamp dt:dt=""int"">0</Timestamp><DateUtc dt:dt=""string"">2018-10-17T17:54:44Z</DateUtc></StartTime><FrequencyChanges><FrequencyChange><Frequency dt:dt=""r8"">3215244</Frequency><Timestamp dt:dt=""r8"">7141963505200</Timestamp><Current dt:dt=""r8"">0</Current><DateUtc dt:dt=""string"">2018-10-17T17:54:44Z</DateUtc></FrequencyChange></FrequencyChanges></Clock>\n",KW_Experiment5A-28-1,59.946,1.0.0.105,1,-566463314,Professional,2.0.10.353,2.0.10.353,10/17/2018,10/17/2018 17:54,13:54:44,2.0.10.248,1,1,1,1,,,,,,,,PracticeProc,BlockList,1,2,Distractor1.bmp,1,0,,0,43,143693,500,,0,0,red,500,2,500,1,horizontal,lime,Target2.bmp,blue,Distractor1.bmp,purple,Distractor1.bmp,yellow,Distractor2.bmp,cyan,Distractor1.bmp,red,Distractor1.bmp,1,1,1,TrialProc,,PracticeTrialList,1,2,-999999,0,144193,0,2,1313,145506,Target2.bmp,lime,2,,,,,,
KW_Experiment5A,28,1,"<?xml version=""1.0""?>\n<Clock xmlns:dt=""urn:schemas-microsoft-com:datatypes""><Description dt:dt=""string"">E-Prime Primary Realtime Clock</Description><StartTime><Timestamp dt:dt=""int"">0</Timestamp><DateUtc dt:dt=""string"">2018-10-17T17:54:44Z</DateUtc></StartTime><FrequencyChanges><FrequencyChange><Frequency dt:dt=""r8"">3215244</Frequency><Timestamp dt:dt=""r8"">7141963505200</Timestamp><Current dt:dt=""r8"">0</Current><DateUtc dt:dt=""string"">2018-10-17T17:54:44Z</DateUtc></FrequencyChange></FrequencyChanges></Clock>\n",KW_Experiment5A-28-1,59.946,1.0.0.105,1,-566463314,Professional,2.0.10.353,2.0.10.353,10/17/2018,10/17/2018 17:54,13:54:44,2.0.10.248,1,1,1,1,,,,,,,,PracticeProc,BlockList,2,2,Distractor2.bmp,2,0,,0,1,146529,500,,0,0,cyan,500,2,500,4,horizontal,yellow,Distractor2.bmp,cyan,Distractor2.bmp,lime,Target2.bmp,purple,Distractor2.bmp,red,Distractor2.bmp,blue,Distractor2.bmp,3,1,2,TrialProc,,PracticeTrialList,1,2,-999999,0,147029,0,2,869,147898,Target2.bmp,lime,2,,,,,,
KW_Experiment5A,28,1,"<?xml version=""1.0""?>\n<Clock xmlns:dt=""urn:schemas-microsoft-com:datatypes""><Description dt:dt=""string"">E-Prime Primary Realtime Clock</Description><StartTime><Timestamp dt:dt=""int"">0</Timestamp><DateUtc dt:dt=""string"">2018-10-17T17:54:44Z</DateUtc></StartTime><FrequencyChanges><FrequencyChange><Frequency dt:dt=""r8"">3215244</Frequency><Timestamp dt:dt=""r8"">7141963505200</Timestamp><Current dt:dt=""r8"">0</Current><DateUtc dt:dt=""string"">2018-10-17T17:54:44Z</DateUtc></FrequencyChange></FrequencyChanges></Clock>\n",KW_Experiment5A-28-1,59.946,1.0.0.105,1,-566463314,Professional,2.0.10.353,2.0.10.353,10/17/2018,10/17/2018 17:54,13:54:44,2.0.10.248,1,1,1,1,,,,,,,,PracticeProc,BlockList,3,2,Distractor2.bmp,2,0,,0,1,148914,601,,0,0,cyan,600,3,600,,horizontal,purple,Distractor2.bmp,blue,Distractor2.bmp,cyan,Distractor2.bmp,red,Target2.bmp,lime,Distractor2.bmp,yellow,Distractor2.bmp,4,1,3,TrialProc,4,PracticeTrialList,0,2,-999999,1,149515,0,1,799,150314,Target2.bmp,red,2,,,,,,
KW_Experiment5A,28,1,"<?xml version=""1.0""?>\n<Clock xmlns:dt=""urn:schemas-microsoft-com:datatypes""><Description dt:dt=""string"">E-Prime Primary Realtime Clock</Description><StartTime><Timestamp dt:dt=""int"">0</Timestamp><DateUtc dt:dt=""string"">2018-10-17T17:54:44Z</DateUtc></StartTime><FrequencyChanges><FrequencyChange><Frequency dt:dt=""r8"">3215244</Frequency><Timestamp dt:dt=""r8"">7141963505200</Timestamp><Current dt:dt=""r8"">0</Current><DateUtc dt:dt=""string"">2018-10-17T17:54:44Z</DateUtc></FrequencyChange></FrequencyChanges></Clock>\n",KW_Experiment5A-28-1,59.946,1.0.0.105,1,-566463314,Professional,2.0.10.353,2.0.10.353,10/17/2018,10/17/2018 17:54,13:54:44,2.0.10.248,1,1,1,1,,,,,,,,PracticeProc,BlockList,4,1,Distractor2.bmp,2,0,,0,1,151333,601,,0,0,yellow,600,3,600,2,vertical,red,Distractor2.bmp,cyan,Distractor1.bmp,purple,Distractor2.bmp,yellow,Distractor1.bmp,lime,Target1.bmp,blue,Distractor2.bmp,5,1,4,TrialProc,,PracticeTrialList,1,1,-999999,1,151934,0,1,1508,153442,Target1.bmp,lime,1,,,,,,
KW_Experiment5A,28,1,"<?xml version=""1.0""?>\n<Clock xmlns:dt=""urn:schemas-microsoft-com:datatypes""><Description dt:dt=""string"">E-Prime Primary Realtime Clock</Description><StartTime><Timestamp dt:dt=""int"">0</Timestamp><DateUtc dt:dt=""string"">2018-10-17T17:54:44Z</DateUtc></StartTime><FrequencyChanges><FrequencyChange><Frequency dt:dt=""r8"">3215244</Frequency><Timestamp dt:dt=""r8"">7141963505200</Timestamp><Current dt:dt=""r8"">0</Current><DateUtc dt:dt=""string"">2018-10-17T17:54:44Z</DateUtc></FrequencyChange></FrequencyChanges></Clock>\n",KW_Experiment5A-28-1,59.946,1.0.0.105,1,-566463314,Professional,2.0.10.353,2.0.10.353,10/17/2018,10/17/2018 17:54,13:54:44,2.0.10.248,1,1,1,1,,,,,,,,PracticeProc,BlockList,5,1,Distractor1.bmp,1,0,,0,1,154453,400,,0,0,yellow,400,1,400,,vertical,blue,Distractor1.bmp,purple,Distractor1.bmp,cyan,Distractor1.bmp,lime,Distractor2.bmp,yellow,Distractor2.bmp,red,Target1.bmp,6,1,5,TrialProc,2,PracticeTrialList,1,1,-999999,0,154853,0,1,1205,156058,Target1.bmp,red,1,,,,,,
KW_Experiment5A,28,1,"<?xml version=""1.0""?>\n<Clock xmlns:dt=""urn:schemas-microsoft-com:datatypes""><Description dt:dt=""string"">E-Prime Primary Realtime Clock</Description><StartTime><Timestamp dt:dt=""int"">0</Timestamp><DateUtc dt:dt=""string"">2018-10-17T17:54:44Z</DateUtc></StartTime><FrequencyChanges><FrequencyChange><Frequency dt:dt=""r8"">3215244</Frequency><Timestamp dt:dt=""r8"">7141963505200</Timestamp><Current dt:dt=""r8"">0</Current><DateUtc dt:dt=""string"">2018-10-17T17:54:44Z</DateUtc></FrequencyChange></FrequencyChanges></Clock>\n",KW_Experiment5A-28-1,59.946,1.0.0.105,1,-566463314,Professional,2.0.10.353,2.0.10.353,10/17/2018,10/17/2018 17:54,13:54:44,2.0.10.248,1,1,1,1,,,,,,,,PracticeProc,BlockList,6,1,Distractor2.bmp,2,0,,0,1,157072,400,,0,0,yellow,400,1,400,,vertical,yellow,Distractor1.bmp,red,Target1.bmp,lime,Distractor2.bmp,purple,Distractor1.bmp,blue,Distractor1.bmp,cyan,Distractor2.bmp,2,1,6,TrialProc,2,PracticeTrialList,0,1,-999999,0,157472,0,2,986,158458,Target1.bmp,red,1,,,,,,
KW_Experiment5A,28,1,"<?xml version=""1.0""?>\n<Clock xmlns:dt=""urn:schemas-microsoft-com:datatypes""><Description dt:dt=""string"">E-Prime Primary Realtime Clock</Description><StartTime><Timestamp dt:dt=""int"">0</Timestamp><DateUtc dt:dt=""string"">2018-10-17T17:54:44Z</DateUtc></StartTime><FrequencyChanges><FrequencyChange><Frequency dt:dt=""r8"">3215244</Frequency><Timestamp dt:dt=""r8"">7141963505200</Timestamp><Current dt:dt=""r8"">0</Current><DateUtc dt:dt=""string"">2018-10-17T17:54:44Z</DateUtc></FrequencyChange></FrequencyChanges></Clock>\n",KW_Experiment5A-28-1,59.946,1.0.0.105,1,-566463314,Professional,2.0.10.353,2.0.10.353,10/17/2018,10/17/2018 17:54,13:54:44,2.0.10.248,2,2,1,2,,,,,,,,TrainingProc,BlockList,1,2,Distractor1.bmp,1,0,,0,24,165146,400,,0,0,yellow,400,1,400,2,horizontal,yellow,Distractor2.bmp,lime,Target2.bmp,blue,Distractor1.bmp,red,Distractor1.bmp,purple,Distractor1.bmp,cyan,Distractor2.bmp,,,,TrialProc,,TrainingTrialList,1,2,-999999,0,165546,0,2,1008,166554,Target2.bmp,lime,2,,,,2,1,1
KW_Experiment5A,28,1,"<?xml version=""1.0""?>\n<Clock xmlns:dt=""urn:schemas-microsoft-com:datatypes""><Description dt:dt=""string"">E-Prime Primary Realtime Clock</Description><StartTime><Timestamp dt:dt=""int"">0</Timestamp><DateUtc dt:dt=""string"">2018-10-17T17:54:44Z</DateUtc></StartTime><FrequencyChanges><FrequencyChange><Frequency dt:dt=""r8"">3215244</Frequency><Timestamp dt:dt=""r8"">7141963505200</Timestamp><Current dt:dt=""r8"">0</Current><DateUtc dt:dt=""string"">2018-10-17T17:54:44Z</DateUtc></FrequencyChange></FrequencyChanges></Clock>\n",KW_Experiment5A-28-1,59.946,1.0.0.105,1,-566463314,Professional,2.0.10.353,2.0.10.353,10/17/2018,10/17/2018 17:54,13:54:44,2.0.10.248,2,2,1,2,,,,,,,,TrainingProc,BlockList,2,1,Distractor1.bmp,1,0,,0,1,167565,500,,0,0,blue,500,2,500,3,vertical,blue,Distractor1.bmp,red,Distractor1.bmp,lime,Target1.bmp,yellow,Distractor1.bmp,cyan,Distractor2.bmp,purple,Distractor1.bmp,,,,TrialProc,,TrainingTrialList,1,1,-999999,0,168065,0,1,753,168818,Target1.bmp,lime,1,,,,3,1,2
KW_Experiment5A,28,1,"<?xml version=""1.0""?>\n<Clock xmlns:dt=""urn:schemas-microsoft-com:datatypes""><Description dt:dt=""string"">E-Prime Primary Realtime Clock</Description><StartTime><Timestamp dt:dt=""int"">0</Timestamp><DateUtc dt:dt=""string"">2018-10-17T17:54:44Z</DateUtc></StartTime><FrequencyChanges><FrequencyChange><Frequency dt:dt=""r8"">3215244</Frequency><Timestamp dt:dt=""r8"">7141963505200</Timestamp><Current dt:dt=""r8"">0</Current><DateUtc dt:dt=""string"">2018-10-17T17:54:44Z</DateUtc></FrequencyChange></FrequencyChanges></Clock>\n",KW_Experiment5A-28-1,59.946,1.0.0.105,1,-566463314,Professional,2.0.10.353,2.0.10.353,10/17/2018,10/17/2018 17:54,13:54:44,2.0.10.248,2,2,1,2,,,,,,,,TrainingProc,BlockList,3,2,Distractor1.bmp,1,0,,0,1,169834,600,,0,0,purple,600,3,600,,horizontal,purple,Distractor1.bmp,yellow,Distractor1.bmp,red,Target2.bmp,blue,Distractor1.bmp,cyan,Distractor1.bmp,lime,Distractor1.bmp,,,,TrialProc,5,TrainingTrialList,1,2,-999999,0,170434,0,2,928,171362,Target2.bmp,red,2,,,,9,1,3
KW_Experiment5A,28,1,"<?xml version=""1.0""?>\n<Clock xmlns:dt=""urn:schemas-microsoft-com:datatypes""><Description dt:dt=""string"">E-Prime Primary Realtime Clock</Description><StartTime><Timestamp dt:dt=""int"">0</Timestamp><DateUtc dt:dt=""string"">2018-10-17T17:54:44Z</DateUtc></StartTime><FrequencyChanges><FrequencyChange><Frequency dt:dt=""r8"">3215244</Frequency><Timestamp dt:dt=""r8"">7141963505200</Timestamp><Current dt:dt=""r8"">0</Current><DateUtc dt:dt=""string"">2018-10-17T17:54:44Z</DateUtc></FrequencyChange></FrequencyChanges></Clock>\n",KW_Experiment5A-28-1,59.946,1.0.0.105,1,-566463314,Professional,2.0.10.353,2.0.10.353,10/17/2018,10/17/2018 17:54,13:54:44,2.0.10.248,2,2,1,2,,,,,,,,TrainingProc,BlockList,4,1,Distractor1.bmp,1,0,,0,1,172386,501,,0,0,red,500,2,500,1,vertical,red,Distractor1.bmp,yellow,Distractor1.bmp,cyan,Distractor1.bmp,blue,Distractor2.bmp,purple,Distractor1.bmp,lime,Target1.bmp,,,,TrialProc,,TrainingTrialList,1,1,-999999,1,172887,0,1,451,173338,Target1.bmp,lime,1,,,,6,1,4
KW_Experiment5A,28,1,"<?xml version=""1.0""?>\n<Clock xmlns:dt=""urn:schemas-microsoft-com:datatypes""><Description dt:dt=""string"">E-Prime Primary Realtime Clock</Description><StartTime><Timestamp dt:dt=""int"">0</Timestamp><DateUtc dt:dt=""string"">2018-10-17T17:54:44Z</DateUtc></StartTime><FrequencyChanges><FrequencyChange><Frequency dt:dt=""r8"">3215244</Frequency><Timestamp dt:dt=""r8"">7141963505200</Timestamp><Current dt:dt=""r8"">0</Current><DateUtc dt:dt=""string"">2018-10-17T17:54:44Z</DateUtc></FrequencyChange></FrequencyChanges></Clock>\n",KW_Experiment5A-28-1,59.946,1.0.0.105,1,-566463314,Professional,2.0.10.353,2.0.10.353,10/17/2018,10/17/2018 17:54,13:54:44,2.0.10.248,2,2,1,2,,,,,,,,TrainingProc,BlockList,5,2,Distractor1.bmp,1,0,,0,1,174355,400,,0,0,yellow,400,1,400,2,horizontal,yellow,Distractor1.bmp,blue,Distractor1.bmp,red,Distractor2.bmp,cyan,Distractor1.bmp,lime,Target2.bmp,purple,Distractor1.bmp,,,,TrialProc,,TrainingTrialList,0,2,-999999,0,174755,0,1,975,175730,Target2.bmp,lime,2,,,,5,1,5
KW_Experiment5A,28,1,"<?xml version=""1.0""?>\n<Clock xmlns:dt=""urn:schemas-microsoft-com:datatypes""><Description dt:dt=""string"">E-Prime Primary Realtime Clock</Description><StartTime><Timestamp dt:dt=""int"">0</Timestamp><DateUtc dt:dt=""string"">2018-10-17T17:54:44Z</DateUtc></StartTime><FrequencyChanges><FrequencyChange><Frequency dt:dt=""r8"">3215244</Frequency><Timestamp dt:dt=""r8"">7141963505200</Timestamp><Current dt:dt=""r8"">0</Current><DateUtc dt:dt=""string"">2018-10-17T17:54:44Z</DateUtc></FrequencyChange></FrequencyChanges></Clock>\n",KW_Experiment5A-28-1,59.946,1.0.0.105,1,-566463314,Professional,2.0.10.353,2.0.10.353,10/17/2018,10/17/2018 17:54,13:54:44,2.0.10.248,2,2,1,2,,,,,,,,TrainingProc,BlockList,6,2,Distractor1.bmp,1,0,,0,1,176757,600,,0,0,cyan,600,3,600,4,horizontal,cyan,Distractor1.bmp,blue,Distractor2.bmp,purple,Distractor1.bmp,red,Distractor2.bmp,yellow,Distractor1.bmp,lime,Target2.bmp,,,,TrialProc,,TrainingTrialList,1,2,-999999,0,177357,0,2,1101,178458,Target2.bmp,lime,2,,,,6,1,6
KW_Experiment5A,28,1,"<?xml version=""1.0""?>\n<Clock xmlns:dt=""urn:schemas-microsoft-com:datatypes""><Description dt:dt=""string"">E-Prime Primary Realtime Clock</Description><StartTime><Timestamp dt:dt=""int"">0</Timestamp><DateUtc dt:dt=""string"">2018-10-17T17:54:44Z</DateUtc></StartTime><FrequencyChanges><FrequencyChange><Frequency dt:dt=""r8"">3215244</Frequency><Timestamp dt:dt=""r8"">7141963505200</Timestamp><Current dt:dt=""r8"">0</Current><DateUtc dt:dt=""string"">2018-10-17T17:54:44Z</DateUtc></FrequencyChange></FrequencyChanges></Clock>\n",KW_Experiment5A-28-1,59.946,1.0.0.105,1,-566463314,Professional,2.0.10.353,2.0.10.353,10/17/2018,10/17/2018 17:54,13:54:44,2.0.10.248,2,2,1,2,,,,,,,,TrainingProc,BlockList,7,1,Distractor1.bmp,1,0,,0,1,179476,500,,0,0,blue,500,2,500,3,vertical,blue,Distractor2.bmp,cyan,Distractor1.bmp,lime,Target1.bmp,yellow,Distractor1.bmp,purple,Distractor2.bmp,red,Distractor1.bmp,,,,TrialProc,,TrainingTrialList,0,1,-999999,0,179976,0,2,842,180818,Target1.bmp,lime,1,,,,3,1,7
KW_Experiment5A,28,1,"<?xml version=""1.0""?>\n<Clock xmlns:dt=""urn:schemas-microsoft-com:datatypes""><Description dt:dt=""string"">E-Prime Primary Realtime Clock</Description><StartTime><Timestamp dt:dt=""int"">0</Timestamp><DateUtc dt:dt=""string"">2018-10-17T17:54:44Z</DateUtc></StartTime><FrequencyChanges><FrequencyChange><Frequency dt:dt=""r8"">3215244</Frequency><Timestamp dt:dt=""r8"">7141963505200</Timestamp><Current dt:dt=""r8"">0</Current><DateUtc dt:dt=""string"">2018-10-17T17:54:44Z</DateUtc></FrequencyChange></FrequencyChanges></Clock>\n",KW_Experiment5A-28-1,59.946,1.0.0.105,1,-566463314,Professional,2.0.10.353,2.0.10.353,10/17/2018,10/17/2018 17:54,13:54:44,2.0.10.248,2,2,1,2,,,,,,,,TrainingProc,BlockList,8,2,Distractor1.bmp,1,0,,0,1,181845,500,,0,0,cyan,500,2,500,4,horizontal,cyan,Distractor2.bmp,red,Distractor1.bmp,blue,Distractor1.bmp,purple,Distractor1.bmp,lime,Target2.bmp,yellow,Distractor1.bmp,,,,TrialProc,,TrainingTrialList,1,2,-999999,0,182345,0,2,1256,183601,Target2.bmp,lime,2,,,,5,1,8
KW_Experiment5A,28,1,"<?xml version=""1.0""?>\n<Clock xmlns:dt=""urn:schemas-microsoft-com:datatypes""><Description dt:dt=""string"">E-Prime Primary Realtime Clock</Description><StartTime><Timestamp dt:dt=""int"">0</Timestamp><DateUtc dt:dt=""string"">2018-10-17T17:54:44Z</DateUtc></StartTime><FrequencyChanges><FrequencyChange><Frequency dt:dt=""r8"">3215244</Frequency><Timestamp dt:dt=""r8"">7141963505200</Timestamp><Current dt:dt=""r8"">0</Current><DateUtc dt:dt=""string"">2018-10-17T17:54:44Z</DateUtc></FrequencyChange></FrequencyChanges></Clock>\n",KW_Experiment5A-28-1,59.946,1.0.0.105,1,-566463314,Professional,2.0.10.353,2.0.10.353,10/17/2018,10/17/2018 17:54,13:54:44,2.0.10.248,2,2,1,2,,,,,,,,TrainingProc,BlockList,9,2,Distractor1.bmp,1,0,,0,1,184614,601,,0,0,purple,600,3,600,5,horizontal,purple,Distractor2.bmp,blue,Distractor2.bmp,cyan,Distractor2.bmp,lime,Target2.bmp,yellow,Distractor1.bmp,red,Distractor1.bmp,,,,TrialProc,,TrainingTrialList,1,2,-999999,1,185215,0,2,955,186170,Target2.bmp,lime,2,,,,4,1,9
KW_Experiment5A,28,1,"<?xml version=""1.0""?>\n<Clock xmlns:dt=""urn:schemas-microsoft-com:datatypes""><Description dt:dt=""string"">E-Prime Primary Realtime Clock</Description><StartTime><Timestamp dt:dt=""int"">0</Timestamp><DateUtc dt:dt=""string"">2018-10-17T17:54:44Z</DateUtc></StartTime><FrequencyChanges><FrequencyChange><Frequency dt:dt=""r8"">3215244</Frequency><Timestamp dt:dt=""r8"">7141963505200</Timestamp><Current dt:dt=""r8"">0</Current><DateUtc dt:dt=""string"">2018-10-17T17:54:44Z</DateUtc></FrequencyChange></FrequencyChanges></Clock>\n",KW_Experiment5A-28-1,59.946,1.0.0.105,1,-566463314,Professional,2.0.10.353,2.0.10.353,10/17/2018,10/17/2018 17:54,13:54:44,2.0.10.248,2,2,1,2,,,,,,,,TrainingProc,BlockList,10,2,Distractor1.bmp,1,0,,0,1,187183,400,,0,0,yellow,400,1,400,2,horizontal,yellow,Distractor1.bmp,purple,Distractor1.bmp,cyan,Distractor1.bmp,lime,Target2.bmp,blue,Distractor1.bmp,red,Distractor1.bmp,,,,TrialProc,,TrainingTrialList,1,2,-999999,0,187583,0,2,642,188225,Target2.bmp,lime,2,,,,4,1,10
KW_Experiment5A,28,1,"<?xml version=""1.0""?>\n<Clock xmlns:dt=""urn:schemas-microsoft-com:datatypes""><Description dt:dt=""string"">E-Prime Primary Realtime Clock</Description><StartTime><Timestamp dt:dt=""int"">0</Timestamp><DateUtc dt:dt=""string"">2018-10-17T17:54:44Z</DateUtc></StartTime><FrequencyChanges><FrequencyChange><Frequency dt:dt=""r8"">3215244</Frequency><Timestamp dt:dt=""r8"">7141963505200</Timestamp><Current dt:dt=""r8"">0</Current><DateUtc dt:dt=""string"">2018-10-17T17:54:44Z</DateUtc></FrequencyChange></FrequencyChanges></Clock>\n",KW_Experiment5A-28-1,59.946,1.0.0.105,1,-566463314,Professional,2.0.10.353,2.0.10.353,10/17/2018,10/17/2018 17:54,13:54:44,2.0.10.248,2,2,1,2,,,,,,,,TrainingProc,BlockList,11,2,Distractor2.bmp,2,0,,0,1,189235,500,,0,0,blue,500,2,500,3,horizontal,blue,Distractor1.bmp,cyan,Distractor2.bmp,lime,Target2.bmp,purple,Distractor2.bmp,yellow,Distractor1.bmp,red,Distractor2.bmp,,,,TrialProc,,TrainingTrialList,1,2,-999999,0,189735,0,2,730,190465,Target2.bmp,lime,2,,,,3,1,11
KW_Experiment5A,28,1,"<?xml version=""1.0""?>\n<Clock xmlns:dt=""urn:schemas-microsoft-com:datatypes""><Description dt:dt=""string"">E-Prime Primary Realtime Clock</Description><StartTime><Timestamp dt:dt=""int"">0</Timestamp><DateUtc dt:dt=""string"">2018-10-17T17:54:44Z</DateUtc></StartTime><FrequencyChanges><FrequencyChange><Frequency dt:dt=""r8"">3215244</Frequency><Timestamp dt:dt=""r8"">7141963505200</Timestamp><Current dt:dt=""r8"">0</Current><DateUtc dt:dt=""string"">2018-10-17T17:54:44Z</DateUtc></FrequencyChange></FrequencyChanges></Clock>\n",KW_Experiment5A-28-1,59.946,1.0.0.105,1,-566463314,Professional,2.0.10.353,2.0.10.353,10/17/2018,10/17/2018 17:54,13:54:44,2.0.10.248,2,2,1,2,,,,,,,,TrainingProc,BlockList,12,2,Distractor2.bmp,2,0,,0,1,191487,400,,0,0,yellow,400,1,400,2,horizontal,yellow,Distractor1.bmp,red,Distractor2.bmp,cyan,Distractor1.bmp,lime,Target2.bmp,blue,Distractor2.bmp,purple,Distractor1.bmp,,,,TrialProc,,TrainingTrialList,1,2,-999999,0,191887,0,2,754,192641,Target2.bmp,lime,2,,,,4,1,12
KW_Experiment5A,28,1,"<?xml version=""1.0""?>\n<Clock xmlns:dt=""urn:schemas-microsoft-com:datatypes""><Description dt:dt=""string"">E-Prime Primary Realtime Clock</Description><StartTime><Timestamp dt:dt=""int"">0</Timestamp><DateUtc dt:dt=""string"">2018-10-17T17:54:44Z</DateUtc></StartTime><FrequencyChanges><FrequencyChange><Frequency dt:dt=""r8"">3215244</Frequency><Timestamp dt:dt=""r8"">7141963505200</Timestamp><Current dt:dt=""r8"">0</Current><DateUtc dt:dt=""string"">2018-10-17T17:54:44Z</DateUtc></FrequencyChange></FrequencyChanges></Clock>\n",KW_Experiment5A-28-1,59.946,1.0.0.105,1,-566463314,Professional,2.0.10.353,2.0.10.353,10/17/2018,10/17/2018 17:54,13:54:44,2.0.10.248,2,2,1,2,,,,,,,,TrainingProc,BlockList,13,1,Distractor2.bmp,2,0,,0,1,193656,600,,0,0,cyan,600,3,600,4,vertical,lime,Target1.bmp,cyan,Distractor2.bmp,yellow,Distractor2.bmp,blue,Distractor2.bmp,purple,Distractor2.bmp,red,Distractor1.bmp,,,,TrialProc,,TrainingTrialList,1,1,-999999,0,194256,0,1,977,195233,Target1.bmp,lime,1,,,,1,1,13
KW_Experiment5A,28,1,"<?xml version=""1.0""?>\n<Clock xmlns:dt=""urn:schemas-microsoft-com:datatypes""><Description dt:dt=""string"">E-Prime Primary Realtime Clock</Description><StartTime><Timestamp dt:dt=""int"">0</Timestamp><DateUtc dt:dt=""string"">2018-10-17T17:54:44Z</DateUtc></StartTime><FrequencyChanges><FrequencyChange><Frequency dt:dt=""r8"">3215244</Frequency><Timestamp dt:dt=""r8"">7141963505200</Timestamp><Current dt:dt=""r8"">0</Current><DateUtc dt:dt=""string"">2018-10-17T17:54:44Z</DateUtc></FrequencyChange></FrequencyChanges></Clock>\n",KW_Experiment5A-28-1,59.946,1.0.0.105,1,-566463314,Professional,2.0.10.353,2.0.10.353,10/17/2018,10/17/2018 17:54,13:54:44,2.0.10.248,2,2,1,2,,,,,,,,TrainingProc,BlockList,14,2,Distractor1.bmp,1,0,,0,1,196258,601,,0,0,cyan,600,3,600,,horizontal,cyan,Distractor1.bmp,yellow,Distractor1.bmp,lime,Distractor1.bmp,red,Target2.bmp,purple,Distractor1.bmp,blue,Distractor1.bmp,,,,TrialProc,4,TrainingTrialList,0,2,-999999,1,196859,0,1,598,197457,Target2.bmp,red,2,,,,10,1,14
KW_Experiment5A,28,1,"<?xml version=""1.0""?>\n<Clock xmlns:dt=""urn:schemas-microsoft-com:datatypes""><Description dt:dt=""string"">E-Prime Primary Realtime Clock</Description><StartTime><Timestamp dt:dt=""int"">0</Timestamp><DateUtc dt:dt=""string"">2018-10-17T17:54:44Z</DateUtc></StartTime><FrequencyChanges><FrequencyChange><Frequency dt:dt=""r8"">3215244</Frequency><Timestamp dt:dt=""r8"">7141963505200</Timestamp><Current dt:dt=""r8"">0</Current><DateUtc dt:dt=""string"">2018-10-17T17:54:44Z</DateUtc></FrequencyChange></FrequencyChanges></Clock>\n",KW_Experiment5A-28-1,59.946,1.0.0.105,1,-566463314,Professional,2.0.10.353,2.0.10.353,10/17/2018,10/17/2018 17:54,13:54:44,2.0.10.248,2,2,1,2,,,,,,,,TrainingProc,BlockList,15,2,Distractor1.bmp,1,0,,0,1,198477,500,,0,0,purple,500,2,500,5,horizontal,purple,Distractor2.bmp,red,Distractor2.bmp,blue,Distractor2.bmp,yellow,Distractor2.bmp,lime,Target2.bmp,cyan,Distractor1.bmp,,,,TrialProc,,TrainingTrialList,1,2,-999999,0,198977,0,2,592,199569,Target2.bmp,lime,2,,,,5,1,15
KW_Experiment5A,28,1,"<?xml version=""1.0""?>\n<Clock xmlns:dt=""urn:schemas-microsoft-com:datatypes""><Description dt:dt=""string"">E-Prime Primary Realtime Clock</Description><StartTime><Timestamp dt:dt=""int"">0</Timestamp><DateUtc dt:dt=""string"">2018-10-17T17:54:44Z</DateUtc></StartTime><FrequencyChanges><FrequencyChange><Frequency dt:dt=""r8"">3215244</Frequency><Timestamp dt:dt=""r8"">7141963505200</Timestamp><Current dt:dt=""r8"">0</Current><DateUtc dt:dt=""string"">2018-10-17T17:54:44Z</DateUtc></FrequencyChange></FrequencyChanges></Clock>\n",KW_Experiment5A-28-1,59.946,1.0.0.105,1,-566463314,Professional,2.0.10.353,2.0.10.353,10/17/2018,10/17/2018 17:54,13:54:44,2.0.10.248,2,2,1,2,,,,,,,,TrainingProc,BlockList,16,1,Distractor2.bmp,2,0,,0,1,200579,400,,0,0,cyan,400,1,400,4,vertical,lime,Target1.bmp,cyan,Distractor2.bmp,red,Distractor1.bmp,purple,Distractor1.bmp,yellow,Distractor1.bmp,blue,Distractor1.bmp,,,,TrialProc,,TrainingTrialList,1,1,-999999,0,200979,0,1,542,201521,Target1.bmp,lime,1,,,,1,1,16
KW_Experiment5A,28,1,"<?xml version=""1.0""?>\n<Clock xmlns:dt=""urn:schemas-microsoft-com:datatypes""><Description dt:dt=""string"">E-Prime Primary Realtime Clock</Description><StartTime><Timestamp dt:dt=""int"">0</Timestamp><DateUtc dt:dt=""string"">2018-10-17T17:54:44Z</DateUtc></StartTime><FrequencyChanges><FrequencyChange><Frequency dt:dt=""r8"">3215244</Frequency><Timestamp dt:dt=""r8"">7141963505200</Timestamp><Current dt:dt=""r8"">0</Current><DateUtc dt:dt=""string"">2018-10-17T17:54:44Z</DateUtc></FrequencyChange></FrequencyChanges></Clock>\n",KW_Experiment5A-28-1,59.946,1.0.0.105,1,-566463314,Professional,2.0.10.353,2.0.10.353,10/17/2018,10/17/2018 17:54,13:54:44,2.0.10.248,2,2,1,2,,,,,,,,TrainingProc,BlockList,17,1,Distractor2.bmp,2,0,,0,1,202547,401,,0,0,yellow,400,1,400,2,vertical,lime,Target1.bmp,yellow,Distractor2.bmp,cyan,Distractor2.bmp,red,Distractor2.bmp,purple,Distractor2.bmp,blue,Distractor1.bmp,,,,TrialProc,,TrainingTrialList,1,1,-999999,1,202948,0,1,845,203793,Target1.bmp,lime,1,,,,1,1,17
KW_Experiment5A,28,1,"<?xml version=""1.0""?>\n<Clock xmlns:dt=""urn:schemas-microsoft-com:datatypes""><Description dt:dt=""string"">E-Prime Primary Realtime Clock</Description><StartTime><Timestamp dt:dt=""int"">0</Timestamp><DateUtc dt:dt=""string"">2018-10-17T17:54:44Z</DateUtc></StartTime><FrequencyChanges><FrequencyChange><Frequency dt:dt=""r8"">3215244</Frequency><Timestamp dt:dt=""r8"">7141963505200</Timestamp><Current dt:dt=""r8"">0</Current><DateUtc dt:dt=""string"">2018-10-17T17:54:44Z</DateUtc></FrequencyChange></FrequencyChanges></Clock>\n",KW_Experiment5A-28-1,59.946,1.0.0.105,1,-566463314,Professional,2.0.10.353,2.0.10.353,10/17/2018,10/17/2018 17:54,13:54:44,2.0.10.248,2,2,1,2,,,,,,,,TrainingProc,BlockList,18,2,Distractor1.bmp,1,0,,0,1,204816,500,,0,0,cyan,500,2,500,,horizontal,cyan,Distractor1.bmp,purple,Distractor2.bmp,yellow,Distractor2.bmp,lime,Distractor2.bmp,blue,Distractor2.bmp,red,Target2.bmp,,,,TrialProc,4,TrainingTrialList,1,2,-999999,0,205316,0,2,917,206233,Target2.bmp,red,2,,,,12,1,18
KW_Experiment5A,28,1,"<?xml version=""1.0""?>\n<Clock xmlns:dt=""urn:schemas-microsoft-com:datatypes""><Description dt:dt=""string"">E-Prime Primary Realtime Clock</Description><StartTime><Timestamp dt:dt=""int"">0</Timestamp><DateUtc dt:dt=""string"">2018-10-17T17:54:44Z</DateUtc></StartTime><FrequencyChanges><FrequencyChange><Frequency dt:dt=""r8"">3215244</Frequency><Timestamp dt:dt=""r8"">7141963505200</Timestamp><Current dt:dt=""r8"">0</Current><DateUtc dt:dt=""string"">2018-10-17T17:54:44Z</DateUtc></FrequencyChange></FrequencyChanges></Clock>\n",KW_Experiment5A-28-1,59.946,1.0.0.105,1,-566463314,Professional,2.0.10.353,2.0.10.353,10/17/2018,10/17/2018 17:54,13:54:44,2.0.10.248,2,2,1,2,,,,,,,,TrainingProc,BlockList,19,1,Distractor2.bmp,2,0,,0,1,207252,400,,0,0,purple,400,1,400,,vertical,purple,Distractor2.bmp,red,Target1.bmp,blue,Distractor2.bmp,cyan,Distractor1.bmp,yellow,Distractor2.bmp,lime,Distractor2.bmp,,,,TrialProc,5,TrainingTrialList,1,1,-999999,0,207652,0,1,749,208401,Target1.bmp,red,1,,,,8,1,19
KW_Experiment5A,28,1,"<?xml version=""1.0""?>\n<Clock xmlns:dt=""urn:schemas-microsoft-com:datatypes""><Description dt:dt=""string"">E-Prime Primary Realtime Clock</Description><StartTime><Timestamp dt:dt=""int"">0</Timestamp><DateUtc dt:dt=""string"">2018-10-17T17:54:44Z</DateUtc></StartTime><FrequencyChanges><FrequencyChange><Frequency dt:dt=""r8"">3215244</Frequency><Timestamp dt:dt=""r8"">7141963505200</Timestamp><Current dt:dt=""r8"">0</Current><DateUtc dt:dt=""string"">2018-10-17T17:54:44Z</DateUtc></FrequencyChange></FrequencyChanges></Clock>\n",KW_Experiment5A-28-1,59.946,1.0.0.105,1,-566463314,Professional,2.0.10.353,2.0.10.353,10/17/2018,10/17/2018 17:54,13:54:44,2.0.10.248,2,2,1,2,,,,,,,,TrainingProc,BlockList,20,2,Distractor2.bmp,2,0,,0,1,209420,401,,0,0,blue,400,1,400,3,horizontal,blue,Distractor2.bmp,lime,Target2.bmp,red,Distractor2.bmp,yellow,Distractor1.bmp,cyan,Distractor1.bmp,purple,Distractor2.bmp,,,,TrialProc,,TrainingTrialList,1,2,-999999,1,209821,0,2,1252,211073,Target2.bmp,lime,2,,,,2,1,20
KW_Experiment5A,28,1,"<?xml version=""1.0""?>\n<Clock xmlns:dt=""urn:schemas-microsoft-com:datatypes""><Description dt:dt=""string"">E-Prime Primary Realtime Clock</Description><StartTime><Timestamp dt:dt=""int"">0</Timestamp><DateUtc dt:dt=""string"">2018-10-17T17:54:44Z</DateUtc></StartTime><FrequencyChanges><FrequencyChange><Frequency dt:dt=""r8"">3215244</Frequency><Timestamp dt:dt=""r8"">7141963505200</Timestamp><Current dt:dt=""r8"">0</Current><DateUtc dt:dt=""string"">2018-10-17T17:54:44Z</DateUtc></FrequencyChange></FrequencyChanges></Clock>\n",KW_Experiment5A-28-1,59.946,1.0.0.105,1,-566463314,Professional,2.0.10.353,2.0.10.353,10/17/2018,10/17/2018 17:54,13:54:44,2.0.10.248,2,2,1,2,,,,,,,,TrainingProc,BlockList,21,2,Distractor2.bmp,2,0,,0,1,212089,501,,0,0,purple,500,2,500,5,horizontal,purple,Distractor2.bmp,red,Distractor1.bmp,cyan,Distractor1.bmp,blue,Distractor1.bmp,yellow,Distractor2.bmp,lime,Target2.bmp,,,,TrialProc,,TrainingTrialList,1,2,-999999,1,212590,0,2,491,213081,Target2.bmp,lime,2,,,,6,1,21
KW_Experiment5A,28,1,"<?xml version=""1.0""?>\n<Clock xmlns:dt=""urn:schemas-microsoft-com:datatypes""><Description dt:dt=""string"">E-Prime Primary Realtime Clock</Description><StartTime><Timestamp dt:dt=""int"">0</Timestamp><DateUtc dt:dt=""string"">2018-10-17T17:54:44Z</DateUtc></StartTime><FrequencyChanges><FrequencyChange><Frequency dt:dt=""r8"">3215244</Frequency><Timestamp dt:dt=""r8"">7141963505200</Timestamp><Current dt:dt=""r8"">0</Current><DateUtc dt:dt=""string"">2018-10-17T17:54:44Z</DateUtc></FrequencyChange></FrequencyChanges></Clock>\n",KW_Experiment5A-28-1,59.946,1.0.0.105,1,-566463314,Professional,2.0.10.353,2.0.10.353,10/17/2018,10/17/2018 17:54,13:54:44,2.0.10.248,2,2,1,2,,,,,,,,TrainingProc,BlockList,22,2,Distractor1.bmp,1,0,,0,1,214091,401,,0,0,cyan,400,1,400,,horizontal,red,Target2.bmp,yellow,Distractor1.bmp,blue,Distractor1.bmp,lime,Distractor2.bmp,purple,Distractor1.bmp,cyan,Distractor2.bmp,,,,TrialProc,4,TrainingTrialList,1,2,-999999,1,214492,0,2,1197,215689,Target2.bmp,red,2,,,,7,1,22
KW_Experiment5A,28,1,"<?xml version=""1.0""?>\n<Clock xmlns:dt=""urn:schemas-microsoft-com:datatypes""><Description dt:dt=""string"">E-Prime Primary Realtime Clock</Description><StartTime><Timestamp dt:dt=""int"">0</Timestamp><DateUtc dt:dt=""string"">2018-10-17T17:54:44Z</DateUtc></StartTime><FrequencyChanges><FrequencyChange><Frequency dt:dt=""r8"">3215244</Frequency><Timestamp dt:dt=""r8"">7141963505200</Timestamp><Current dt:dt=""r8"">0</Current><DateUtc dt:dt=""string"">2018-10-17T17:54:44Z</DateUtc></FrequencyChange></FrequencyChanges></Clock>\n",KW_Experiment5A-28-1,59.946,1.0.0.105,1,-566463314,Professional,2.0.10.353,2.0.10.353,10/17/2018,10/17/2018 17:54,13:54:44,2.0.10.248,2,2,1,2,,,,,,,,TrainingProc,BlockList,23,1,Distractor1.bmp,1,0,,0,1,216710,401,,0,0,red,400,1,400,1,vertical,red,Distractor2.bmp,lime,Target1.bmp,blue,Distractor1.bmp,yellow,Distractor2.bmp,cyan,Distractor1.bmp,purple,Distractor1.bmp,,,,TrialProc,,TrainingTrialList,1,1,-999999,1,217111,0,1,658,217769,Target1.bmp,lime,1,,,,2,1,23
KW_Experiment5A,28,1,"<?xml version=""1.0""?>\n<Clock xmlns:dt=""urn:schemas-microsoft-com:datatypes""><Description dt:dt=""string"">E-Prime Primary Realtime Clock</Description><StartTime><Timestamp dt:dt=""int"">0</Timestamp><DateUtc dt:dt=""string"">2018-10-17T17:54:44Z</DateUtc></StartTime><FrequencyChanges><FrequencyChange><Frequency dt:dt=""r8"">3215244</Frequency><Timestamp dt:dt=""r8"">7141963505200</Timestamp><Current dt:dt=""r8"">0</Current><DateUtc dt:dt=""string"">2018-10-17T17:54:44Z</DateUtc></FrequencyChange></FrequencyChanges></Clock>\n",KW_Experiment5A-28-1,59.946,1.0.0.105,1,-566463314,Professional,2.0.10.353,2.0.10.353,10/17/2018,10/17/2018 17:54,13:54:44,2.0.10.248,2,2,1,2,,,,,,,,TrainingProc,BlockList,24,2,Distractor2.bmp,2,0,,0,1,218779,400,,0,0,yellow,400,1,400,,horizontal,yellow,Distractor2.bmp,lime,Distractor1.bmp,cyan,Distractor2.bmp,purple,Distractor2.bmp,red,Target2.bmp,blue,Distractor2.bmp,,,,TrialProc,2,TrainingTrialList,0,2,-999999,0,219179,0,1,638,219817,Target2.bmp,red,2,,,,11,1,24
KW_Experiment5A,28,1,"<?xml version=""1.0""?>\n<Clock xmlns:dt=""urn:schemas-microsoft-com:datatypes""><Description dt:dt=""string"">E-Prime Primary Realtime Clock</Description><StartTime><Timestamp dt:dt=""int"">0</Timestamp><DateUtc dt:dt=""string"">2018-10-17T17:54:44Z</DateUtc></StartTime><FrequencyChanges><FrequencyChange><Frequency dt:dt=""r8"">3215244</Frequency><Timestamp dt:dt=""r8"">7141963505200</Timestamp><Current dt:dt=""r8"">0</Current><DateUtc dt:dt=""string"">2018-10-17T17:54:44Z</DateUtc></FrequencyChange></FrequencyChanges></Clock>\n",KW_Experiment5A-28-1,59.946,1.0.0.105,1,-566463314,Professional,2.0.10.353,2.0.10.353,10/17/2018,10/17/2018 17:54,13:54:44,2.0.10.248,2,2,1,2,,,,,,,,TrainingProc,BlockList,25,2,Distractor1.bmp,1,0,,0,1,220831,400,,0,0,cyan,400,1,400,4,horizontal,lime,Target2.bmp,cyan,Distractor1.bmp,blue,Distractor1.bmp,red,Distractor2.bmp,yellow,Distractor2.bmp,purple,Distractor1.bmp,,,,TrialProc,,TrainingTrialList,1,2,-999999,0,221231,0,2,946,222177,Target2.bmp,lime,2,,,,1,2,25
KW_Experiment5A,28,1,"<?xml version=""1.0""?>\n<Clock xmlns:dt=""urn:schemas-microsoft-com:datatypes""><Description dt:dt=""string"">E-Prime Primary Realtime Clock</Description><StartTime><Timestamp dt:dt=""int"">0</Timestamp><DateUtc dt:dt=""string"">2018-10-17T17:54:44Z</DateUtc></StartTime><FrequencyChanges><FrequencyChange><Frequency dt:dt=""r8"">3215244</Frequency><Timestamp dt:dt=""r8"">7141963505200</Timestamp><Current dt:dt=""r8"">0</Current><DateUtc dt:dt=""string"">2018-10-17T17:54:44Z</DateUtc></FrequencyChange></FrequencyChanges></Clock>\n",KW_Experiment5A-28-1,59.946,1.0.0.105,1,-566463314,Professional,2.0.10.353,2.0.10.353,10/17/2018,10/17/2018 17:54,13:54:44,2.0.10.248,2,2,1,2,,,,,,,,TrainingProc,BlockList,26,1,Distractor1.bmp,1,0,,0,1,223200,400,,0,0,red,400,1,400,1,vertical,red,Distractor2.bmp,cyan,Distractor1.bmp,purple,Distractor2.bmp,blue,Distractor2.bmp,lime,Target1.bmp,yellow,Distractor1.bmp,,,,TrialProc,,TrainingTrialList,1,1,-999999,0,223600,0,1,729,224329,Target1.bmp,lime,1,,,,5,2,26
KW_Experiment5A,28,1,"<?xml version=""1.0""?>\n<Clock xmlns:dt=""urn:schemas-microsoft-com:datatypes""><Description dt:dt=""string"">E-Prime Primary Realtime Clock</Description><StartTime><Timestamp dt:dt=""int"">0</Timestamp><DateUtc dt:dt=""string"">2018-10-17T17:54:44Z</DateUtc></StartTime><FrequencyChanges><FrequencyChange><Frequency dt:dt=""r8"">3215244</Frequency><Timestamp dt:dt=""r8"">7141963505200</Timestamp><Current dt:dt=""r8"">0</Current><DateUtc dt:dt=""string"">2018-10-17T17:54:44Z</DateUtc></FrequencyChange></FrequencyChanges></Clock>\n",KW_Experiment5A-28-1,59.946,1.0.0.105,1,-566463314,Professional,2.0.10.353,2.0.10.353,10/17/2018,10/17/2018 17:54,13:54:44,2.0.10.248,2,2,1,2,,,,,,,,TrainingProc,BlockList,27,2,Distractor2.bmp,2,0,,0,1,225352,500,,0,0,purple,500,2,500,5,horizontal,lime,Target2.bmp,purple,Distractor2.bmp,yellow,Distractor1.bmp,blue,Distractor1.bmp,red,Distractor1.bmp,cyan,Distractor2.bmp,,,,TrialProc,,TrainingTrialList,1,2,-999999,0,225852,0,2,533,226385,Target2.bmp,lime,2,,,,1,2,27
KW_Experiment5A,28,1,"<?xml version=""1.0""?>\n<Clock xmlns:dt=""urn:schemas-microsoft-com:datatypes""><Description dt:dt=""string"">E-Prime Primary Realtime Clock</Description><StartTime><Timestamp dt:dt=""int"">0</Timestamp><DateUtc dt:dt=""string"">2018-10-17T17:54:44Z</DateUtc></StartTime><FrequencyChanges><FrequencyChange><Frequency dt:dt=""r8"">3215244</Frequency><Timestamp dt:dt=""r8"">7141963505200</Timestamp><Current dt:dt=""r8"">0</Current><DateUtc dt:dt=""string"">2018-10-17T17:54:44Z</DateUtc></FrequencyChange></FrequencyChanges></Clock>\n",KW_Experiment5A-28-1,59.946,1.0.0.105,1,-566463314,Professional,2.0.10.353,2.0.10.353,10/17/2018,10/17/2018 17:54,13:54:44,2.0.10.248,2,2,1,2,,,,,,,,TrainingProc,BlockList,28,1,Distractor2.bmp,2,0,,1,0,227403,501,,0,0,blue,500,2,500,,vertical,blue,Distractor2.bmp,cyan,Distractor1.bmp,yellow,Distractor1.bmp,purple,Distractor1.bmp,lime,Distractor1.bmp,red,Target1.bmp,,,,TrialProc,3,TrainingTrialList,1,1,-999999,1,227904,0,1,529,228433,Target1.bmp,red,1,,,,12,2,28
KW_Experiment5A,28,1,"<?xml version=""1.0""?>\n<Clock xmlns:dt=""urn:schemas-microsoft-com:datatypes""><Description dt:dt=""string"">E-Prime Primary Realtime Clock</Description><StartTime><Timestamp dt:dt=""int"">0</Timestamp><DateUtc dt:dt=""string"">2018-10-17T17:54:44Z</DateUtc></StartTime><FrequencyChanges><FrequencyChange><Frequency dt:dt=""r8"">3215244</Frequency><Timestamp dt:dt=""r8"">7141963505200</Timestamp><Current dt:dt=""r8"">0</Current><DateUtc dt:dt=""string"">2018-10-17T17:54:44Z</DateUtc></FrequencyChange></FrequencyChanges></Clock>\n",KW_Experiment5A-28-1,59.946,1.0.0.105,1,-566463314,Professional,2.0.10.353,2.0.10.353,10/17/2018,10/17/2018 17:54,13:54:44,2.0.10.248,2,2,1,2,,,,,,,,TrainingProc,BlockList,29,2,Distractor1.bmp,1,0,,1,1,229455,601,,0,0,cyan,600,3,600,4,horizontal,cyan,Distractor1.bmp,yellow,Distractor1.bmp,blue,Distractor2.bmp,red,Distractor2.bmp,lime,Target2.bmp,purple,Distractor1.bmp,,,,TrialProc,,TrainingTrialList,1,2,-999999,1,230056,0,2,1169,231225,Target2.bmp,lime,2,,,,5,2,29
KW_Experiment5A,28,1,"<?xml version=""1.0""?>\n<Clock xmlns:dt=""urn:schemas-microsoft-com:datatypes""><Description dt:dt=""string"">E-Prime Primary Realtime Clock</Description><StartTime><Timestamp dt:dt=""int"">0</Timestamp><DateUtc dt:dt=""string"">2018-10-17T17:54:44Z</DateUtc></StartTime><FrequencyChanges><FrequencyChange><Frequency dt:dt=""r8"">3215244</Frequency><Timestamp dt:dt=""r8"">7141963505200</Timestamp><Current dt:dt=""r8"">0</Current><DateUtc dt:dt=""string"">2018-10-17T17:54:44Z</DateUtc></FrequencyChange></FrequencyChanges></Clock>\n",KW_Experiment5A-28-1,59.946,1.0.0.105,1,-566463314,Professional,2.0.10.353,2.0.10.353,10/17/2018,10/17/2018 17:54,13:54:44,2.0.10.248,2,2,1,2,,,,,,,,TrainingProc,BlockList,30,1,Distractor1.bmp,1,0,,0,1,232241,401,,0,0,red,400,1,400,1,vertical,red,Distractor2.bmp,cyan,Distractor2.bmp,lime,Target1.bmp,blue,Distractor1.bmp,yellow,Distractor2.bmp,purple,Distractor2.bmp,,,,TrialProc,,TrainingTrialList,1,1,-999999,1,232642,0,1,839,233481,Target1.bmp,lime,1,,,,3,2,30
KW_Experiment5A,28,1,"<?xml version=""1.0""?>\n<Clock xmlns:dt=""urn:schemas-microsoft-com:datatypes""><Description dt:dt=""string"">E-Prime Primary Realtime Clock</Description><StartTime><Timestamp dt:dt=""int"">0</Timestamp><DateUtc dt:dt=""string"">2018-10-17T17:54:44Z</DateUtc></StartTime><FrequencyChanges><FrequencyChange><Frequency dt:dt=""r8"">3215244</Frequency><Timestamp dt:dt=""r8"">7141963505200</Timestamp><Current dt:dt=""r8"">0</Current><DateUtc dt:dt=""string"">2018-10-17T17:54:44Z</DateUtc></FrequencyChange></FrequencyChanges></Clock>\n",KW_Experiment5A-28-1,59.946,1.0.0.105,1,-566463314,Professional,2.0.10.353,2.0.10.353,10/17/2018,10/17/2018 17:54,13:54:44,2.0.10.248,2,2,1,2,,,,,,,,TrainingProc,BlockList,31,2,Distractor1.bmp,1,0,,0,1,234493,601,,0,0,cyan,600,3,600,4,horizontal,cyan,Distractor1.bmp,lime,Target2.bmp,yellow,Distractor1.bmp,purple,Distractor1.bmp,red,Distractor2.bmp,blue,Distractor2.bmp,,,,TrialProc,,TrainingTrialList,1,2,-999999,1,235094,0,2,667,235761,Target2.bmp,lime,2,,,,2,2,31
KW_Experiment5A,28,1,"<?xml version=""1.0""?>\n<Clock xmlns:dt=""urn:schemas-microsoft-com:datatypes""><Description dt:dt=""string"">E-Prime Primary Realtime Clock</Description><StartTime><Timestamp dt:dt=""int"">0</Timestamp><DateUtc dt:dt=""string"">2018-10-17T17:54:44Z</DateUtc></StartTime><FrequencyChanges><FrequencyChange><Frequency dt:dt=""r8"">3215244</Frequency><Timestamp dt:dt=""r8"">7141963505200</Timestamp><Current dt:dt=""r8"">0</Current><DateUtc dt:dt=""string"">2018-10-17T17:54:44Z</DateUtc></FrequencyChange></FrequencyChanges></Clock>\n",KW_Experiment5A-28-1,59.946,1.0.0.105,1,-566463314,Professional,2.0.10.353,2.0.10.353,10/17/2018,10/17/2018 17:54,13:54:44,2.0.10.248,2,2,1,2,,,,,,,,TrainingProc,BlockList,32,2,Distractor1.bmp,1,0,,0,1,236779,500,,0,0,cyan,500,2,500,4,horizontal,cyan,Distractor2.bmp,yellow,Distractor1.bmp,red,Distractor2.bmp,lime,Target2.bmp,purple,Distractor1.bmp,blue,Distractor1.bmp,,,,TrialProc,,TrainingTrialList,0,2,-999999,0,237279,0,1,610,237889,Target2.bmp,lime,2,,,,4,2,32
KW_Experiment5A,28,1,"<?xml version=""1.0""?>\n<Clock xmlns:dt=""urn:schemas-microsoft-com:datatypes""><Description dt:dt=""string"">E-Prime Primary Realtime Clock</Description><StartTime><Timestamp dt:dt=""int"">0</Timestamp><DateUtc dt:dt=""string"">2018-10-17T17:54:44Z</DateUtc></StartTime><FrequencyChanges><FrequencyChange><Frequency dt:dt=""r8"">3215244</Frequency><Timestamp dt:dt=""r8"">7141963505200</Timestamp><Current dt:dt=""r8"">0</Current><DateUtc dt:dt=""string"">2018-10-17T17:54:44Z</DateUtc></FrequencyChange></FrequencyChanges></Clock>\n",KW_Experiment5A-28-1,59.946,1.0.0.105,1,-566463314,Professional,2.0.10.353,2.0.10.353,10/17/2018,10/17/2018 17:54,13:54:44,2.0.10.248,2,2,1,2,,,,,,,,TrainingProc,BlockList,33,2,Distractor1.bmp,1,0,,0,1,238914,400,,0,0,purple,400,1,400,5,horizontal,lime,Target2.bmp,purple,Distractor1.bmp,yellow,Distractor2.bmp,cyan,Distractor2.bmp,blue,Distractor1.bmp,red,Distractor2.bmp,,,,TrialProc,,TrainingTrialList,1,2,-999999,0,239314,0,2,895,240209,Target2.bmp,lime,2,,,,1,2,33
KW_Experiment5A,28,1,"<?xml version=""1.0""?>\n<Clock xmlns:dt=""urn:schemas-microsoft-com:datatypes""><Description dt:dt=""string"">E-Prime Primary Realtime Clock</Description><StartTime><Timestamp dt:dt=""int"">0</Timestamp><DateUtc dt:dt=""string"">2018-10-17T17:54:44Z</DateUtc></StartTime><FrequencyChanges><FrequencyChange><Frequency dt:dt=""r8"">3215244</Frequency><Timestamp dt:dt=""r8"">7141963505200</Timestamp><Current dt:dt=""r8"">0</Current><DateUtc dt:dt=""string"">2018-10-17T17:54:44Z</DateUtc></FrequencyChange></FrequencyChanges></Clock>\n",KW_Experiment5A-28-1,59.946,1.0.0.105,1,-566463314,Professional,2.0.10.353,2.0.10.353,10/17/2018,10/17/2018 17:54,13:54:44,2.0.10.248,2,2,1,2,,,,,,,,TrainingProc,BlockList,34,2,Distractor1.bmp,1,0,,0,1,241233,500,,0,0,purple,500,2,500,5,horizontal,purple,Distractor1.bmp,cyan,Distractor2.bmp,yellow,Distractor2.bmp,lime,Target2.bmp,blue,Distractor1.bmp,red,Distractor1.bmp,,,,TrialProc,,TrainingTrialList,1,2,-999999,0,241733,0,2,1244,242977,Target2.bmp,lime,2,,,,4,2,34
KW_Experiment5A,28,1,"<?xml version=""1.0""?>\n<Clock xmlns:dt=""urn:schemas-microsoft-com:datatypes""><Description dt:dt=""string"">E-Prime Primary Realtime Clock</Description><StartTime><Timestamp dt:dt=""int"">0</Timestamp><DateUtc dt:dt=""string"">2018-10-17T17:54:44Z</DateUtc></StartTime><FrequencyChanges><FrequencyChange><Frequency dt:dt=""r8"">3215244</Frequency><Timestamp dt:dt=""r8"">7141963505200</Timestamp><Current dt:dt=""r8"">0</Current><DateUtc dt:dt=""string"">2018-10-17T17:54:44Z</DateUtc></FrequencyChange></FrequencyChanges></Clock>\n",KW_Experiment5A-28-1,59.946,1.0.0.105,1,-566463314,Professional,2.0.10.353,2.0.10.353,10/17/2018,10/17/2018 17:54,13:54:44,2.0.10.248,2,2,1,2,,,,,,,,TrainingProc,BlockList,35,1,Distractor2.bmp,2,0,,0,1,244002,400,,0,0,blue,400,1,400,3,vertical,blue,Distractor1.bmp,lime,Target1.bmp,purple,Distractor2.bmp,cyan,Distractor2.bmp,red,Distractor1.bmp,yellow,Distractor1.bmp,,,,TrialProc,,TrainingTrialList,1,1,-999999,0,244402,0,1,631,245033,Target1.bmp,lime,1,,,,2,2,35
KW_Experiment5A,28,1,"<?xml version=""1.0""?>\n<Clock xmlns:dt=""urn:schemas-microsoft-com:datatypes""><Description dt:dt=""string"">E-Prime Primary Realtime Clock</Description><StartTime><Timestamp dt:dt=""int"">0</Timestamp><DateUtc dt:dt=""string"">2018-10-17T17:54:44Z</DateUtc></StartTime><FrequencyChanges><FrequencyChange><Frequency dt:dt=""r8"">3215244</Frequency><Timestamp dt:dt=""r8"">7141963505200</Timestamp><Current dt:dt=""r8"">0</Current><DateUtc dt:dt=""string"">2018-10-17T17:54:44Z</DateUtc></FrequencyChange></FrequencyChanges></Clock>\n",KW_Experiment5A-28-1,59.946,1.0.0.105,1,-566463314,Professional,2.0.10.353,2.0.10.353,10/17/2018,10/17/2018 17:54,13:54:44,2.0.10.248,2,2,1,2,,,,,,,,TrainingProc,BlockList,36,2,Distractor2.bmp,2,0,,0,1,246054,601,,0,0,yellow,600,3,600,2,horizontal,yellow,Distractor1.bmp,lime,Target2.bmp,cyan,Distractor2.bmp,blue,Distractor1.bmp,purple,Distractor1.bmp,red,Distractor1.bmp,,,,TrialProc,,TrainingTrialList,1,2,-999999,1,246655,0,2,690,247345,Target2.bmp,lime,2,,,,2,2,36
KW_Experiment5A,28,1,"<?xml version=""1.0""?>\n<Clock xmlns:dt=""urn:schemas-microsoft-com:datatypes""><Description dt:dt=""string"">E-Prime Primary Realtime Clock</Description><StartTime><Timestamp dt:dt=""int"">0</Timestamp><DateUtc dt:dt=""string"">2018-10-17T17:54:44Z</DateUtc></StartTime><FrequencyChanges><FrequencyChange><Frequency dt:dt=""r8"">3215244</Frequency><Timestamp dt:dt=""r8"">7141963505200</Timestamp><Current dt:dt=""r8"">0</Current><DateUtc dt:dt=""string"">2018-10-17T17:54:44Z</DateUtc></FrequencyChange></FrequencyChanges></Clock>\n",KW_Experiment5A-28-1,59.946,1.0.0.105,1,-566463314,Professional,2.0.10.353,2.0.10.353,10/17/2018,10/17/2018 17:54,13:54:44,2.0.10.248,2,2,1,2,,,,,,,,TrainingProc,BlockList,37,2,Distractor2.bmp,2,0,,0,1,248356,601,,0,0,purple,600,3,600,,horizontal,red,Target2.bmp,lime,Distractor2.bmp,cyan,Distractor1.bmp,yellow,Distractor2.bmp,blue,Distractor1.bmp,purple,Distractor1.bmp,,,,TrialProc,5,TrainingTrialList,0,2,-999999,1,248957,0,1,740,249697,Target2.bmp,red,2,,,,7,2,37
KW_Experiment5A,28,1,"<?xml version=""1.0""?>\n<Clock xmlns:dt=""urn:schemas-microsoft-com:datatypes""><Description dt:dt=""string"">E-Prime Primary Realtime Clock</Description><StartTime><Timestamp dt:dt=""int"">0</Timestamp><DateUtc dt:dt=""string"">2018-10-17T17:54:44Z</DateUtc></StartTime><FrequencyChanges><FrequencyChange><Frequency dt:dt=""r8"">3215244</Frequency><Timestamp dt:dt=""r8"">7141963505200</Timestamp><Current dt:dt=""r8"">0</Current><DateUtc dt:dt=""string"">2018-10-17T17:54:44Z</DateUtc></FrequencyChange></FrequencyChanges></Clock>\n",KW_Experiment5A-28-1,59.946,1.0.0.105,1,-566463314,Professional,2.0.10.353,2.0.10.353,10/17/2018,10/17/2018 17:54,13:54:44,2.0.10.248,2,2,1,2,,,,,,,,TrainingProc,BlockList,38,1,Distractor2.bmp,2,0,,0,1,250708,501,,0,0,red,500,2,500,1,vertical,red,Distractor1.bmp,purple,Distractor2.bmp,lime,Target1.bmp,yellow,Distractor2.bmp,blue,Distractor1.bmp,cyan,Distractor1.bmp,,,,TrialProc,,TrainingTrialList,1,1,-999999,1,251209,0,1,1000,252209,Target1.bmp,lime,1,,,,3,2,38
KW_Experiment5A,28,1,"<?xml version=""1.0""?>\n<Clock xmlns:dt=""urn:schemas-microsoft-com:datatypes""><Description dt:dt=""string"">E-Prime Primary Realtime Clock</Description><StartTime><Timestamp dt:dt=""int"">0</Timestamp><DateUtc dt:dt=""string"">2018-10-17T17:54:44Z</DateUtc></StartTime><FrequencyChanges><FrequencyChange><Frequency dt:dt=""r8"">3215244</Frequency><Timestamp dt:dt=""r8"">7141963505200</Timestamp><Current dt:dt=""r8"">0</Current><DateUtc dt:dt=""string"">2018-10-17T17:54:44Z</DateUtc></FrequencyChange></FrequencyChanges></Clock>\n",KW_Experiment5A-28-1,59.946,1.0.0.105,1,-566463314,Professional,2.0.10.353,2.0.10.353,10/17/2018,10/17/2018 17:54,13:54:44,2.0.10.248,2,2,1,2,,,,,,,,TrainingProc,BlockList,39,1,Distractor1.bmp,1,0,,0,1,253227,601,,0,0,purple,600,3,600,5,vertical,purple,Distractor1.bmp,yellow,Distractor1.bmp,blue,Distractor1.bmp,lime,Target1.bmp,red,Distractor1.bmp,cyan,Distractor1.bmp,,,,TrialProc,,TrainingTrialList,1,1,-999999,1,253828,0,1,845,254673,Target1.bmp,lime,1,,,,4,2,39
KW_Experiment5A,28,1,"<?xml version=""1.0""?>\n<Clock xmlns:dt=""urn:schemas-microsoft-com:datatypes""><Description dt:dt=""string"">E-Prime Primary Realtime Clock</Description><StartTime><Timestamp dt:dt=""int"">0</Timestamp><DateUtc dt:dt=""string"">2018-10-17T17:54:44Z</DateUtc></StartTime><FrequencyChanges><FrequencyChange><Frequency dt:dt=""r8"">3215244</Frequency><Timestamp dt:dt=""r8"">7141963505200</Timestamp><Current dt:dt=""r8"">0</Current><DateUtc dt:dt=""string"">2018-10-17T17:54:44Z</DateUtc></FrequencyChange></FrequencyChanges></Clock>\n",KW_Experiment5A-28-1,59.946,1.0.0.105,1,-566463314,Professional,2.0.10.353,2.0.10.353,10/17/2018,10/17/2018 17:54,13:54:44,2.0.10.248,2,2,1,2,,,,,,,,TrainingProc,BlockList,40,1,Distractor2.bmp,2,0,,0,1,255696,401,,0,0,cyan,400,1,400,4,vertical,cyan,Distractor2.bmp,red,Distractor1.bmp,yellow,Distractor1.bmp,purple,Distractor1.bmp,blue,Distractor2.bmp,lime,Target1.bmp,,,,TrialProc,,TrainingTrialList,1,1,-999999,1,256097,0,1,560,256657,Target1.bmp,lime,1,,,,6,2,40
KW_Experiment5A,28,1,"<?xml version=""1.0""?>\n<Clock xmlns:dt=""urn:schemas-microsoft-com:datatypes""><Description dt:dt=""string"">E-Prime Primary Realtime Clock</Description><StartTime><Timestamp dt:dt=""int"">0</Timestamp><DateUtc dt:dt=""string"">2018-10-17T17:54:44Z</DateUtc></StartTime><FrequencyChanges><FrequencyChange><Frequency dt:dt=""r8"">3215244</Frequency><Timestamp dt:dt=""r8"">7141963505200</Timestamp><Current dt:dt=""r8"">0</Current><DateUtc dt:dt=""string"">2018-10-17T17:54:44Z</DateUtc></FrequencyChange></FrequencyChanges></Clock>\n",KW_Experiment5A-28-1,59.946,1.0.0.105,1,-566463314,Professional,2.0.10.353,2.0.10.353,10/17/2018,10/17/2018 17:54,13:54:44,2.0.10.248,2,2,1,2,,,,,,,,TrainingProc,BlockList,41,1,Distractor1.bmp,1,0,,0,1,257681,401,,0,0,yellow,400,1,400,,vertical,yellow,Distractor1.bmp,blue,Distractor2.bmp,lime,Distractor2.bmp,red,Target1.bmp,cyan,Distractor1.bmp,purple,Distractor1.bmp,,,,TrialProc,2,TrainingTrialList,1,1,-999999,1,258082,0,1,1079,259161,Target1.bmp,red,1,,,,10,2,41
KW_Experiment5A,28,1,"<?xml version=""1.0""?>\n<Clock xmlns:dt=""urn:schemas-microsoft-com:datatypes""><Description dt:dt=""string"">E-Prime Primary Realtime Clock</Description><StartTime><Timestamp dt:dt=""int"">0</Timestamp><DateUtc dt:dt=""string"">2018-10-17T17:54:44Z</DateUtc></StartTime><FrequencyChanges><FrequencyChange><Frequency dt:dt=""r8"">3215244</Frequency><Timestamp dt:dt=""r8"">7141963505200</Timestamp><Current dt:dt=""r8"">0</Current><DateUtc dt:dt=""string"">2018-10-17T17:54:44Z</DateUtc></FrequencyChange></FrequencyChanges></Clock>\n",KW_Experiment5A-28-1,59.946,1.0.0.105,1,-566463314,Professional,2.0.10.353,2.0.10.353,10/17/2018,10/17/2018 17:54,13:54:44,2.0.10.248,2,2,1,2,,,,,,,,TrainingProc,BlockList,42,2,Distractor1.bmp,1,0,,0,1,260184,600,,0,0,purple,600,3,600,5,horizontal,purple,Distractor1.bmp,cyan,Distractor2.bmp,yellow,Distractor1.bmp,blue,Distractor1.bmp,red,Distractor2.bmp,lime,Target2.bmp,,,,TrialProc,,TrainingTrialList,1,2,-999999,0,260784,0,2,1113,261897,Target2.bmp,lime,2,,,,6,2,42
KW_Experiment5A,28,1,"<?xml version=""1.0""?>\n<Clock xmlns:dt=""urn:schemas-microsoft-com:datatypes""><Description dt:dt=""string"">E-Prime Primary Realtime Clock</Description><StartTime><Timestamp dt:dt=""int"">0</Timestamp><DateUtc dt:dt=""string"">2018-10-17T17:54:44Z</DateUtc></StartTime><FrequencyChanges><FrequencyChange><Frequency dt:dt=""r8"">3215244</Frequency><Timestamp dt:dt=""r8"">7141963505200</Timestamp><Current dt:dt=""r8"">0</Current><DateUtc dt:dt=""string"">2018-10-17T17:54:44Z</DateUtc></FrequencyChange></FrequencyChanges></Clock>\n",KW_Experiment5A-28-1,59.946,1.0.0.105,1,-566463314,Professional,2.0.10.353,2.0.10.353,10/17/2018,10/17/2018 17:54,13:54:44,2.0.10.248,2,2,1,2,,,,,,,,TrainingProc,BlockList,43,2,Distractor1.bmp,1,0,,0,1,262920,600,,0,0,purple,600,3,600,,horizontal,purple,Distractor2.bmp,cyan,Distractor2.bmp,red,Target2.bmp,blue,Distractor1.bmp,yellow,Distractor1.bmp,lime,Distractor1.bmp,,,,TrialProc,5,TrainingTrialList,0,2,-999999,0,263520,0,1,817,264337,Target2.bmp,red,2,,,,9,2,43
KW_Experiment5A,28,1,"<?xml version=""1.0""?>\n<Clock xmlns:dt=""urn:schemas-microsoft-com:datatypes""><Description dt:dt=""string"">E-Prime Primary Realtime Clock</Description><StartTime><Timestamp dt:dt=""int"">0</Timestamp><DateUtc dt:dt=""string"">2018-10-17T17:54:44Z</DateUtc></StartTime><FrequencyChanges><FrequencyChange><Frequency dt:dt=""r8"">3215244</Frequency><Timestamp dt:dt=""r8"">7141963505200</Timestamp><Current dt:dt=""r8"">0</Current><DateUtc dt:dt=""string"">2018-10-17T17:54:44Z</DateUtc></FrequencyChange></FrequencyChanges></Clock>\n",KW_Experiment5A-28-1,59.946,1.0.0.105,1,-566463314,Professional,2.0.10.353,2.0.10.353,10/17/2018,10/17/2018 17:54,13:54:44,2.0.10.248,2,2,1,2,,,,,,,,TrainingProc,BlockList,44,1,Distractor2.bmp,2,0,,0,1,265355,501,,0,0,blue,500,2,500,3,vertical,blue,Distractor2.bmp,cyan,Distractor2.bmp,purple,Distractor1.bmp,yellow,Distractor2.bmp,red,Distractor1.bmp,lime,Target1.bmp,,,,TrialProc,,TrainingTrialList,1,1,-999999,1,265856,0,1,681,266537,Target1.bmp,lime,1,,,,6,2,44
KW_Experiment5A,28,1,"<?xml version=""1.0""?>\n<Clock xmlns:dt=""urn:schemas-microsoft-com:datatypes""><Description dt:dt=""string"">E-Prime Primary Realtime Clock</Description><StartTime><Timestamp dt:dt=""int"">0</Timestamp><DateUtc dt:dt=""string"">2018-10-17T17:54:44Z</DateUtc></StartTime><FrequencyChanges><FrequencyChange><Frequency dt:dt=""r8"">3215244</Frequency><Timestamp dt:dt=""r8"">7141963505200</Timestamp><Current dt:dt=""r8"">0</Current><DateUtc dt:dt=""string"">2018-10-17T17:54:44Z</DateUtc></FrequencyChange></FrequencyChanges></Clock>\n",KW_Experiment5A-28-1,59.946,1.0.0.105,1,-566463314,Professional,2.0.10.353,2.0.10.353,10/17/2018,10/17/2018 17:54,13:54:44,2.0.10.248,2,2,1,2,,,,,,,,TrainingProc,BlockList,45,2,Distractor2.bmp,2,0,,0,1,267557,401,,0,0,blue,400,1,400,3,horizontal,blue,Distractor2.bmp,cyan,Distractor2.bmp,red,Distractor1.bmp,yellow,Distractor2.bmp,lime,Target2.bmp,purple,Distractor2.bmp,,,,TrialProc,,TrainingTrialList,0,2,-999999,1,267958,0,1,691,268649,Target2.bmp,lime,2,,,,5,2,45
KW_Experiment5A,28,1,"<?xml version=""1.0""?>\n<Clock xmlns:dt=""urn:schemas-microsoft-com:datatypes""><Description dt:dt=""string"">E-Prime Primary Realtime Clock</Description><StartTime><Timestamp dt:dt=""int"">0</Timestamp><DateUtc dt:dt=""string"">2018-10-17T17:54:44Z</DateUtc></StartTime><FrequencyChanges><FrequencyChange><Frequency dt:dt=""r8"">3215244</Frequency><Timestamp dt:dt=""r8"">7141963505200</Timestamp><Current dt:dt=""r8"">0</Current><DateUtc dt:dt=""string"">2018-10-17T17:54:44Z</DateUtc></FrequencyChange></FrequencyChanges></Clock>\n",KW_Experiment5A-28-1,59.946,1.0.0.105,1,-566463314,Professional,2.0.10.353,2.0.10.353,10/17/2018,10/17/2018 17:54,13:54:44,2.0.10.248,2,2,1,2,,,,,,,,TrainingProc,BlockList,46,1,Distractor2.bmp,2,0,,0,1,269676,400,,0,0,cyan,400,1,400,4,vertical,cyan,Distractor2.bmp,purple,Distractor2.bmp,lime,Target1.bmp,yellow,Distractor2.bmp,red,Distractor1.bmp,blue,Distractor2.bmp,,,,TrialProc,,TrainingTrialList,1,1,-999999,0,270076,0,1,909,270985,Target1.bmp,lime,1,,,,3,2,46
KW_Experiment5A,28,1,"<?xml version=""1.0""?>\n<Clock xmlns:dt=""urn:schemas-microsoft-com:datatypes""><Description dt:dt=""string"">E-Prime Primary Realtime Clock</Description><StartTime><Timestamp dt:dt=""int"">0</Timestamp><DateUtc dt:dt=""string"">2018-10-17T17:54:44Z</DateUtc></StartTime><FrequencyChanges><FrequencyChange><Frequency dt:dt=""r8"">3215244</Frequency><Timestamp dt:dt=""r8"">7141963505200</Timestamp><Current dt:dt=""r8"">0</Current><DateUtc dt:dt=""string"">2018-10-17T17:54:44Z</DateUtc></FrequencyChange></FrequencyChanges></Clock>\n",KW_Experiment5A-28-1,59.946,1.0.0.105,1,-566463314,Professional,2.0.10.353,2.0.10.353,10/17/2018,10/17/2018 17:54,13:54:44,2.0.10.248,2,2,1,2,,,,,,,,TrainingProc,BlockList,47,1,Distractor2.bmp,2,0,,0,1,271995,400,,0,0,yellow,400,1,400,,vertical,yellow,Distractor2.bmp,cyan,Distractor1.bmp,blue,Distractor2.bmp,lime,Distractor2.bmp,red,Target1.bmp,purple,Distractor2.bmp,,,,TrialProc,2,TrainingTrialList,1,1,-999999,0,272395,0,1,910,273305,Target1.bmp,red,1,,,,11,2,47
KW_Experiment5A,28,1,"<?xml version=""1.0""?>\n<Clock xmlns:dt=""urn:schemas-microsoft-com:datatypes""><Description dt:dt=""string"">E-Prime Primary Realtime Clock</Description><StartTime><Timestamp dt:dt=""int"">0</Timestamp><DateUtc dt:dt=""string"">2018-10-17T17:54:44Z</DateUtc></StartTime><FrequencyChanges><FrequencyChange><Frequency dt:dt=""r8"">3215244</Frequency><Timestamp dt:dt=""r8"">7141963505200</Timestamp><Current dt:dt=""r8"">0</Current><DateUtc dt:dt=""string"">2018-10-17T17:54:44Z</DateUtc></FrequencyChange></FrequencyChanges></Clock>\n",KW_Experiment5A-28-1,59.946,1.0.0.105,1,-566463314,Professional,2.0.10.353,2.0.10.353,10/17/2018,10/17/2018 17:54,13:54:44,2.0.10.248,2,2,1,2,,,,,,,,TrainingProc,BlockList,48,1,Distractor2.bmp,2,0,,0,1,274330,501,,0,0,cyan,500,2,500,,vertical,cyan,Distractor1.bmp,red,Target1.bmp,lime,Distractor2.bmp,blue,Distractor1.bmp,yellow,Distractor1.bmp,purple,Distractor2.bmp,,,,TrialProc,4,TrainingTrialList,1,1,-999999,1,274831,0,1,818,275649,Target1.bmp,red,1,,,,8,2,48
KW_Experiment5A,28,1,"<?xml version=""1.0""?>\n<Clock xmlns:dt=""urn:schemas-microsoft-com:datatypes""><Description dt:dt=""string"">E-Prime Primary Realtime Clock</Description><StartTime><Timestamp dt:dt=""int"">0</Timestamp><DateUtc dt:dt=""string"">2018-10-17T17:54:44Z</DateUtc></StartTime><FrequencyChanges><FrequencyChange><Frequency dt:dt=""r8"">3215244</Frequency><Timestamp dt:dt=""r8"">7141963505200</Timestamp><Current dt:dt=""r8"">0</Current><DateUtc dt:dt=""string"">2018-10-17T17:54:44Z</DateUtc></FrequencyChange></FrequencyChanges></Clock>\n",KW_Experiment5A-28-1,59.946,1.0.0.105,1,-566463314,Professional,2.0.10.353,2.0.10.353,10/17/2018,10/17/2018 17:54,13:54:44,2.0.10.248,3,2,1,3,,,,,,,,TrainingProc,BlockList,1,2,Distractor2.bmp,2,0,,0,18,278467,601,,0,0,blue,600,3,600,3,horizontal,blue,Distractor2.bmp,purple,Distractor1.bmp,red,Distractor1.bmp,yellow,Distractor1.bmp,cyan,Distractor2.bmp,lime,Target2.bmp,,,,TrialProc,,TrainingTrialList,1,2,-999999,1,279068,0,2,765,279833,Target2.bmp,lime,2,,,,6,3,49
KW_Experiment5A,28,1,"<?xml version=""1.0""?>\n<Clock xmlns:dt=""urn:schemas-microsoft-com:datatypes""><Description dt:dt=""string"">E-Prime Primary Realtime Clock</Description><StartTime><Timestamp dt:dt=""int"">0</Timestamp><DateUtc dt:dt=""string"">2018-10-17T17:54:44Z</DateUtc></StartTime><FrequencyChanges><FrequencyChange><Frequency dt:dt=""r8"">3215244</Frequency><Timestamp dt:dt=""r8"">7141963505200</Timestamp><Current dt:dt=""r8"">0</Current><DateUtc dt:dt=""string"">2018-10-17T17:54:44Z</DateUtc></FrequencyChange></FrequencyChanges></Clock>\n",KW_Experiment5A-28-1,59.946,1.0.0.105,1,-566463314,Professional,2.0.10.353,2.0.10.353,10/17/2018,10/17/2018 17:54,13:54:44,2.0.10.248,3,2,1,3,,,,,,,,TrainingProc,BlockList,2,2,Distractor2.bmp,2,0,,0,1,280853,400,,0,0,red,400,1,400,1,horizontal,red,Distractor1.bmp,yellow,Distractor1.bmp,lime,Target2.bmp,blue,Distractor2.bmp,cyan,Distractor2.bmp,purple,Distractor2.bmp,,,,TrialProc,,TrainingTrialList,0,2,-999999,0,281253,0,1,756,282009,Target2.bmp,lime,2,,,,3,3,50
KW_Experiment5A,28,1,"<?xml version=""1.0""?>\n<Clock xmlns:dt=""urn:schemas-microsoft-com:datatypes""><Description dt:dt=""string"">E-Prime Primary Realtime Clock</Description><StartTime><Timestamp dt:dt=""int"">0</Timestamp><DateUtc dt:dt=""string"">2018-10-17T17:54:44Z</DateUtc></StartTime><FrequencyChanges><FrequencyChange><Frequency dt:dt=""r8"">3215244</Frequency><Timestamp dt:dt=""r8"">7141963505200</Timestamp><Current dt:dt=""r8"">0</Current><DateUtc dt:dt=""string"">2018-10-17T17:54:44Z</DateUtc></FrequencyChange></FrequencyChanges></Clock>\n",KW_Experiment5A-28-1,59.946,1.0.0.105,1,-566463314,Professional,2.0.10.353,2.0.10.353,10/17/2018,10/17/2018 17:54,13:54:44,2.0.10.248,3,2,1,3,,,,,,,,TrainingProc,BlockList,3,1,Distractor1.bmp,1,0,,1,0,283021,601,,0,0,lime,600,3,600,,vertical,lime,Distractor1.bmp,cyan,Distractor2.bmp,red,Target1.bmp,blue,Distractor1.bmp,yellow,Distractor1.bmp,purple,Distractor1.bmp,,,,TrialProc,6,TrainingTrialList,1,1,-999999,1,283622,0,1,811,284433,Target1.bmp,red,1,,,,9,3,51
KW_Experiment5A,28,1,"<?xml version=""1.0""?>\n<Clock xmlns:dt=""urn:schemas-microsoft-com:datatypes""><Description dt:dt=""string"">E-Prime Primary Realtime Clock</Description><StartTime><Timestamp dt:dt=""int"">0</Timestamp><DateUtc dt:dt=""string"">2018-10-17T17:54:44Z</DateUtc></StartTime><FrequencyChanges><FrequencyChange><Frequency dt:dt=""r8"">3215244</Frequency><Timestamp dt:dt=""r8"">7141963505200</Timestamp><Current dt:dt=""r8"">0</Current><DateUtc dt:dt=""string"">2018-10-17T17:54:44Z</DateUtc></FrequencyChange></FrequencyChanges></Clock>\n",KW_Experiment5A-28-1,59.946,1.0.0.105,1,-566463314,Professional,2.0.10.353,2.0.10.353,10/17/2018,10/17/2018 17:54,13:54:44,2.0.10.248,3,2,1,3,,,,,,,,TrainingProc,BlockList,4,2,Distractor2.bmp,2,0,,0,1,285457,400,,0,0,yellow,400,1,400,,horizontal,red,Target2.bmp,purple,Distractor2.bmp,cyan,Distractor1.bmp,blue,Distractor1.bmp,lime,Distractor1.bmp,yellow,Distractor1.bmp,,,,TrialProc,2,TrainingTrialList,1,2,-999999,0,285857,0,2,768,286625,Target2.bmp,red,2,,,,7,3,52
KW_Experiment5A,28,1,"<?xml version=""1.0""?>\n<Clock xmlns:dt=""urn:schemas-microsoft-com:datatypes""><Description dt:dt=""string"">E-Prime Primary Realtime Clock</Description><StartTime><Timestamp dt:dt=""int"">0</Timestamp><DateUtc dt:dt=""string"">2018-10-17T17:54:44Z</DateUtc></StartTime><FrequencyChanges><FrequencyChange><Frequency dt:dt=""r8"">3215244</Frequency><Timestamp dt:dt=""r8"">7141963505200</Timestamp><Current dt:dt=""r8"">0</Current><DateUtc dt:dt=""string"">2018-10-17T17:54:44Z</DateUtc></FrequencyChange></FrequencyChanges></Clock>\n",KW_Experiment5A-28-1,59.946,1.0.0.105,1,-566463314,Professional,2.0.10.353,2.0.10.353,10/17/2018,10/17/2018 17:54,13:54:44,2.0.10.248,3,2,1,3,,,,,,,,TrainingProc,BlockList,5,2,Distractor2.bmp,2,0,,0,1,287642,401,,0,0,blue,400,1,400,3,horizontal,blue,Distractor2.bmp,red,Distractor1.bmp,purple,Distractor1.bmp,cyan,Distractor1.bmp,yellow,Distractor2.bmp,lime,Target2.bmp,,,,TrialProc,,TrainingTrialList,0,2,-999999,1,288043,0,1,1502,289545,Target2.bmp,lime,2,,,,6,3,53
KW_Experiment5A,28,1,"<?xml version=""1.0""?>\n<Clock xmlns:dt=""urn:schemas-microsoft-com:datatypes""><Description dt:dt=""string"">E-Prime Primary Realtime Clock</Description><StartTime><Timestamp dt:dt=""int"">0</Timestamp><DateUtc dt:dt=""string"">2018-10-17T17:54:44Z</DateUtc></StartTime><FrequencyChanges><FrequencyChange><Frequency dt:dt=""r8"">3215244</Frequency><Timestamp dt:dt=""r8"">7141963505200</Timestamp><Current dt:dt=""r8"">0</Current><DateUtc dt:dt=""string"">2018-10-17T17:54:44Z</DateUtc></FrequencyChange></FrequencyChanges></Clock>\n",KW_Experiment5A-28-1,59.946,1.0.0.105,1,-566463314,Professional,2.0.10.353,2.0.10.353,10/17/2018,10/17/2018 17:54,13:54:44,2.0.10.248,3,2,1,3,,,,,,,,TrainingProc,BlockList,6,1,Distractor2.bmp,2,0,,0,1,290562,400,,0,0,purple,400,1,400,5,vertical,purple,Distractor2.bmp,yellow,Distractor2.bmp,cyan,Distractor1.bmp,red,Distractor2.bmp,blue,Distractor2.bmp,lime,Target1.bmp,,,,TrialProc,,TrainingTrialList,1,1,-999999,0,290962,0,1,711,291673,Target1.bmp,lime,1,,,,6,3,54
KW_Experiment5A,28,1,"<?xml version=""1.0""?>\n<Clock xmlns:dt=""urn:schemas-microsoft-com:datatypes""><Description dt:dt=""string"">E-Prime Primary Realtime Clock</Description><StartTime><Timestamp dt:dt=""int"">0</Timestamp><DateUtc dt:dt=""string"">2018-10-17T17:54:44Z</DateUtc></StartTime><FrequencyChanges><FrequencyChange><Frequency dt:dt=""r8"">3215244</Frequency><Timestamp dt:dt=""r8"">7141963505200</Timestamp><Current dt:dt=""r8"">0</Current><DateUtc dt:dt=""string"">2018-10-17T17:54:44Z</DateUtc></FrequencyChange></FrequencyChanges></Clock>\n",KW_Experiment5A-28-1,59.946,1.0.0.105,1,-566463314,Professional,2.0.10.353,2.0.10.353,10/17/2018,10/17/2018 17:54,13:54:44,2.0.10.248,3,2,1,3,,,,,,,,TrainingProc,BlockList,7,1,Distractor1.bmp,1,0,,0,1,292697,400,,0,0,red,400,1,400,1,vertical,red,Distractor2.bmp,blue,Distractor2.bmp,purple,Distractor2.bmp,cyan,Distractor2.bmp,lime,Target1.bmp,yellow,Distractor1.bmp,,,,TrialProc,,TrainingTrialList,1,1,-999999,0,293097,0,1,1399,294496,Target1.bmp,lime,1,,,,5,3,55
KW_Experiment5A,28,1,"<?xml version=""1.0""?>\n<Clock xmlns:dt=""urn:schemas-microsoft-com:datatypes""><Description dt:dt=""string"">E-Prime Primary Realtime Clock</Description><StartTime><Timestamp dt:dt=""int"">0</Timestamp><DateUtc dt:dt=""string"">2018-10-17T17:54:44Z</DateUtc></StartTime><FrequencyChanges><FrequencyChange><Frequency dt:dt=""r8"">3215244</Frequency><Timestamp dt:dt=""r8"">7141963505200</Timestamp><Current dt:dt=""r8"">0</Current><DateUtc dt:dt=""string"">2018-10-17T17:54:44Z</DateUtc></FrequencyChange></FrequencyChanges></Clock>\n",KW_Experiment5A-28-1,59.946,1.0.0.105,1,-566463314,Professional,2.0.10.353,2.0.10.353,10/17/2018,10/17/2018 17:54,13:54:44,2.0.10.248,3,2,1,3,,,,,,,,TrainingProc,BlockList,8,1,Distractor1.bmp,1,0,,0,1,295516,501,,0,0,cyan,500,2,500,4,vertical,lime,Target1.bmp,cyan,Distractor1.bmp,yellow,Distractor2.bmp,red,Distractor2.bmp,blue,Distractor1.bmp,purple,Distractor1.bmp,,,,TrialProc,,TrainingTrialList,1,1,-999999,1,296017,0,1,647,296664,Target1.bmp,lime,1,,,,1,3,56
KW_Experiment5A,28,1,"<?xml version=""1.0""?>\n<Clock xmlns:dt=""urn:schemas-microsoft-com:datatypes""><Description dt:dt=""string"">E-Prime Primary Realtime Clock</Description><StartTime><Timestamp dt:dt=""int"">0</Timestamp><DateUtc dt:dt=""string"">2018-10-17T17:54:44Z</DateUtc></StartTime><FrequencyChanges><FrequencyChange><Frequency dt:dt=""r8"">3215244</Frequency><Timestamp dt:dt=""r8"">7141963505200</Timestamp><Current dt:dt=""r8"">0</Current><DateUtc dt:dt=""string"">2018-10-17T17:54:44Z</DateUtc></FrequencyChange></FrequencyChanges></Clock>\n",KW_Experiment5A-28-1,59.946,1.0.0.105,1,-566463314,Professional,2.0.10.353,2.0.10.353,10/17/2018,10/17/2018 17:54,13:54:44,2.0.10.248,3,2,1,3,,,,,,,,TrainingProc,BlockList,9,1,Distractor1.bmp,1,0,,0,1,297685,500,,0,0,yellow,500,2,500,2,vertical,yellow,Distractor1.bmp,cyan,Distractor2.bmp,blue,Distractor2.bmp,lime,Target1.bmp,red,Distractor1.bmp,purple,Distractor1.bmp,,,,TrialProc,,TrainingTrialList,1,1,-999999,0,298185,0,1,983,299168,Target1.bmp,lime,1,,,,4,3,57
KW_Experiment5A,28,1,"<?xml version=""1.0""?>\n<Clock xmlns:dt=""urn:schemas-microsoft-com:datatypes""><Description dt:dt=""string"">E-Prime Primary Realtime Clock</Description><StartTime><Timestamp dt:dt=""int"">0</Timestamp><DateUtc dt:dt=""string"">2018-10-17T17:54:44Z</DateUtc></StartTime><FrequencyChanges><FrequencyChange><Frequency dt:dt=""r8"">3215244</Frequency><Timestamp dt:dt=""r8"">7141963505200</Timestamp><Current dt:dt=""r8"">0</Current><DateUtc dt:dt=""string"">2018-10-17T17:54:44Z</DateUtc></FrequencyChange></FrequencyChanges></Clock>\n",KW_Experiment5A-28-1,59.946,1.0.0.105,1,-566463314,Professional,2.0.10.353,2.0.10.353,10/17/2018,10/17/2018 17:54,13:54:44,2.0.10.248,3,2,1,3,,,,,,,,TrainingProc,BlockList,10,2,Distractor2.bmp,2,0,,0,1,300187,501,,0,0,yellow,500,2,500,2,horizontal,lime,Target2.bmp,yellow,Distractor2.bmp,blue,Distractor1.bmp,purple,Distractor2.bmp,red,Distractor1.bmp,cyan,Distractor1.bmp,,,,TrialProc,,TrainingTrialList,1,2,-999999,1,300688,0,2,1040,301728,Target2.bmp,lime,2,,,,1,3,58
KW_Experiment5A,28,1,"<?xml version=""1.0""?>\n<Clock xmlns:dt=""urn:schemas-microsoft-com:datatypes""><Description dt:dt=""string"">E-Prime Primary Realtime Clock</Description><StartTime><Timestamp dt:dt=""int"">0</Timestamp><DateUtc dt:dt=""string"">2018-10-17T17:54:44Z</DateUtc></StartTime><FrequencyChanges><FrequencyChange><Frequency dt:dt=""r8"">3215244</Frequency><Timestamp dt:dt=""r8"">7141963505200</Timestamp><Current dt:dt=""r8"">0</Current><DateUtc dt:dt=""string"">2018-10-17T17:54:44Z</DateUtc></FrequencyChange></FrequencyChanges></Clock>\n",KW_Experiment5A-28-1,59.946,1.0.0.105,1,-566463314,Professional,2.0.10.353,2.0.10.353,10/17/2018,10/17/2018 17:54,13:54:44,2.0.10.248,3,2,1,3,,,,,,,,TrainingProc,BlockList,11,1,Distractor1.bmp,1,0,,0,1,302740,400,,0,0,cyan,400,1,400,4,vertical,lime,Target1.bmp,cyan,Distractor1.bmp,blue,Distractor1.bmp,yellow,Distractor1.bmp,red,Distractor2.bmp,purple,Distractor1.bmp,,,,TrialProc,,TrainingTrialList,1,1,-999999,0,303140,0,1,588,303728,Target1.bmp,lime,1,,,,1,3,59
KW_Experiment5A,28,1,"<?xml version=""1.0""?>\n<Clock xmlns:dt=""urn:schemas-microsoft-com:datatypes""><Description dt:dt=""string"">E-Prime Primary Realtime Clock</Description><StartTime><Timestamp dt:dt=""int"">0</Timestamp><DateUtc dt:dt=""string"">2018-10-17T17:54:44Z</DateUtc></StartTime><FrequencyChanges><FrequencyChange><Frequency dt:dt=""r8"">3215244</Frequency><Timestamp dt:dt=""r8"">7141963505200</Timestamp><Current dt:dt=""r8"">0</Current><DateUtc dt:dt=""string"">2018-10-17T17:54:44Z</DateUtc></FrequencyChange></FrequencyChanges></Clock>\n",KW_Experiment5A-28-1,59.946,1.0.0.105,1,-566463314,Professional,2.0.10.353,2.0.10.353,10/17/2018,10/17/2018 17:54,13:54:44,2.0.10.248,3,2,1,3,,,,,,,,TrainingProc,BlockList,12,1,Distractor2.bmp,2,0,,1,1,304741,401,,0,0,red,400,1,400,1,vertical,red,Distractor1.bmp,lime,Target1.bmp,yellow,Distractor2.bmp,cyan,Distractor1.bmp,purple,Distractor2.bmp,blue,Distractor1.bmp,,,,TrialProc,,TrainingTrialList,1,1,-999999,1,305142,0,1,658,305800,Target1.bmp,lime,1,,,,2,3,60
KW_Experiment5A,28,1,"<?xml version=""1.0""?>\n<Clock xmlns:dt=""urn:schemas-microsoft-com:datatypes""><Description dt:dt=""string"">E-Prime Primary Realtime Clock</Description><StartTime><Timestamp dt:dt=""int"">0</Timestamp><DateUtc dt:dt=""string"">2018-10-17T17:54:44Z</DateUtc></StartTime><FrequencyChanges><FrequencyChange><Frequency dt:dt=""r8"">3215244</Frequency><Timestamp dt:dt=""r8"">7141963505200</Timestamp><Current dt:dt=""r8"">0</Current><DateUtc dt:dt=""string"">2018-10-17T17:54:44Z</DateUtc></FrequencyChange></FrequencyChanges></Clock>\n",KW_Experiment5A-28-1,59.946,1.0.0.105,1,-566463314,Professional,2.0.10.353,2.0.10.353,10/17/2018,10/17/2018 17:54,13:54:44,2.0.10.248,3,2,1,3,,,,,,,,TrainingProc,BlockList,13,2,Distractor1.bmp,1,0,,0,1,306810,400,,0,0,cyan,400,1,400,4,horizontal,cyan,Distractor2.bmp,red,Distractor2.bmp,purple,Distractor1.bmp,lime,Target2.bmp,yellow,Distractor1.bmp,blue,Distractor2.bmp,,,,TrialProc,,TrainingTrialList,1,2,-999999,0,307210,0,2,1046,308256,Target2.bmp,lime,2,,,,4,3,61
KW_Experiment5A,28,1,"<?xml version=""1.0""?>\n<Clock xmlns:dt=""urn:schemas-microsoft-com:datatypes""><Description dt:dt=""string"">E-Prime Primary Realtime Clock</Description><StartTime><Timestamp dt:dt=""int"">0</Timestamp><DateUtc dt:dt=""string"">2018-10-17T17:54:44Z</DateUtc></StartTime><FrequencyChanges><FrequencyChange><Frequency dt:dt=""r8"">3215244</Frequency><Timestamp dt:dt=""r8"">7141963505200</Timestamp><Current dt:dt=""r8"">0</Current><DateUtc dt:dt=""string"">2018-10-17T17:54:44Z</DateUtc></FrequencyChange></FrequencyChanges></Clock>\n",KW_Experiment5A-28-1,59.946,1.0.0.105,1,-566463314,Professional,2.0.10.353,2.0.10.353,10/17/2018,10/17/2018 17:54,13:54:44,2.0.10.248,3,2,1,3,,,,,,,,TrainingProc,BlockList,14,1,Distractor2.bmp,2,0,,0,1,309279,400,,0,0,yellow,400,1,400,,vertical,yellow,Distractor1.bmp,red,Target1.bmp,lime,Distractor2.bmp,purple,Distractor1.bmp,cyan,Distractor1.bmp,blue,Distractor2.bmp,,,,TrialProc,2,TrainingTrialList,1,1,-999999,0,309679,0,1,785,310464,Target1.bmp,red,1,,,,8,3,62
KW_Experiment5A,28,1,"<?xml version=""1.0""?>\n<Clock xmlns:dt=""urn:schemas-microsoft-com:datatypes""><Description dt:dt=""string"">E-Prime Primary Realtime Clock</Description><StartTime><Timestamp dt:dt=""int"">0</Timestamp><DateUtc dt:dt=""string"">2018-10-17T17:54:44Z</DateUtc></StartTime><FrequencyChanges><FrequencyChange><Frequency dt:dt=""r8"">3215244</Frequency><Timestamp dt:dt=""r8"">7141963505200</Timestamp><Current dt:dt=""r8"">0</Current><DateUtc dt:dt=""string"">2018-10-17T17:54:44Z</DateUtc></FrequencyChange></FrequencyChanges></Clock>\n",KW_Experiment5A-28-1,59.946,1.0.0.105,1,-566463314,Professional,2.0.10.353,2.0.10.353,10/17/2018,10/17/2018 17:54,13:54:44,2.0.10.248,3,2,1,3,,,,,,,,TrainingProc,BlockList,15,1,Distractor1.bmp,1,0,,0,1,311481,601,,0,0,red,600,3,600,1,vertical,red,Distractor1.bmp,lime,Target1.bmp,cyan,Distractor1.bmp,yellow,Distractor2.bmp,purple,Distractor1.bmp,blue,Distractor1.bmp,,,,TrialProc,,TrainingTrialList,1,1,-999999,1,312082,0,1,566,312648,Target1.bmp,lime,1,,,,2,3,63
KW_Experiment5A,28,1,"<?xml version=""1.0""?>\n<Clock xmlns:dt=""urn:schemas-microsoft-com:datatypes""><Description dt:dt=""string"">E-Prime Primary Realtime Clock</Description><StartTime><Timestamp dt:dt=""int"">0</Timestamp><DateUtc dt:dt=""string"">2018-10-17T17:54:44Z</DateUtc></StartTime><FrequencyChanges><FrequencyChange><Frequency dt:dt=""r8"">3215244</Frequency><Timestamp dt:dt=""r8"">7141963505200</Timestamp><Current dt:dt=""r8"">0</Current><DateUtc dt:dt=""string"">2018-10-17T17:54:44Z</DateUtc></FrequencyChange></FrequencyChanges></Clock>\n",KW_Experiment5A-28-1,59.946,1.0.0.105,1,-566463314,Professional,2.0.10.353,2.0.10.353,10/17/2018,10/17/2018 17:54,13:54:44,2.0.10.248,3,2,1,3,,,,,,,,TrainingProc,BlockList,16,2,Distractor1.bmp,1,0,,0,1,313666,401,,0,0,cyan,400,1,400,4,horizontal,cyan,Distractor1.bmp,lime,Target2.bmp,blue,Distractor1.bmp,purple,Distractor1.bmp,yellow,Distractor1.bmp,red,Distractor1.bmp,,,,TrialProc,,TrainingTrialList,0,2,-999999,1,314067,0,1,605,314672,Target2.bmp,lime,2,,,,2,3,64
KW_Experiment5A,28,1,"<?xml version=""1.0""?>\n<Clock xmlns:dt=""urn:schemas-microsoft-com:datatypes""><Description dt:dt=""string"">E-Prime Primary Realtime Clock</Description><StartTime><Timestamp dt:dt=""int"">0</Timestamp><DateUtc dt:dt=""string"">2018-10-17T17:54:44Z</DateUtc></StartTime><FrequencyChanges><FrequencyChange><Frequency dt:dt=""r8"">3215244</Frequency><Timestamp dt:dt=""r8"">7141963505200</Timestamp><Current dt:dt=""r8"">0</Current><DateUtc dt:dt=""string"">2018-10-17T17:54:44Z</DateUtc></FrequencyChange></FrequencyChanges></Clock>\n",KW_Experiment5A-28-1,59.946,1.0.0.105,1,-566463314,Professional,2.0.10.353,2.0.10.353,10/17/2018,10/17/2018 17:54,13:54:44,2.0.10.248,3,2,1,3,,,,,,,,TrainingProc,BlockList,17,2,Distractor2.bmp,2,0,,0,1,315685,600,,0,0,purple,600,3,600,5,horizontal,purple,Distractor1.bmp,yellow,Distractor1.bmp,blue,Distractor1.bmp,cyan,Distractor2.bmp,lime,Target2.bmp,red,Distractor2.bmp,,,,TrialProc,,TrainingTrialList,0,2,-999999,0,316285,0,1,899,317184,Target2.bmp,lime,2,,,,5,3,65
KW_Experiment5A,28,1,"<?xml version=""1.0""?>\n<Clock xmlns:dt=""urn:schemas-microsoft-com:datatypes""><Description dt:dt=""string"">E-Prime Primary Realtime Clock</Description><StartTime><Timestamp dt:dt=""int"">0</Timestamp><DateUtc dt:dt=""string"">2018-10-17T17:54:44Z</DateUtc></StartTime><FrequencyChanges><FrequencyChange><Frequency dt:dt=""r8"">3215244</Frequency><Timestamp dt:dt=""r8"">7141963505200</Timestamp><Current dt:dt=""r8"">0</Current><DateUtc dt:dt=""string"">2018-10-17T17:54:44Z</DateUtc></FrequencyChange></FrequencyChanges></Clock>\n",KW_Experiment5A-28-1,59.946,1.0.0.105,1,-566463314,Professional,2.0.10.353,2.0.10.353,10/17/2018,10/17/2018 17:54,13:54:44,2.0.10.248,3,2,1,3,,,,,,,,TrainingProc,BlockList,18,1,Distractor2.bmp,2,0,,0,1,318204,500,,0,0,yellow,500,2,500,,vertical,yellow,Distractor2.bmp,cyan,Distractor2.bmp,purple,Distractor2.bmp,red,Target1.bmp,lime,Distractor2.bmp,blue,Distractor1.bmp,,,,TrialProc,2,TrainingTrialList,1,1,-999999,0,318704,0,1,832,319536,Target1.bmp,red,1,,,,10,3,66
KW_Experiment5A,28,1,"<?xml version=""1.0""?>\n<Clock xmlns:dt=""urn:schemas-microsoft-com:datatypes""><Description dt:dt=""string"">E-Prime Primary Realtime Clock</Description><StartTime><Timestamp dt:dt=""int"">0</Timestamp><DateUtc dt:dt=""string"">2018-10-17T17:54:44Z</DateUtc></StartTime><FrequencyChanges><FrequencyChange><Frequency dt:dt=""r8"">3215244</Frequency><Timestamp dt:dt=""r8"">7141963505200</Timestamp><Current dt:dt=""r8"">0</Current><DateUtc dt:dt=""string"">2018-10-17T17:54:44Z</DateUtc></FrequencyChange></FrequencyChanges></Clock>\n",KW_Experiment5A-28-1,59.946,1.0.0.105,1,-566463314,Professional,2.0.10.353,2.0.10.353,10/17/2018,10/17/2018 17:54,13:54:44,2.0.10.248,3,2,1,3,,,,,,,,TrainingProc,BlockList,19,1,Distractor1.bmp,1,0,,0,1,320556,601,,0,0,cyan,600,3,600,,vertical,cyan,Distractor1.bmp,purple,Distractor1.bmp,yellow,Distractor2.bmp,blue,Distractor2.bmp,red,Target1.bmp,lime,Distractor1.bmp,,,,TrialProc,4,TrainingTrialList,1,1,-999999,1,321157,0,1,483,321640,Target1.bmp,red,1,,,,11,3,67
KW_Experiment5A,28,1,"<?xml version=""1.0""?>\n<Clock xmlns:dt=""urn:schemas-microsoft-com:datatypes""><Description dt:dt=""string"">E-Prime Primary Realtime Clock</Description><StartTime><Timestamp dt:dt=""int"">0</Timestamp><DateUtc dt:dt=""string"">2018-10-17T17:54:44Z</DateUtc></StartTime><FrequencyChanges><FrequencyChange><Frequency dt:dt=""r8"">3215244</Frequency><Timestamp dt:dt=""r8"">7141963505200</Timestamp><Current dt:dt=""r8"">0</Current><DateUtc dt:dt=""string"">2018-10-17T17:54:44Z</DateUtc></FrequencyChange></FrequencyChanges></Clock>\n",KW_Experiment5A-28-1,59.946,1.0.0.105,1,-566463314,Professional,2.0.10.353,2.0.10.353,10/17/2018,10/17/2018 17:54,13:54:44,2.0.10.248,3,2,1,3,,,,,,,,TrainingProc,BlockList,20,2,Distractor2.bmp,2,0,,0,1,322658,400,,0,0,blue,400,1,400,,horizontal,blue,Distractor2.bmp,purple,Distractor2.bmp,cyan,Distractor2.bmp,lime,Distractor1.bmp,yellow,Distractor2.bmp,red,Target2.bmp,,,,TrialProc,3,TrainingTrialList,1,2,-999999,0,323058,0,2,798,323856,Target2.bmp,red,2,,,,12,3,68
KW_Experiment5A,28,1,"<?xml version=""1.0""?>\n<Clock xmlns:dt=""urn:schemas-microsoft-com:datatypes""><Description dt:dt=""string"">E-Prime Primary Realtime Clock</Description><StartTime><Timestamp dt:dt=""int"">0</Timestamp><DateUtc dt:dt=""string"">2018-10-17T17:54:44Z</DateUtc></StartTime><FrequencyChanges><FrequencyChange><Frequency dt:dt=""r8"">3215244</Frequency><Timestamp dt:dt=""r8"">7141963505200</Timestamp><Current dt:dt=""r8"">0</Current><DateUtc dt:dt=""string"">2018-10-17T17:54:44Z</DateUtc></FrequencyChange></FrequencyChanges></Clock>\n",KW_Experiment5A-28-1,59.946,1.0.0.105,1,-566463314,Professional,2.0.10.353,2.0.10.353,10/17/2018,10/17/2018 17:54,13:54:44,2.0.10.248,3,2,1,3,,,,,,,,TrainingProc,BlockList,21,2,Distractor2.bmp,2,0,,0,1,324877,600,,0,0,red,600,3,600,1,horizontal,red,Distractor1.bmp,cyan,Distractor2.bmp,blue,Distractor1.bmp,lime,Target2.bmp,yellow,Distractor2.bmp,purple,Distractor2.bmp,,,,TrialProc,,TrainingTrialList,1,2,-999999,0,325477,0,2,747,326224,Target2.bmp,lime,2,,,,4,3,69
KW_Experiment5A,28,1,"<?xml version=""1.0""?>\n<Clock xmlns:dt=""urn:schemas-microsoft-com:datatypes""><Description dt:dt=""string"">E-Prime Primary Realtime Clock</Description><StartTime><Timestamp dt:dt=""int"">0</Timestamp><DateUtc dt:dt=""string"">2018-10-17T17:54:44Z</DateUtc></StartTime><FrequencyChanges><FrequencyChange><Frequency dt:dt=""r8"">3215244</Frequency><Timestamp dt:dt=""r8"">7141963505200</Timestamp><Current dt:dt=""r8"">0</Current><DateUtc dt:dt=""string"">2018-10-17T17:54:44Z</DateUtc></FrequencyChange></FrequencyChanges></Clock>\n",KW_Experiment5A-28-1,59.946,1.0.0.105,1,-566463314,Professional,2.0.10.353,2.0.10.353,10/17/2018,10/17/2018 17:54,13:54:44,2.0.10.248,3,2,1,3,,,,,,,,TrainingProc,BlockList,22,2,Distractor1.bmp,1,0,,0,1,327246,600,,0,0,yellow,600,3,600,2,horizontal,yellow,Distractor1.bmp,red,Distractor1.bmp,lime,Target2.bmp,cyan,Distractor1.bmp,blue,Distractor1.bmp,purple,Distractor2.bmp,,,,TrialProc,,TrainingTrialList,1,2,-999999,0,327846,0,2,1338,329184,Target2.bmp,lime,2,,,,3,3,70
KW_Experiment5A,28,1,"<?xml version=""1.0""?>\n<Clock xmlns:dt=""urn:schemas-microsoft-com:datatypes""><Description dt:dt=""string"">E-Prime Primary Realtime Clock</Description><StartTime><Timestamp dt:dt=""int"">0</Timestamp><DateUtc dt:dt=""string"">2018-10-17T17:54:44Z</DateUtc></StartTime><FrequencyChanges><FrequencyChange><Frequency dt:dt=""r8"">3215244</Frequency><Timestamp dt:dt=""r8"">7141963505200</Timestamp><Current dt:dt=""r8"">0</Current><DateUtc dt:dt=""string"">2018-10-17T17:54:44Z</DateUtc></FrequencyChange></FrequencyChanges></Clock>\n",KW_Experiment5A-28-1,59.946,1.0.0.105,1,-566463314,Professional,2.0.10.353,2.0.10.353,10/17/2018,10/17/2018 17:54,13:54:44,2.0.10.248,3,2,1,3,,,,,,,,TrainingProc,BlockList,23,2,Distractor2.bmp,2,0,,0,1,330198,401,,0,0,purple,400,1,400,5,horizontal,purple,Distractor1.bmp,red,Distractor1.bmp,lime,Target2.bmp,blue,Distractor2.bmp,yellow,Distractor2.bmp,cyan,Distractor2.bmp,,,,TrialProc,,TrainingTrialList,1,2,-999999,1,330599,0,2,417,331016,Target2.bmp,lime,2,,,,3,3,71
KW_Experiment5A,28,1,"<?xml version=""1.0""?>\n<Clock xmlns:dt=""urn:schemas-microsoft-com:datatypes""><Description dt:dt=""string"">E-Prime Primary Realtime Clock</Description><StartTime><Timestamp dt:dt=""int"">0</Timestamp><DateUtc dt:dt=""string"">2018-10-17T17:54:44Z</DateUtc></StartTime><FrequencyChanges><FrequencyChange><Frequency dt:dt=""r8"">3215244</Frequency><Timestamp dt:dt=""r8"">7141963505200</Timestamp><Current dt:dt=""r8"">0</Current><DateUtc dt:dt=""string"">2018-10-17T17:54:44Z</DateUtc></FrequencyChange></FrequencyChanges></Clock>\n",KW_Experiment5A-28-1,59.946,1.0.0.105,1,-566463314,Professional,2.0.10.353,2.0.10.353,10/17/2018,10/17/2018 17:54,13:54:44,2.0.10.248,3,2,1,3,,,,,,,,TrainingProc,BlockList,24,2,Distractor1.bmp,1,0,,0,1,332033,601,,0,0,cyan,600,3,600,4,horizontal,cyan,Distractor1.bmp,blue,Distractor1.bmp,yellow,Distractor1.bmp,red,Distractor2.bmp,lime,Target2.bmp,purple,Distractor1.bmp,,,,TrialProc,,TrainingTrialList,0,2,-999999,1,332634,0,1,750,333384,Target2.bmp,lime,2,,,,5,3,72
KW_Experiment5A,28,1,"<?xml version=""1.0""?>\n<Clock xmlns:dt=""urn:schemas-microsoft-com:datatypes""><Description dt:dt=""string"">E-Prime Primary Realtime Clock</Description><StartTime><Timestamp dt:dt=""int"">0</Timestamp><DateUtc dt:dt=""string"">2018-10-17T17:54:44Z</DateUtc></StartTime><FrequencyChanges><FrequencyChange><Frequency dt:dt=""r8"">3215244</Frequency><Timestamp dt:dt=""r8"">7141963505200</Timestamp><Current dt:dt=""r8"">0</Current><DateUtc dt:dt=""string"">2018-10-17T17:54:44Z</DateUtc></FrequencyChange></FrequencyChanges></Clock>\n",KW_Experiment5A-28-1,59.946,1.0.0.105,1,-566463314,Professional,2.0.10.353,2.0.10.353,10/17/2018,10/17/2018 17:54,13:54:44,2.0.10.248,3,2,1,3,,,,,,,,TrainingProc,BlockList,25,2,Distractor2.bmp,2,0,,0,1,334402,501,,0,0,red,500,2,500,1,horizontal,red,Distractor2.bmp,purple,Distractor1.bmp,yellow,Distractor2.bmp,cyan,Distractor1.bmp,blue,Distractor1.bmp,lime,Target2.bmp,,,,TrialProc,,TrainingTrialList,1,2,-999999,1,334903,0,2,417,335320,Target2.bmp,lime,2,,,,6,4,73
KW_Experiment5A,28,1,"<?xml version=""1.0""?>\n<Clock xmlns:dt=""urn:schemas-microsoft-com:datatypes""><Description dt:dt=""string"">E-Prime Primary Realtime Clock</Description><StartTime><Timestamp dt:dt=""int"">0</Timestamp><DateUtc dt:dt=""string"">2018-10-17T17:54:44Z</DateUtc></StartTime><FrequencyChanges><FrequencyChange><Frequency dt:dt=""r8"">3215244</Frequency><Timestamp dt:dt=""r8"">7141963505200</Timestamp><Current dt:dt=""r8"">0</Current><DateUtc dt:dt=""string"">2018-10-17T17:54:44Z</DateUtc></FrequencyChange></FrequencyChanges></Clock>\n",KW_Experiment5A-28-1,59.946,1.0.0.105,1,-566463314,Professional,2.0.10.353,2.0.10.353,10/17/2018,10/17/2018 17:54,13:54:44,2.0.10.248,3,2,1,3,,,,,,,,TrainingProc,BlockList,26,2,Distractor2.bmp,2,0,,0,1,336337,401,,0,0,purple,400,1,400,5,horizontal,purple,Distractor1.bmp,cyan,Distractor2.bmp,red,Distractor2.bmp,blue,Distractor2.bmp,lime,Target2.bmp,yellow,Distractor2.bmp,,,,TrialProc,,TrainingTrialList,1,2,-999999,1,336738,0,2,830,337568,Target2.bmp,lime,2,,,,5,4,74
KW_Experiment5A,28,1,"<?xml version=""1.0""?>\n<Clock xmlns:dt=""urn:schemas-microsoft-com:datatypes""><Description dt:dt=""string"">E-Prime Primary Realtime Clock</Description><StartTime><Timestamp dt:dt=""int"">0</Timestamp><DateUtc dt:dt=""string"">2018-10-17T17:54:44Z</DateUtc></StartTime><FrequencyChanges><FrequencyChange><Frequency dt:dt=""r8"">3215244</Frequency><Timestamp dt:dt=""r8"">7141963505200</Timestamp><Current dt:dt=""r8"">0</Current><DateUtc dt:dt=""string"">2018-10-17T17:54:44Z</DateUtc></FrequencyChange></FrequencyChanges></Clock>\n",KW_Experiment5A-28-1,59.946,1.0.0.105,1,-566463314,Professional,2.0.10.353,2.0.10.353,10/17/2018,10/17/2018 17:54,13:54:44,2.0.10.248,3,2,1,3,,,,,,,,TrainingProc,BlockList,27,1,Distractor1.bmp,1,0,,0,1,338589,401,,0,0,blue,400,1,400,3,vertical,blue,Distractor1.bmp,lime,Target1.bmp,red,Distractor1.bmp,purple,Distractor2.bmp,cyan,Distractor2.bmp,yellow,Distractor1.bmp,,,,TrialProc,,TrainingTrialList,0,1,-999999,1,338990,0,2,1050,340040,Target1.bmp,lime,1,,,,2,4,75
KW_Experiment5A,28,1,"<?xml version=""1.0""?>\n<Clock xmlns:dt=""urn:schemas-microsoft-com:datatypes""><Description dt:dt=""string"">E-Prime Primary Realtime Clock</Description><StartTime><Timestamp dt:dt=""int"">0</Timestamp><DateUtc dt:dt=""string"">2018-10-17T17:54:44Z</DateUtc></StartTime><FrequencyChanges><FrequencyChange><Frequency dt:dt=""r8"">3215244</Frequency><Timestamp dt:dt=""r8"">7141963505200</Timestamp><Current dt:dt=""r8"">0</Current><DateUtc dt:dt=""string"">2018-10-17T17:54:44Z</DateUtc></FrequencyChange></FrequencyChanges></Clock>\n",KW_Experiment5A-28-1,59.946,1.0.0.105,1,-566463314,Professional,2.0.10.353,2.0.10.353,10/17/2018,10/17/2018 17:54,13:54:44,2.0.10.248,3,2,1,3,,,,,,,,TrainingProc,BlockList,28,2,Distractor1.bmp,1,0,,0,1,341058,401,,0,0,blue,400,1,400,,horizontal,blue,Distractor1.bmp,yellow,Distractor2.bmp,lime,Distractor1.bmp,purple,Distractor2.bmp,red,Target2.bmp,cyan,Distractor1.bmp,,,,TrialProc,3,TrainingTrialList,1,2,-999999,1,341459,0,2,1109,342568,Target2.bmp,red,2,,,,11,4,76
KW_Experiment5A,28,1,"<?xml version=""1.0""?>\n<Clock xmlns:dt=""urn:schemas-microsoft-com:datatypes""><Description dt:dt=""string"">E-Prime Primary Realtime Clock</Description><StartTime><Timestamp dt:dt=""int"">0</Timestamp><DateUtc dt:dt=""string"">2018-10-17T17:54:44Z</DateUtc></StartTime><FrequencyChanges><FrequencyChange><Frequency dt:dt=""r8"">3215244</Frequency><Timestamp dt:dt=""r8"">7141963505200</Timestamp><Current dt:dt=""r8"">0</Current><DateUtc dt:dt=""string"">2018-10-17T17:54:44Z</DateUtc></FrequencyChange></FrequencyChanges></Clock>\n",KW_Experiment5A-28-1,59.946,1.0.0.105,1,-566463314,Professional,2.0.10.353,2.0.10.353,10/17/2018,10/17/2018 17:54,13:54:44,2.0.10.248,3,2,1,3,,,,,,,,TrainingProc,BlockList,29,1,Distractor1.bmp,1,0,,0,1,343594,500,,0,0,yellow,500,2,500,2,vertical,yellow,Distractor1.bmp,cyan,Distractor1.bmp,lime,Target1.bmp,red,Distractor1.bmp,purple,Distractor2.bmp,blue,Distractor1.bmp,,,,TrialProc,,TrainingTrialList,1,1,-999999,0,344094,0,1,994,345088,Target1.bmp,lime,1,,,,3,4,77
KW_Experiment5A,28,1,"<?xml version=""1.0""?>\n<Clock xmlns:dt=""urn:schemas-microsoft-com:datatypes""><Description dt:dt=""string"">E-Prime Primary Realtime Clock</Description><StartTime><Timestamp dt:dt=""int"">0</Timestamp><DateUtc dt:dt=""string"">2018-10-17T17:54:44Z</DateUtc></StartTime><FrequencyChanges><FrequencyChange><Frequency dt:dt=""r8"">3215244</Frequency><Timestamp dt:dt=""r8"">7141963505200</Timestamp><Current dt:dt=""r8"">0</Current><DateUtc dt:dt=""string"">2018-10-17T17:54:44Z</DateUtc></FrequencyChange></FrequencyChanges></Clock>\n",KW_Experiment5A-28-1,59.946,1.0.0.105,1,-566463314,Professional,2.0.10.353,2.0.10.353,10/17/2018,10/17/2018 17:54,13:54:44,2.0.10.248,3,2,1,3,,,,,,,,TrainingProc,BlockList,30,2,Distractor2.bmp,2,0,,0,1,346113,600,,0,0,blue,600,3,600,,horizontal,blue,Distractor2.bmp,cyan,Distractor1.bmp,yellow,Distractor2.bmp,purple,Distractor2.bmp,lime,Distractor2.bmp,red,Target2.bmp,,,,TrialProc,3,TrainingTrialList,1,2,-999999,0,346713,0,2,687,347400,Target2.bmp,red,2,,,,12,4,78
KW_Experiment5A,28,1,"<?xml version=""1.0""?>\n<Clock xmlns:dt=""urn:schemas-microsoft-com:datatypes""><Description dt:dt=""string"">E-Prime Primary Realtime Clock</Description><StartTime><Timestamp dt:dt=""int"">0</Timestamp><DateUtc dt:dt=""string"">2018-10-17T17:54:44Z</DateUtc></StartTime><FrequencyChanges><FrequencyChange><Frequency dt:dt=""r8"">3215244</Frequency><Timestamp dt:dt=""r8"">7141963505200</Timestamp><Current dt:dt=""r8"">0</Current><DateUtc dt:dt=""string"">2018-10-17T17:54:44Z</DateUtc></FrequencyChange></FrequencyChanges></Clock>\n",KW_Experiment5A-28-1,59.946,1.0.0.105,1,-566463314,Professional,2.0.10.353,2.0.10.353,10/17/2018,10/17/2018 17:54,13:54:44,2.0.10.248,3,2,1,3,,,,,,,,TrainingProc,BlockList,31,2,Distractor2.bmp,2,0,,0,1,348415,501,,0,0,blue,500,2,500,,horizontal,red,Target2.bmp,cyan,Distractor2.bmp,yellow,Distractor2.bmp,lime,Distractor1.bmp,purple,Distractor2.bmp,blue,Distractor2.bmp,,,,TrialProc,3,TrainingTrialList,1,2,-999999,1,348916,0,2,484,349400,Target2.bmp,red,2,,,,7,4,79
KW_Experiment5A,28,1,"<?xml version=""1.0""?>\n<Clock xmlns:dt=""urn:schemas-microsoft-com:datatypes""><Description dt:dt=""string"">E-Prime Primary Realtime Clock</Description><StartTime><Timestamp dt:dt=""int"">0</Timestamp><DateUtc dt:dt=""string"">2018-10-17T17:54:44Z</DateUtc></StartTime><FrequencyChanges><FrequencyChange><Frequency dt:dt=""r8"">3215244</Frequency><Timestamp dt:dt=""r8"">7141963505200</Timestamp><Current dt:dt=""r8"">0</Current><DateUtc dt:dt=""string"">2018-10-17T17:54:44Z</DateUtc></FrequencyChange></FrequencyChanges></Clock>\n",KW_Experiment5A-28-1,59.946,1.0.0.105,1,-566463314,Professional,2.0.10.353,2.0.10.353,10/17/2018,10/17/2018 17:54,13:54:44,2.0.10.248,3,2,1,3,,,,,,,,TrainingProc,BlockList,32,1,Distractor1.bmp,1,0,,0,1,350417,500,,0,0,purple,500,2,500,5,vertical,purple,Distractor1.bmp,lime,Target1.bmp,blue,Distractor1.bmp,red,Distractor1.bmp,yellow,Distractor2.bmp,cyan,Distractor2.bmp,,,,TrialProc,,TrainingTrialList,1,1,-999999,0,350917,0,1,627,351544,Target1.bmp,lime,1,,,,2,4,80
KW_Experiment5A,28,1,"<?xml version=""1.0""?>\n<Clock xmlns:dt=""urn:schemas-microsoft-com:datatypes""><Description dt:dt=""string"">E-Prime Primary Realtime Clock</Description><StartTime><Timestamp dt:dt=""int"">0</Timestamp><DateUtc dt:dt=""string"">2018-10-17T17:54:44Z</DateUtc></StartTime><FrequencyChanges><FrequencyChange><Frequency dt:dt=""r8"">3215244</Frequency><Timestamp dt:dt=""r8"">7141963505200</Timestamp><Current dt:dt=""r8"">0</Current><DateUtc dt:dt=""string"">2018-10-17T17:54:44Z</DateUtc></FrequencyChange></FrequencyChanges></Clock>\n",KW_Experiment5A-28-1,59.946,1.0.0.105,1,-566463314,Professional,2.0.10.353,2.0.10.353,10/17/2018,10/17/2018 17:54,13:54:44,2.0.10.248,3,2,1,3,,,,,,,,TrainingProc,BlockList,33,2,Distractor1.bmp,1,0,,0,1,352569,400,,0,0,purple,400,1,400,5,horizontal,purple,Distractor2.bmp,blue,Distractor2.bmp,red,Distractor2.bmp,cyan,Distractor2.bmp,lime,Target2.bmp,yellow,Distractor1.bmp,,,,TrialProc,,TrainingTrialList,1,2,-999999,0,352969,0,2,711,353680,Target2.bmp,lime,2,,,,5,4,81
KW_Experiment5A,28,1,"<?xml version=""1.0""?>\n<Clock xmlns:dt=""urn:schemas-microsoft-com:datatypes""><Description dt:dt=""string"">E-Prime Primary Realtime Clock</Description><StartTime><Timestamp dt:dt=""int"">0</Timestamp><DateUtc dt:dt=""string"">2018-10-17T17:54:44Z</DateUtc></StartTime><FrequencyChanges><FrequencyChange><Frequency dt:dt=""r8"">3215244</Frequency><Timestamp dt:dt=""r8"">7141963505200</Timestamp><Current dt:dt=""r8"">0</Current><DateUtc dt:dt=""string"">2018-10-17T17:54:44Z</DateUtc></FrequencyChange></FrequencyChanges></Clock>\n",KW_Experiment5A-28-1,59.946,1.0.0.105,1,-566463314,Professional,2.0.10.353,2.0.10.353,10/17/2018,10/17/2018 17:54,13:54:44,2.0.10.248,3,2,1,3,,,,,,,,TrainingProc,BlockList,34,2,Distractor1.bmp,1,0,,0,1,354704,601,,0,0,purple,600,3,600,5,horizontal,purple,Distractor2.bmp,blue,Distractor2.bmp,yellow,Distractor1.bmp,lime,Target2.bmp,cyan,Distractor1.bmp,red,Distractor2.bmp,,,,TrialProc,,TrainingTrialList,1,2,-999999,1,355305,0,2,615,355920,Target2.bmp,lime,2,,,,4,4,82
KW_Experiment5A,28,1,"<?xml version=""1.0""?>\n<Clock xmlns:dt=""urn:schemas-microsoft-com:datatypes""><Description dt:dt=""string"">E-Prime Primary Realtime Clock</Description><StartTime><Timestamp dt:dt=""int"">0</Timestamp><DateUtc dt:dt=""string"">2018-10-17T17:54:44Z</DateUtc></StartTime><FrequencyChanges><FrequencyChange><Frequency dt:dt=""r8"">3215244</Frequency><Timestamp dt:dt=""r8"">7141963505200</Timestamp><Current dt:dt=""r8"">0</Current><DateUtc dt:dt=""string"">2018-10-17T17:54:44Z</DateUtc></FrequencyChange></FrequencyChanges></Clock>\n",KW_Experiment5A-28-1,59.946,1.0.0.105,1,-566463314,Professional,2.0.10.353,2.0.10.353,10/17/2018,10/17/2018 17:54,13:54:44,2.0.10.248,3,2,1,3,,,,,,,,TrainingProc,BlockList,35,2,Distractor1.bmp,1,0,,0,1,356940,600,,0,0,purple,600,3,600,5,horizontal,lime,Target2.bmp,purple,Distractor1.bmp,red,Distractor2.bmp,yellow,Distractor2.bmp,blue,Distractor2.bmp,cyan,Distractor2.bmp,,,,TrialProc,,TrainingTrialList,1,2,-999999,0,357540,0,2,668,358208,Target2.bmp,lime,2,,,,1,4,83
KW_Experiment5A,28,1,"<?xml version=""1.0""?>\n<Clock xmlns:dt=""urn:schemas-microsoft-com:datatypes""><Description dt:dt=""string"">E-Prime Primary Realtime Clock</Description><StartTime><Timestamp dt:dt=""int"">0</Timestamp><DateUtc dt:dt=""string"">2018-10-17T17:54:44Z</DateUtc></StartTime><FrequencyChanges><FrequencyChange><Frequency dt:dt=""r8"">3215244</Frequency><Timestamp dt:dt=""r8"">7141963505200</Timestamp><Current dt:dt=""r8"">0</Current><DateUtc dt:dt=""string"">2018-10-17T17:54:44Z</DateUtc></FrequencyChange></FrequencyChanges></Clock>\n",KW_Experiment5A-28-1,59.946,1.0.0.105,1,-566463314,Professional,2.0.10.353,2.0.10.353,10/17/2018,10/17/2018 17:54,13:54:44,2.0.10.248,3,2,1,3,,,,,,,,TrainingProc,BlockList,36,1,Distractor1.bmp,1,0,,0,1,359225,500,,0,0,red,500,2,500,1,vertical,red,Distractor1.bmp,purple,Distractor1.bmp,blue,Distractor2.bmp,lime,Target1.bmp,yellow,Distractor1.bmp,cyan,Distractor1.bmp,,,,TrialProc,,TrainingTrialList,1,1,-999999,0,359725,0,1,659,360384,Target1.bmp,lime,1,,,,4,4,84
KW_Experiment5A,28,1,"<?xml version=""1.0""?>\n<Clock xmlns:dt=""urn:schemas-microsoft-com:datatypes""><Description dt:dt=""string"">E-Prime Primary Realtime Clock</Description><StartTime><Timestamp dt:dt=""int"">0</Timestamp><DateUtc dt:dt=""string"">2018-10-17T17:54:44Z</DateUtc></StartTime><FrequencyChanges><FrequencyChange><Frequency dt:dt=""r8"">3215244</Frequency><Timestamp dt:dt=""r8"">7141963505200</Timestamp><Current dt:dt=""r8"">0</Current><DateUtc dt:dt=""string"">2018-10-17T17:54:44Z</DateUtc></FrequencyChange></FrequencyChanges></Clock>\n",KW_Experiment5A-28-1,59.946,1.0.0.105,1,-566463314,Professional,2.0.10.353,2.0.10.353,10/17/2018,10/17/2018 17:54,13:54:44,2.0.10.248,3,2,1,3,,,,,,,,TrainingProc,BlockList,37,1,Distractor2.bmp,2,0,,0,1,361394,600,,0,0,purple,600,3,600,5,vertical,lime,Target1.bmp,purple,Distractor2.bmp,red,Distractor2.bmp,yellow,Distractor1.bmp,blue,Distractor1.bmp,cyan,Distractor2.bmp,,,,TrialProc,,TrainingTrialList,1,1,-999999,0,361994,0,1,870,362864,Target1.bmp,lime,1,,,,1,4,85
KW_Experiment5A,28,1,"<?xml version=""1.0""?>\n<Clock xmlns:dt=""urn:schemas-microsoft-com:datatypes""><Description dt:dt=""string"">E-Prime Primary Realtime Clock</Description><StartTime><Timestamp dt:dt=""int"">0</Timestamp><DateUtc dt:dt=""string"">2018-10-17T17:54:44Z</DateUtc></StartTime><FrequencyChanges><FrequencyChange><Frequency dt:dt=""r8"">3215244</Frequency><Timestamp dt:dt=""r8"">7141963505200</Timestamp><Current dt:dt=""r8"">0</Current><DateUtc dt:dt=""string"">2018-10-17T17:54:44Z</DateUtc></FrequencyChange></FrequencyChanges></Clock>\n",KW_Experiment5A-28-1,59.946,1.0.0.105,1,-566463314,Professional,2.0.10.353,2.0.10.353,10/17/2018,10/17/2018 17:54,13:54:44,2.0.10.248,3,2,1,3,,,,,,,,TrainingProc,BlockList,38,1,Distractor2.bmp,2,0,,0,1,363879,401,,0,0,cyan,400,1,400,4,vertical,lime,Target1.bmp,cyan,Distractor2.bmp,purple,Distractor2.bmp,blue,Distractor2.bmp,red,Distractor2.bmp,yellow,Distractor1.bmp,,,,TrialProc,,TrainingTrialList,1,1,-999999,1,364280,0,1,592,364872,Target1.bmp,lime,1,,,,1,4,86
KW_Experiment5A,28,1,"<?xml version=""1.0""?>\n<Clock xmlns:dt=""urn:schemas-microsoft-com:datatypes""><Description dt:dt=""string"">E-Prime Primary Realtime Clock</Description><StartTime><Timestamp dt:dt=""int"">0</Timestamp><DateUtc dt:dt=""string"">2018-10-17T17:54:44Z</DateUtc></StartTime><FrequencyChanges><FrequencyChange><Frequency dt:dt=""r8"">3215244</Frequency><Timestamp dt:dt=""r8"">7141963505200</Timestamp><Current dt:dt=""r8"">0</Current><DateUtc dt:dt=""string"">2018-10-17T17:54:44Z</DateUtc></FrequencyChange></FrequencyChanges></Clock>\n",KW_Experiment5A-28-1,59.946,1.0.0.105,1,-566463314,Professional,2.0.10.353,2.0.10.353,10/17/2018,10/17/2018 17:54,13:54:44,2.0.10.248,3,2,1,3,,,,,,,,TrainingProc,BlockList,39,2,Distractor1.bmp,1,0,,0,1,365881,501,,0,0,yellow,500,2,500,2,horizontal,yellow,Distractor2.bmp,purple,Distractor2.bmp,blue,Distractor1.bmp,cyan,Distractor1.bmp,lime,Target2.bmp,red,Distractor1.bmp,,,,TrialProc,,TrainingTrialList,0,2,-999999,1,366382,0,1,514,366896,Target2.bmp,lime,2,,,,5,4,87
KW_Experiment5A,28,1,"<?xml version=""1.0""?>\n<Clock xmlns:dt=""urn:schemas-microsoft-com:datatypes""><Description dt:dt=""string"">E-Prime Primary Realtime Clock</Description><StartTime><Timestamp dt:dt=""int"">0</Timestamp><DateUtc dt:dt=""string"">2018-10-17T17:54:44Z</DateUtc></StartTime><FrequencyChanges><FrequencyChange><Frequency dt:dt=""r8"">3215244</Frequency><Timestamp dt:dt=""r8"">7141963505200</Timestamp><Current dt:dt=""r8"">0</Current><DateUtc dt:dt=""string"">2018-10-17T17:54:44Z</DateUtc></FrequencyChange></FrequencyChanges></Clock>\n",KW_Experiment5A-28-1,59.946,1.0.0.105,1,-566463314,Professional,2.0.10.353,2.0.10.353,10/17/2018,10/17/2018 17:54,13:54:44,2.0.10.248,3,2,1,3,,,,,,,,TrainingProc,BlockList,40,2,Distractor1.bmp,1,0,,0,1,367916,501,,0,0,cyan,500,2,500,,horizontal,cyan,Distractor2.bmp,blue,Distractor2.bmp,lime,Distractor1.bmp,red,Target2.bmp,yellow,Distractor1.bmp,purple,Distractor1.bmp,,,,TrialProc,4,TrainingTrialList,1,2,-999999,1,368417,0,2,1503,369920,Target2.bmp,red,2,,,,10,4,88
KW_Experiment5A,28,1,"<?xml version=""1.0""?>\n<Clock xmlns:dt=""urn:schemas-microsoft-com:datatypes""><Description dt:dt=""string"">E-Prime Primary Realtime Clock</Description><StartTime><Timestamp dt:dt=""int"">0</Timestamp><DateUtc dt:dt=""string"">2018-10-17T17:54:44Z</DateUtc></StartTime><FrequencyChanges><FrequencyChange><Frequency dt:dt=""r8"">3215244</Frequency><Timestamp dt:dt=""r8"">7141963505200</Timestamp><Current dt:dt=""r8"">0</Current><DateUtc dt:dt=""string"">2018-10-17T17:54:44Z</DateUtc></FrequencyChange></FrequencyChanges></Clock>\n",KW_Experiment5A-28-1,59.946,1.0.0.105,1,-566463314,Professional,2.0.10.353,2.0.10.353,10/17/2018,10/17/2018 17:54,13:54:44,2.0.10.248,3,2,1,3,,,,,,,,TrainingProc,BlockList,41,1,Distractor2.bmp,2,0,,0,1,370936,600,,0,0,lime,600,3,600,,vertical,lime,Distractor2.bmp,yellow,Distractor2.bmp,red,Target1.bmp,purple,Distractor2.bmp,cyan,Distractor1.bmp,blue,Distractor2.bmp,,,,TrialProc,6,TrainingTrialList,1,1,-999999,0,371536,0,1,1224,372760,Target1.bmp,red,1,,,,9,4,89
KW_Experiment5A,28,1,"<?xml version=""1.0""?>\n<Clock xmlns:dt=""urn:schemas-microsoft-com:datatypes""><Description dt:dt=""string"">E-Prime Primary Realtime Clock</Description><StartTime><Timestamp dt:dt=""int"">0</Timestamp><DateUtc dt:dt=""string"">2018-10-17T17:54:44Z</DateUtc></StartTime><FrequencyChanges><FrequencyChange><Frequency dt:dt=""r8"">3215244</Frequency><Timestamp dt:dt=""r8"">7141963505200</Timestamp><Current dt:dt=""r8"">0</Current><DateUtc dt:dt=""string"">2018-10-17T17:54:44Z</DateUtc></FrequencyChange></FrequencyChanges></Clock>\n",KW_Experiment5A-28-1,59.946,1.0.0.105,1,-566463314,Professional,2.0.10.353,2.0.10.353,10/17/2018,10/17/2018 17:54,13:54:44,2.0.10.248,3,2,1,3,,,,,,,,TrainingProc,BlockList,42,2,Distractor1.bmp,1,0,,0,1,373772,500,,0,0,cyan,500,2,500,4,horizontal,cyan,Distractor1.bmp,yellow,Distractor1.bmp,lime,Target2.bmp,purple,Distractor1.bmp,red,Distractor1.bmp,blue,Distractor1.bmp,,,,TrialProc,,TrainingTrialList,1,2,-999999,0,374272,0,2,648,374920,Target2.bmp,lime,2,,,,3,4,90
