ExperimentName,Subject,Session,Clock.Information,DataFile.Basename,Display.RefreshRate,ExperimentVersion,Group,RandomSeed,RuntimeCapabilities,RuntimeVersion,RuntimeVersionExpected,SessionDate,SessionStartDateTimeUtc,SessionTime,StudioVersion,Block,BlockList,BlockList.Cycle,BlockList.Sample,PostTestQ1.RESP,PostTestQ1CJ.RESP,PostTestQ2.RESP,PostTestQ2CJ.RESP,PostTestQ3.RESP,PostTestQ3CJ.RESP,PostTestSlide.RESP,Procedure[Block],Running[Block],Trial,CorrectResponse,Distractor,DistractorList,Fixation.ACC,Fixation.CRESP,Fixation.DurationError,Fixation.OnsetDelay,Fixation.OnsetTime,Fixation.OnsetToOnsetTime,Fixation.RESP,Fixation.RT,Fixation.RTTime,ItemColor,Jitter,JitterList,JitterTime,Lime0List,Orientation,Pos1Color,Pos1Item,Pos2Color,Pos2Item,Pos3Color,Pos3Item,Pos4Color,Pos4Item,Pos5Color,Pos5Item,Pos6Color,Pos6Item,PracticeTrialList,PracticeTrialList.Cycle,PracticeTrialList.Sample,Procedure[Trial],Red0List,Running[Trial],Stimulus.ACC,Stimulus.CRESP,Stimulus.DurationError,Stimulus.OnsetDelay,Stimulus.OnsetTime,Stimulus.OnsetToOnsetTime,Stimulus.RESP,Stimulus.RT,Stimulus.RTTime,Target,TargetColor,TargetList,TestTrialList,TestTrialList.Cycle,TestTrialList.Sample,TrainingTrialList,TrainingTrialList.Cycle,TrainingTrialList.Sample
KW_Experiment5A,9,1,"<?xml version=""1.0""?>\n<Clock xmlns:dt=""urn:schemas-microsoft-com:datatypes""><Description dt:dt=""string"">E-Prime Primary Realtime Clock</Description><StartTime><Timestamp dt:dt=""int"">0</Timestamp><DateUtc dt:dt=""string"">2018-10-10T17:09:17Z</DateUtc></StartTime><FrequencyChanges><FrequencyChange><Frequency dt:dt=""r8"">3215292</Frequency><Timestamp dt:dt=""r8"">3905219894117</Timestamp><Current dt:dt=""r8"">0</Current><DateUtc dt:dt=""string"">2018-10-10T17:09:17Z</DateUtc></FrequencyChange></FrequencyChanges></Clock>\n",KW_Experiment5A-9-1,59.944,1.0.0.105,1,1095277310,Professional,2.0.10.353,2.0.10.353,10/10/2018,10/10/2018 17:09,13:09:17,2.0.10.248,1,1,1,1,,,,,,,,PracticeProc,BlockList,1,1,Distractor2.bmp,2,0,,0,44,344745,600,,0,0,blue,600,3,600,3,vertical,lime,Target1.bmp,purple,Distractor2.bmp,red,Distractor2.bmp,yellow,Distractor2.bmp,cyan,Distractor2.bmp,blue,Distractor1.bmp,1,1,1,TrialProc,,PracticeTrialList,1,1,-999999,0,345345,0,1,2723,348068,Target1.bmp,lime,1,,,,,,
KW_Experiment5A,9,1,"<?xml version=""1.0""?>\n<Clock xmlns:dt=""urn:schemas-microsoft-com:datatypes""><Description dt:dt=""string"">E-Prime Primary Realtime Clock</Description><StartTime><Timestamp dt:dt=""int"">0</Timestamp><DateUtc dt:dt=""string"">2018-10-10T17:09:17Z</DateUtc></StartTime><FrequencyChanges><FrequencyChange><Frequency dt:dt=""r8"">3215292</Frequency><Timestamp dt:dt=""r8"">3905219894117</Timestamp><Current dt:dt=""r8"">0</Current><DateUtc dt:dt=""string"">2018-10-10T17:09:17Z</DateUtc></FrequencyChange></FrequencyChanges></Clock>\n",KW_Experiment5A-9-1,59.944,1.0.0.105,1,1095277310,Professional,2.0.10.353,2.0.10.353,10/10/2018,10/10/2018 17:09,13:09:17,2.0.10.248,1,1,1,1,,,,,,,,PracticeProc,BlockList,2,1,Distractor1.bmp,1,0,,0,1,349082,400,,0,0,lime,400,1,400,,vertical,lime,Distractor2.bmp,red,Target1.bmp,blue,Distractor1.bmp,purple,Distractor2.bmp,cyan,Distractor1.bmp,yellow,Distractor1.bmp,2,1,2,TrialProc,6,PracticeTrialList,1,1,-999999,0,349482,0,1,882,350364,Target1.bmp,red,1,,,,,,
KW_Experiment5A,9,1,"<?xml version=""1.0""?>\n<Clock xmlns:dt=""urn:schemas-microsoft-com:datatypes""><Description dt:dt=""string"">E-Prime Primary Realtime Clock</Description><StartTime><Timestamp dt:dt=""int"">0</Timestamp><DateUtc dt:dt=""string"">2018-10-10T17:09:17Z</DateUtc></StartTime><FrequencyChanges><FrequencyChange><Frequency dt:dt=""r8"">3215292</Frequency><Timestamp dt:dt=""r8"">3905219894117</Timestamp><Current dt:dt=""r8"">0</Current><DateUtc dt:dt=""string"">2018-10-10T17:09:17Z</DateUtc></FrequencyChange></FrequencyChanges></Clock>\n",KW_Experiment5A-9-1,59.944,1.0.0.105,1,1095277310,Professional,2.0.10.353,2.0.10.353,10/10/2018,10/10/2018 17:09,13:09:17,2.0.10.248,1,1,1,1,,,,,,,,PracticeProc,BlockList,3,1,Distractor2.bmp,2,0,,0,1,351384,601,,0,0,cyan,600,3,600,,vertical,blue,Distractor2.bmp,purple,Distractor1.bmp,lime,Distractor1.bmp,yellow,Distractor2.bmp,cyan,Distractor1.bmp,red,Target1.bmp,6,1,3,TrialProc,4,PracticeTrialList,1,1,-999999,1,351985,0,1,1723,353708,Target1.bmp,red,1,,,,,,
KW_Experiment5A,9,1,"<?xml version=""1.0""?>\n<Clock xmlns:dt=""urn:schemas-microsoft-com:datatypes""><Description dt:dt=""string"">E-Prime Primary Realtime Clock</Description><StartTime><Timestamp dt:dt=""int"">0</Timestamp><DateUtc dt:dt=""string"">2018-10-10T17:09:17Z</DateUtc></StartTime><FrequencyChanges><FrequencyChange><Frequency dt:dt=""r8"">3215292</Frequency><Timestamp dt:dt=""r8"">3905219894117</Timestamp><Current dt:dt=""r8"">0</Current><DateUtc dt:dt=""string"">2018-10-10T17:09:17Z</DateUtc></FrequencyChange></FrequencyChanges></Clock>\n",KW_Experiment5A-9-1,59.944,1.0.0.105,1,1095277310,Professional,2.0.10.353,2.0.10.353,10/10/2018,10/10/2018 17:09,13:09:17,2.0.10.248,1,1,1,1,,,,,,,,PracticeProc,BlockList,4,1,Distractor1.bmp,1,0,,0,1,354737,601,,0,0,cyan,600,3,600,,vertical,purple,Distractor2.bmp,yellow,Distractor1.bmp,cyan,Distractor1.bmp,red,Target1.bmp,blue,Distractor1.bmp,lime,Distractor2.bmp,4,1,4,TrialProc,4,PracticeTrialList,1,1,-999999,1,355338,0,1,1290,356628,Target1.bmp,red,1,,,,,,
KW_Experiment5A,9,1,"<?xml version=""1.0""?>\n<Clock xmlns:dt=""urn:schemas-microsoft-com:datatypes""><Description dt:dt=""string"">E-Prime Primary Realtime Clock</Description><StartTime><Timestamp dt:dt=""int"">0</Timestamp><DateUtc dt:dt=""string"">2018-10-10T17:09:17Z</DateUtc></StartTime><FrequencyChanges><FrequencyChange><Frequency dt:dt=""r8"">3215292</Frequency><Timestamp dt:dt=""r8"">3905219894117</Timestamp><Current dt:dt=""r8"">0</Current><DateUtc dt:dt=""string"">2018-10-10T17:09:17Z</DateUtc></FrequencyChange></FrequencyChanges></Clock>\n",KW_Experiment5A-9-1,59.944,1.0.0.105,1,1095277310,Professional,2.0.10.353,2.0.10.353,10/10/2018,10/10/2018 17:09,13:09:17,2.0.10.248,1,1,1,1,,,,,,,,PracticeProc,BlockList,5,1,Distractor2.bmp,2,0,,0,1,357640,400,,0,0,blue,400,1,400,3,vertical,purple,Distractor1.bmp,blue,Distractor2.bmp,lime,Target1.bmp,cyan,Distractor2.bmp,yellow,Distractor2.bmp,red,Distractor1.bmp,3,1,5,TrialProc,,PracticeTrialList,1,1,-999999,0,358040,0,1,1004,359044,Target1.bmp,lime,1,,,,,,
KW_Experiment5A,9,1,"<?xml version=""1.0""?>\n<Clock xmlns:dt=""urn:schemas-microsoft-com:datatypes""><Description dt:dt=""string"">E-Prime Primary Realtime Clock</Description><StartTime><Timestamp dt:dt=""int"">0</Timestamp><DateUtc dt:dt=""string"">2018-10-10T17:09:17Z</DateUtc></StartTime><FrequencyChanges><FrequencyChange><Frequency dt:dt=""r8"">3215292</Frequency><Timestamp dt:dt=""r8"">3905219894117</Timestamp><Current dt:dt=""r8"">0</Current><DateUtc dt:dt=""string"">2018-10-10T17:09:17Z</DateUtc></FrequencyChange></FrequencyChanges></Clock>\n",KW_Experiment5A-9-1,59.944,1.0.0.105,1,1095277310,Professional,2.0.10.353,2.0.10.353,10/10/2018,10/10/2018 17:09,13:09:17,2.0.10.248,1,1,1,1,,,,,,,,PracticeProc,BlockList,6,2,Distractor1.bmp,1,0,,0,1,360059,500,,0,0,cyan,500,2,500,4,horizontal,purple,Distractor1.bmp,blue,Distractor2.bmp,yellow,Distractor2.bmp,cyan,Distractor2.bmp,lime,Target2.bmp,red,Distractor1.bmp,5,1,6,TrialProc,,PracticeTrialList,1,2,-999999,0,360559,0,2,1653,362212,Target2.bmp,lime,2,,,,,,
KW_Experiment5A,9,1,"<?xml version=""1.0""?>\n<Clock xmlns:dt=""urn:schemas-microsoft-com:datatypes""><Description dt:dt=""string"">E-Prime Primary Realtime Clock</Description><StartTime><Timestamp dt:dt=""int"">0</Timestamp><DateUtc dt:dt=""string"">2018-10-10T17:09:17Z</DateUtc></StartTime><FrequencyChanges><FrequencyChange><Frequency dt:dt=""r8"">3215292</Frequency><Timestamp dt:dt=""r8"">3905219894117</Timestamp><Current dt:dt=""r8"">0</Current><DateUtc dt:dt=""string"">2018-10-10T17:09:17Z</DateUtc></FrequencyChange></FrequencyChanges></Clock>\n",KW_Experiment5A-9-1,59.944,1.0.0.105,1,1095277310,Professional,2.0.10.353,2.0.10.353,10/10/2018,10/10/2018 17:09,13:09:17,2.0.10.248,2,2,1,2,,,,,,,,TrainingProc,BlockList,1,1,Distractor1.bmp,1,0,,0,30,367682,501,,0,0,yellow,500,2,500,2,vertical,yellow,Distractor2.bmp,purple,Distractor2.bmp,red,Distractor1.bmp,blue,Distractor1.bmp,lime,Target1.bmp,cyan,Distractor1.bmp,,,,TrialProc,,TrainingTrialList,1,1,-999999,1,368183,0,1,709,368892,Target1.bmp,lime,1,,,,5,1,1
KW_Experiment5A,9,1,"<?xml version=""1.0""?>\n<Clock xmlns:dt=""urn:schemas-microsoft-com:datatypes""><Description dt:dt=""string"">E-Prime Primary Realtime Clock</Description><StartTime><Timestamp dt:dt=""int"">0</Timestamp><DateUtc dt:dt=""string"">2018-10-10T17:09:17Z</DateUtc></StartTime><FrequencyChanges><FrequencyChange><Frequency dt:dt=""r8"">3215292</Frequency><Timestamp dt:dt=""r8"">3905219894117</Timestamp><Current dt:dt=""r8"">0</Current><DateUtc dt:dt=""string"">2018-10-10T17:09:17Z</DateUtc></FrequencyChange></FrequencyChanges></Clock>\n",KW_Experiment5A-9-1,59.944,1.0.0.105,1,1095277310,Professional,2.0.10.353,2.0.10.353,10/10/2018,10/10/2018 17:09,13:09:17,2.0.10.248,2,2,1,2,,,,,,,,TrainingProc,BlockList,2,2,Distractor1.bmp,1,0,,0,1,369918,500,,0,0,red,500,2,500,1,horizontal,red,Distractor2.bmp,lime,Target2.bmp,cyan,Distractor1.bmp,blue,Distractor2.bmp,yellow,Distractor2.bmp,purple,Distractor2.bmp,,,,TrialProc,,TrainingTrialList,1,2,-999999,0,370418,0,2,802,371220,Target2.bmp,lime,2,,,,2,1,2
KW_Experiment5A,9,1,"<?xml version=""1.0""?>\n<Clock xmlns:dt=""urn:schemas-microsoft-com:datatypes""><Description dt:dt=""string"">E-Prime Primary Realtime Clock</Description><StartTime><Timestamp dt:dt=""int"">0</Timestamp><DateUtc dt:dt=""string"">2018-10-10T17:09:17Z</DateUtc></StartTime><FrequencyChanges><FrequencyChange><Frequency dt:dt=""r8"">3215292</Frequency><Timestamp dt:dt=""r8"">3905219894117</Timestamp><Current dt:dt=""r8"">0</Current><DateUtc dt:dt=""string"">2018-10-10T17:09:17Z</DateUtc></FrequencyChange></FrequencyChanges></Clock>\n",KW_Experiment5A-9-1,59.944,1.0.0.105,1,1095277310,Professional,2.0.10.353,2.0.10.353,10/10/2018,10/10/2018 17:09,13:09:17,2.0.10.248,2,2,1,2,,,,,,,,TrainingProc,BlockList,3,2,Distractor1.bmp,1,0,,0,1,372236,501,,0,0,purple,500,2,500,,horizontal,purple,Distractor1.bmp,blue,Distractor2.bmp,cyan,Distractor1.bmp,lime,Distractor2.bmp,yellow,Distractor2.bmp,red,Target2.bmp,,,,TrialProc,5,TrainingTrialList,1,2,-999999,1,372737,0,2,1531,374268,Target2.bmp,red,2,,,,12,1,3
KW_Experiment5A,9,1,"<?xml version=""1.0""?>\n<Clock xmlns:dt=""urn:schemas-microsoft-com:datatypes""><Description dt:dt=""string"">E-Prime Primary Realtime Clock</Description><StartTime><Timestamp dt:dt=""int"">0</Timestamp><DateUtc dt:dt=""string"">2018-10-10T17:09:17Z</DateUtc></StartTime><FrequencyChanges><FrequencyChange><Frequency dt:dt=""r8"">3215292</Frequency><Timestamp dt:dt=""r8"">3905219894117</Timestamp><Current dt:dt=""r8"">0</Current><DateUtc dt:dt=""string"">2018-10-10T17:09:17Z</DateUtc></FrequencyChange></FrequencyChanges></Clock>\n",KW_Experiment5A-9-1,59.944,1.0.0.105,1,1095277310,Professional,2.0.10.353,2.0.10.353,10/10/2018,10/10/2018 17:09,13:09:17,2.0.10.248,2,2,1,2,,,,,,,,TrainingProc,BlockList,4,2,Distractor1.bmp,1,0,,0,1,375289,400,,0,0,blue,400,1,400,3,horizontal,blue,Distractor2.bmp,yellow,Distractor1.bmp,cyan,Distractor2.bmp,red,Distractor1.bmp,lime,Target2.bmp,purple,Distractor1.bmp,,,,TrialProc,,TrainingTrialList,1,2,-999999,0,375689,0,2,1555,377244,Target2.bmp,lime,2,,,,5,1,4
KW_Experiment5A,9,1,"<?xml version=""1.0""?>\n<Clock xmlns:dt=""urn:schemas-microsoft-com:datatypes""><Description dt:dt=""string"">E-Prime Primary Realtime Clock</Description><StartTime><Timestamp dt:dt=""int"">0</Timestamp><DateUtc dt:dt=""string"">2018-10-10T17:09:17Z</DateUtc></StartTime><FrequencyChanges><FrequencyChange><Frequency dt:dt=""r8"">3215292</Frequency><Timestamp dt:dt=""r8"">3905219894117</Timestamp><Current dt:dt=""r8"">0</Current><DateUtc dt:dt=""string"">2018-10-10T17:09:17Z</DateUtc></FrequencyChange></FrequencyChanges></Clock>\n",KW_Experiment5A-9-1,59.944,1.0.0.105,1,1095277310,Professional,2.0.10.353,2.0.10.353,10/10/2018,10/10/2018 17:09,13:09:17,2.0.10.248,2,2,1,2,,,,,,,,TrainingProc,BlockList,5,2,Distractor2.bmp,2,0,,0,1,378259,400,,0,0,cyan,400,1,400,4,horizontal,cyan,Distractor1.bmp,red,Distractor2.bmp,yellow,Distractor1.bmp,blue,Distractor1.bmp,lime,Target2.bmp,purple,Distractor2.bmp,,,,TrialProc,,TrainingTrialList,1,2,-999999,0,378659,0,2,529,379188,Target2.bmp,lime,2,,,,5,1,5
KW_Experiment5A,9,1,"<?xml version=""1.0""?>\n<Clock xmlns:dt=""urn:schemas-microsoft-com:datatypes""><Description dt:dt=""string"">E-Prime Primary Realtime Clock</Description><StartTime><Timestamp dt:dt=""int"">0</Timestamp><DateUtc dt:dt=""string"">2018-10-10T17:09:17Z</DateUtc></StartTime><FrequencyChanges><FrequencyChange><Frequency dt:dt=""r8"">3215292</Frequency><Timestamp dt:dt=""r8"">3905219894117</Timestamp><Current dt:dt=""r8"">0</Current><DateUtc dt:dt=""string"">2018-10-10T17:09:17Z</DateUtc></FrequencyChange></FrequencyChanges></Clock>\n",KW_Experiment5A-9-1,59.944,1.0.0.105,1,1095277310,Professional,2.0.10.353,2.0.10.353,10/10/2018,10/10/2018 17:09,13:09:17,2.0.10.248,2,2,1,2,,,,,,,,TrainingProc,BlockList,6,2,Distractor2.bmp,2,0,,0,1,380210,401,,0,0,red,400,1,400,1,horizontal,red,Distractor1.bmp,lime,Target2.bmp,cyan,Distractor2.bmp,purple,Distractor2.bmp,blue,Distractor1.bmp,yellow,Distractor1.bmp,,,,TrialProc,,TrainingTrialList,1,2,-999999,1,380611,0,2,713,381324,Target2.bmp,lime,2,,,,2,1,6
KW_Experiment5A,9,1,"<?xml version=""1.0""?>\n<Clock xmlns:dt=""urn:schemas-microsoft-com:datatypes""><Description dt:dt=""string"">E-Prime Primary Realtime Clock</Description><StartTime><Timestamp dt:dt=""int"">0</Timestamp><DateUtc dt:dt=""string"">2018-10-10T17:09:17Z</DateUtc></StartTime><FrequencyChanges><FrequencyChange><Frequency dt:dt=""r8"">3215292</Frequency><Timestamp dt:dt=""r8"">3905219894117</Timestamp><Current dt:dt=""r8"">0</Current><DateUtc dt:dt=""string"">2018-10-10T17:09:17Z</DateUtc></FrequencyChange></FrequencyChanges></Clock>\n",KW_Experiment5A-9-1,59.944,1.0.0.105,1,1095277310,Professional,2.0.10.353,2.0.10.353,10/10/2018,10/10/2018 17:09,13:09:17,2.0.10.248,2,2,1,2,,,,,,,,TrainingProc,BlockList,7,2,Distractor1.bmp,1,0,,0,1,382346,400,,0,0,blue,400,1,400,,horizontal,red,Target2.bmp,cyan,Distractor1.bmp,purple,Distractor1.bmp,yellow,Distractor2.bmp,lime,Distractor1.bmp,blue,Distractor1.bmp,,,,TrialProc,3,TrainingTrialList,1,2,-999999,0,382746,0,2,658,383404,Target2.bmp,red,2,,,,7,1,7
KW_Experiment5A,9,1,"<?xml version=""1.0""?>\n<Clock xmlns:dt=""urn:schemas-microsoft-com:datatypes""><Description dt:dt=""string"">E-Prime Primary Realtime Clock</Description><StartTime><Timestamp dt:dt=""int"">0</Timestamp><DateUtc dt:dt=""string"">2018-10-10T17:09:17Z</DateUtc></StartTime><FrequencyChanges><FrequencyChange><Frequency dt:dt=""r8"">3215292</Frequency><Timestamp dt:dt=""r8"">3905219894117</Timestamp><Current dt:dt=""r8"">0</Current><DateUtc dt:dt=""string"">2018-10-10T17:09:17Z</DateUtc></FrequencyChange></FrequencyChanges></Clock>\n",KW_Experiment5A-9-1,59.944,1.0.0.105,1,1095277310,Professional,2.0.10.353,2.0.10.353,10/10/2018,10/10/2018 17:09,13:09:17,2.0.10.248,2,2,1,2,,,,,,,,TrainingProc,BlockList,8,1,Distractor1.bmp,1,0,,0,1,384414,400,,0,0,blue,400,1,400,3,vertical,blue,Distractor2.bmp,cyan,Distractor2.bmp,purple,Distractor2.bmp,lime,Target1.bmp,yellow,Distractor1.bmp,red,Distractor2.bmp,,,,TrialProc,,TrainingTrialList,1,1,-999999,0,384814,0,1,878,385692,Target1.bmp,lime,1,,,,4,1,8
KW_Experiment5A,9,1,"<?xml version=""1.0""?>\n<Clock xmlns:dt=""urn:schemas-microsoft-com:datatypes""><Description dt:dt=""string"">E-Prime Primary Realtime Clock</Description><StartTime><Timestamp dt:dt=""int"">0</Timestamp><DateUtc dt:dt=""string"">2018-10-10T17:09:17Z</DateUtc></StartTime><FrequencyChanges><FrequencyChange><Frequency dt:dt=""r8"">3215292</Frequency><Timestamp dt:dt=""r8"">3905219894117</Timestamp><Current dt:dt=""r8"">0</Current><DateUtc dt:dt=""string"">2018-10-10T17:09:17Z</DateUtc></FrequencyChange></FrequencyChanges></Clock>\n",KW_Experiment5A-9-1,59.944,1.0.0.105,1,1095277310,Professional,2.0.10.353,2.0.10.353,10/10/2018,10/10/2018 17:09,13:09:17,2.0.10.248,2,2,1,2,,,,,,,,TrainingProc,BlockList,9,2,Distractor2.bmp,2,0,,0,1,386716,601,,0,0,blue,600,3,600,3,horizontal,blue,Distractor2.bmp,yellow,Distractor1.bmp,cyan,Distractor2.bmp,purple,Distractor1.bmp,red,Distractor2.bmp,lime,Target2.bmp,,,,TrialProc,,TrainingTrialList,1,2,-999999,1,387317,0,2,910,388227,Target2.bmp,lime,2,,,,6,1,9
KW_Experiment5A,9,1,"<?xml version=""1.0""?>\n<Clock xmlns:dt=""urn:schemas-microsoft-com:datatypes""><Description dt:dt=""string"">E-Prime Primary Realtime Clock</Description><StartTime><Timestamp dt:dt=""int"">0</Timestamp><DateUtc dt:dt=""string"">2018-10-10T17:09:17Z</DateUtc></StartTime><FrequencyChanges><FrequencyChange><Frequency dt:dt=""r8"">3215292</Frequency><Timestamp dt:dt=""r8"">3905219894117</Timestamp><Current dt:dt=""r8"">0</Current><DateUtc dt:dt=""string"">2018-10-10T17:09:17Z</DateUtc></FrequencyChange></FrequencyChanges></Clock>\n",KW_Experiment5A-9-1,59.944,1.0.0.105,1,1095277310,Professional,2.0.10.353,2.0.10.353,10/10/2018,10/10/2018 17:09,13:09:17,2.0.10.248,2,2,1,2,,,,,,,,TrainingProc,BlockList,10,2,Distractor1.bmp,1,0,,0,1,389252,400,,0,0,cyan,400,1,400,,horizontal,cyan,Distractor1.bmp,purple,Distractor2.bmp,yellow,Distractor2.bmp,lime,Distractor1.bmp,red,Target2.bmp,blue,Distractor1.bmp,,,,TrialProc,4,TrainingTrialList,0,2,-999999,0,389652,0,1,1495,391147,Target2.bmp,red,2,,,,11,1,10
KW_Experiment5A,9,1,"<?xml version=""1.0""?>\n<Clock xmlns:dt=""urn:schemas-microsoft-com:datatypes""><Description dt:dt=""string"">E-Prime Primary Realtime Clock</Description><StartTime><Timestamp dt:dt=""int"">0</Timestamp><DateUtc dt:dt=""string"">2018-10-10T17:09:17Z</DateUtc></StartTime><FrequencyChanges><FrequencyChange><Frequency dt:dt=""r8"">3215292</Frequency><Timestamp dt:dt=""r8"">3905219894117</Timestamp><Current dt:dt=""r8"">0</Current><DateUtc dt:dt=""string"">2018-10-10T17:09:17Z</DateUtc></FrequencyChange></FrequencyChanges></Clock>\n",KW_Experiment5A-9-1,59.944,1.0.0.105,1,1095277310,Professional,2.0.10.353,2.0.10.353,10/10/2018,10/10/2018 17:09,13:09:17,2.0.10.248,2,2,1,2,,,,,,,,TrainingProc,BlockList,11,2,Distractor1.bmp,1,0,,0,1,392171,401,,0,0,yellow,400,1,400,2,horizontal,lime,Target2.bmp,yellow,Distractor1.bmp,red,Distractor1.bmp,cyan,Distractor1.bmp,blue,Distractor2.bmp,purple,Distractor1.bmp,,,,TrialProc,,TrainingTrialList,1,2,-999999,1,392572,0,2,1287,393859,Target2.bmp,lime,2,,,,1,1,11
KW_Experiment5A,9,1,"<?xml version=""1.0""?>\n<Clock xmlns:dt=""urn:schemas-microsoft-com:datatypes""><Description dt:dt=""string"">E-Prime Primary Realtime Clock</Description><StartTime><Timestamp dt:dt=""int"">0</Timestamp><DateUtc dt:dt=""string"">2018-10-10T17:09:17Z</DateUtc></StartTime><FrequencyChanges><FrequencyChange><Frequency dt:dt=""r8"">3215292</Frequency><Timestamp dt:dt=""r8"">3905219894117</Timestamp><Current dt:dt=""r8"">0</Current><DateUtc dt:dt=""string"">2018-10-10T17:09:17Z</DateUtc></FrequencyChange></FrequencyChanges></Clock>\n",KW_Experiment5A-9-1,59.944,1.0.0.105,1,1095277310,Professional,2.0.10.353,2.0.10.353,10/10/2018,10/10/2018 17:09,13:09:17,2.0.10.248,2,2,1,2,,,,,,,,TrainingProc,BlockList,12,2,Distractor1.bmp,1,0,,0,1,394874,500,,0,0,yellow,500,2,500,,horizontal,yellow,Distractor1.bmp,blue,Distractor2.bmp,cyan,Distractor1.bmp,red,Target2.bmp,lime,Distractor1.bmp,purple,Distractor2.bmp,,,,TrialProc,2,TrainingTrialList,1,2,-999999,0,395374,0,2,901,396275,Target2.bmp,red,2,,,,10,1,12
KW_Experiment5A,9,1,"<?xml version=""1.0""?>\n<Clock xmlns:dt=""urn:schemas-microsoft-com:datatypes""><Description dt:dt=""string"">E-Prime Primary Realtime Clock</Description><StartTime><Timestamp dt:dt=""int"">0</Timestamp><DateUtc dt:dt=""string"">2018-10-10T17:09:17Z</DateUtc></StartTime><FrequencyChanges><FrequencyChange><Frequency dt:dt=""r8"">3215292</Frequency><Timestamp dt:dt=""r8"">3905219894117</Timestamp><Current dt:dt=""r8"">0</Current><DateUtc dt:dt=""string"">2018-10-10T17:09:17Z</DateUtc></FrequencyChange></FrequencyChanges></Clock>\n",KW_Experiment5A-9-1,59.944,1.0.0.105,1,1095277310,Professional,2.0.10.353,2.0.10.353,10/10/2018,10/10/2018 17:09,13:09:17,2.0.10.248,2,2,1,2,,,,,,,,TrainingProc,BlockList,13,2,Distractor1.bmp,1,0,,1,0,397292,601,,0,0,cyan,600,3,600,4,horizontal,cyan,Distractor1.bmp,blue,Distractor2.bmp,red,Distractor1.bmp,yellow,Distractor2.bmp,purple,Distractor1.bmp,lime,Target2.bmp,,,,TrialProc,,TrainingTrialList,1,2,-999999,1,397893,0,2,614,398507,Target2.bmp,lime,2,,,,6,1,13
KW_Experiment5A,9,1,"<?xml version=""1.0""?>\n<Clock xmlns:dt=""urn:schemas-microsoft-com:datatypes""><Description dt:dt=""string"">E-Prime Primary Realtime Clock</Description><StartTime><Timestamp dt:dt=""int"">0</Timestamp><DateUtc dt:dt=""string"">2018-10-10T17:09:17Z</DateUtc></StartTime><FrequencyChanges><FrequencyChange><Frequency dt:dt=""r8"">3215292</Frequency><Timestamp dt:dt=""r8"">3905219894117</Timestamp><Current dt:dt=""r8"">0</Current><DateUtc dt:dt=""string"">2018-10-10T17:09:17Z</DateUtc></FrequencyChange></FrequencyChanges></Clock>\n",KW_Experiment5A-9-1,59.944,1.0.0.105,1,1095277310,Professional,2.0.10.353,2.0.10.353,10/10/2018,10/10/2018 17:09,13:09:17,2.0.10.248,2,2,1,2,,,,,,,,TrainingProc,BlockList,14,1,Distractor2.bmp,2,0,,0,1,399528,400,,0,0,cyan,400,1,400,,vertical,cyan,Distractor2.bmp,yellow,Distractor1.bmp,red,Target1.bmp,blue,Distractor2.bmp,lime,Distractor2.bmp,purple,Distractor2.bmp,,,,TrialProc,4,TrainingTrialList,1,1,-999999,0,399928,0,1,1387,401315,Target1.bmp,red,1,,,,9,1,14
KW_Experiment5A,9,1,"<?xml version=""1.0""?>\n<Clock xmlns:dt=""urn:schemas-microsoft-com:datatypes""><Description dt:dt=""string"">E-Prime Primary Realtime Clock</Description><StartTime><Timestamp dt:dt=""int"">0</Timestamp><DateUtc dt:dt=""string"">2018-10-10T17:09:17Z</DateUtc></StartTime><FrequencyChanges><FrequencyChange><Frequency dt:dt=""r8"">3215292</Frequency><Timestamp dt:dt=""r8"">3905219894117</Timestamp><Current dt:dt=""r8"">0</Current><DateUtc dt:dt=""string"">2018-10-10T17:09:17Z</DateUtc></FrequencyChange></FrequencyChanges></Clock>\n",KW_Experiment5A-9-1,59.944,1.0.0.105,1,1095277310,Professional,2.0.10.353,2.0.10.353,10/10/2018,10/10/2018 17:09,13:09:17,2.0.10.248,2,2,1,2,,,,,,,,TrainingProc,BlockList,15,2,Distractor2.bmp,2,0,,0,1,402330,601,,0,0,blue,600,3,600,3,horizontal,blue,Distractor2.bmp,lime,Target2.bmp,red,Distractor2.bmp,cyan,Distractor1.bmp,yellow,Distractor1.bmp,purple,Distractor2.bmp,,,,TrialProc,,TrainingTrialList,1,2,-999999,1,402931,0,2,1464,404395,Target2.bmp,lime,2,,,,2,1,15
KW_Experiment5A,9,1,"<?xml version=""1.0""?>\n<Clock xmlns:dt=""urn:schemas-microsoft-com:datatypes""><Description dt:dt=""string"">E-Prime Primary Realtime Clock</Description><StartTime><Timestamp dt:dt=""int"">0</Timestamp><DateUtc dt:dt=""string"">2018-10-10T17:09:17Z</DateUtc></StartTime><FrequencyChanges><FrequencyChange><Frequency dt:dt=""r8"">3215292</Frequency><Timestamp dt:dt=""r8"">3905219894117</Timestamp><Current dt:dt=""r8"">0</Current><DateUtc dt:dt=""string"">2018-10-10T17:09:17Z</DateUtc></FrequencyChange></FrequencyChanges></Clock>\n",KW_Experiment5A-9-1,59.944,1.0.0.105,1,1095277310,Professional,2.0.10.353,2.0.10.353,10/10/2018,10/10/2018 17:09,13:09:17,2.0.10.248,2,2,1,2,,,,,,,,TrainingProc,BlockList,16,2,Distractor1.bmp,1,0,,0,1,405417,400,,0,0,yellow,400,1,400,2,horizontal,yellow,Distractor2.bmp,cyan,Distractor1.bmp,lime,Target2.bmp,blue,Distractor1.bmp,red,Distractor1.bmp,purple,Distractor1.bmp,,,,TrialProc,,TrainingTrialList,1,2,-999999,0,405817,0,2,1034,406851,Target2.bmp,lime,2,,,,3,1,16
KW_Experiment5A,9,1,"<?xml version=""1.0""?>\n<Clock xmlns:dt=""urn:schemas-microsoft-com:datatypes""><Description dt:dt=""string"">E-Prime Primary Realtime Clock</Description><StartTime><Timestamp dt:dt=""int"">0</Timestamp><DateUtc dt:dt=""string"">2018-10-10T17:09:17Z</DateUtc></StartTime><FrequencyChanges><FrequencyChange><Frequency dt:dt=""r8"">3215292</Frequency><Timestamp dt:dt=""r8"">3905219894117</Timestamp><Current dt:dt=""r8"">0</Current><DateUtc dt:dt=""string"">2018-10-10T17:09:17Z</DateUtc></FrequencyChange></FrequencyChanges></Clock>\n",KW_Experiment5A-9-1,59.944,1.0.0.105,1,1095277310,Professional,2.0.10.353,2.0.10.353,10/10/2018,10/10/2018 17:09,13:09:17,2.0.10.248,2,2,1,2,,,,,,,,TrainingProc,BlockList,17,2,Distractor2.bmp,2,0,,0,1,407869,400,,0,0,yellow,400,1,400,2,horizontal,yellow,Distractor2.bmp,cyan,Distractor2.bmp,blue,Distractor1.bmp,lime,Target2.bmp,purple,Distractor2.bmp,red,Distractor1.bmp,,,,TrialProc,,TrainingTrialList,1,2,-999999,0,408269,0,2,1054,409323,Target2.bmp,lime,2,,,,4,1,17
KW_Experiment5A,9,1,"<?xml version=""1.0""?>\n<Clock xmlns:dt=""urn:schemas-microsoft-com:datatypes""><Description dt:dt=""string"">E-Prime Primary Realtime Clock</Description><StartTime><Timestamp dt:dt=""int"">0</Timestamp><DateUtc dt:dt=""string"">2018-10-10T17:09:17Z</DateUtc></StartTime><FrequencyChanges><FrequencyChange><Frequency dt:dt=""r8"">3215292</Frequency><Timestamp dt:dt=""r8"">3905219894117</Timestamp><Current dt:dt=""r8"">0</Current><DateUtc dt:dt=""string"">2018-10-10T17:09:17Z</DateUtc></FrequencyChange></FrequencyChanges></Clock>\n",KW_Experiment5A-9-1,59.944,1.0.0.105,1,1095277310,Professional,2.0.10.353,2.0.10.353,10/10/2018,10/10/2018 17:09,13:09:17,2.0.10.248,2,2,1,2,,,,,,,,TrainingProc,BlockList,18,1,Distractor1.bmp,1,0,,0,1,410338,400,,0,0,purple,400,1,400,5,vertical,lime,Target1.bmp,purple,Distractor1.bmp,cyan,Distractor2.bmp,blue,Distractor1.bmp,yellow,Distractor1.bmp,red,Distractor2.bmp,,,,TrialProc,,TrainingTrialList,1,1,-999999,0,410738,0,1,785,411523,Target1.bmp,lime,1,,,,1,1,18
KW_Experiment5A,9,1,"<?xml version=""1.0""?>\n<Clock xmlns:dt=""urn:schemas-microsoft-com:datatypes""><Description dt:dt=""string"">E-Prime Primary Realtime Clock</Description><StartTime><Timestamp dt:dt=""int"">0</Timestamp><DateUtc dt:dt=""string"">2018-10-10T17:09:17Z</DateUtc></StartTime><FrequencyChanges><FrequencyChange><Frequency dt:dt=""r8"">3215292</Frequency><Timestamp dt:dt=""r8"">3905219894117</Timestamp><Current dt:dt=""r8"">0</Current><DateUtc dt:dt=""string"">2018-10-10T17:09:17Z</DateUtc></FrequencyChange></FrequencyChanges></Clock>\n",KW_Experiment5A-9-1,59.944,1.0.0.105,1,1095277310,Professional,2.0.10.353,2.0.10.353,10/10/2018,10/10/2018 17:09,13:09:17,2.0.10.248,2,2,1,2,,,,,,,,TrainingProc,BlockList,19,1,Distractor1.bmp,1,0,,0,1,412540,400,,0,0,blue,400,1,400,3,vertical,blue,Distractor1.bmp,purple,Distractor1.bmp,yellow,Distractor1.bmp,cyan,Distractor2.bmp,red,Distractor1.bmp,lime,Target1.bmp,,,,TrialProc,,TrainingTrialList,1,1,-999999,0,412940,0,1,743,413683,Target1.bmp,lime,1,,,,6,1,19
KW_Experiment5A,9,1,"<?xml version=""1.0""?>\n<Clock xmlns:dt=""urn:schemas-microsoft-com:datatypes""><Description dt:dt=""string"">E-Prime Primary Realtime Clock</Description><StartTime><Timestamp dt:dt=""int"">0</Timestamp><DateUtc dt:dt=""string"">2018-10-10T17:09:17Z</DateUtc></StartTime><FrequencyChanges><FrequencyChange><Frequency dt:dt=""r8"">3215292</Frequency><Timestamp dt:dt=""r8"">3905219894117</Timestamp><Current dt:dt=""r8"">0</Current><DateUtc dt:dt=""string"">2018-10-10T17:09:17Z</DateUtc></FrequencyChange></FrequencyChanges></Clock>\n",KW_Experiment5A-9-1,59.944,1.0.0.105,1,1095277310,Professional,2.0.10.353,2.0.10.353,10/10/2018,10/10/2018 17:09,13:09:17,2.0.10.248,2,2,1,2,,,,,,,,TrainingProc,BlockList,20,1,Distractor2.bmp,2,0,,0,1,414708,401,,0,0,cyan,400,1,400,4,vertical,cyan,Distractor2.bmp,blue,Distractor2.bmp,lime,Target1.bmp,purple,Distractor2.bmp,yellow,Distractor1.bmp,red,Distractor2.bmp,,,,TrialProc,,TrainingTrialList,1,1,-999999,1,415109,0,1,1038,416147,Target1.bmp,lime,1,,,,3,1,20
KW_Experiment5A,9,1,"<?xml version=""1.0""?>\n<Clock xmlns:dt=""urn:schemas-microsoft-com:datatypes""><Description dt:dt=""string"">E-Prime Primary Realtime Clock</Description><StartTime><Timestamp dt:dt=""int"">0</Timestamp><DateUtc dt:dt=""string"">2018-10-10T17:09:17Z</DateUtc></StartTime><FrequencyChanges><FrequencyChange><Frequency dt:dt=""r8"">3215292</Frequency><Timestamp dt:dt=""r8"">3905219894117</Timestamp><Current dt:dt=""r8"">0</Current><DateUtc dt:dt=""string"">2018-10-10T17:09:17Z</DateUtc></FrequencyChange></FrequencyChanges></Clock>\n",KW_Experiment5A-9-1,59.944,1.0.0.105,1,1095277310,Professional,2.0.10.353,2.0.10.353,10/10/2018,10/10/2018 17:09,13:09:17,2.0.10.248,2,2,1,2,,,,,,,,TrainingProc,BlockList,21,2,Distractor2.bmp,2,0,,1,0,417160,401,,0,0,cyan,400,1,400,,horizontal,cyan,Distractor2.bmp,red,Target2.bmp,lime,Distractor2.bmp,yellow,Distractor2.bmp,blue,Distractor2.bmp,purple,Distractor1.bmp,,,,TrialProc,4,TrainingTrialList,1,2,-999999,1,417561,0,2,730,418291,Target2.bmp,red,2,,,,8,1,21
KW_Experiment5A,9,1,"<?xml version=""1.0""?>\n<Clock xmlns:dt=""urn:schemas-microsoft-com:datatypes""><Description dt:dt=""string"">E-Prime Primary Realtime Clock</Description><StartTime><Timestamp dt:dt=""int"">0</Timestamp><DateUtc dt:dt=""string"">2018-10-10T17:09:17Z</DateUtc></StartTime><FrequencyChanges><FrequencyChange><Frequency dt:dt=""r8"">3215292</Frequency><Timestamp dt:dt=""r8"">3905219894117</Timestamp><Current dt:dt=""r8"">0</Current><DateUtc dt:dt=""string"">2018-10-10T17:09:17Z</DateUtc></FrequencyChange></FrequencyChanges></Clock>\n",KW_Experiment5A-9-1,59.944,1.0.0.105,1,1095277310,Professional,2.0.10.353,2.0.10.353,10/10/2018,10/10/2018 17:09,13:09:17,2.0.10.248,2,2,1,2,,,,,,,,TrainingProc,BlockList,22,2,Distractor1.bmp,1,0,,1,0,419312,401,,0,0,yellow,400,1,400,2,horizontal,yellow,Distractor2.bmp,blue,Distractor2.bmp,cyan,Distractor1.bmp,lime,Target2.bmp,purple,Distractor1.bmp,red,Distractor1.bmp,,,,TrialProc,,TrainingTrialList,0,2,-999999,1,419713,0,1,954,420667,Target2.bmp,lime,2,,,,4,1,22
KW_Experiment5A,9,1,"<?xml version=""1.0""?>\n<Clock xmlns:dt=""urn:schemas-microsoft-com:datatypes""><Description dt:dt=""string"">E-Prime Primary Realtime Clock</Description><StartTime><Timestamp dt:dt=""int"">0</Timestamp><DateUtc dt:dt=""string"">2018-10-10T17:09:17Z</DateUtc></StartTime><FrequencyChanges><FrequencyChange><Frequency dt:dt=""r8"">3215292</Frequency><Timestamp dt:dt=""r8"">3905219894117</Timestamp><Current dt:dt=""r8"">0</Current><DateUtc dt:dt=""string"">2018-10-10T17:09:17Z</DateUtc></FrequencyChange></FrequencyChanges></Clock>\n",KW_Experiment5A-9-1,59.944,1.0.0.105,1,1095277310,Professional,2.0.10.353,2.0.10.353,10/10/2018,10/10/2018 17:09,13:09:17,2.0.10.248,2,2,1,2,,,,,,,,TrainingProc,BlockList,23,2,Distractor1.bmp,1,0,,0,1,421681,501,,0,0,purple,500,2,500,5,horizontal,lime,Target2.bmp,purple,Distractor1.bmp,yellow,Distractor1.bmp,cyan,Distractor1.bmp,blue,Distractor1.bmp,red,Distractor2.bmp,,,,TrialProc,,TrainingTrialList,1,2,-999999,1,422182,0,2,1093,423275,Target2.bmp,lime,2,,,,1,1,23
KW_Experiment5A,9,1,"<?xml version=""1.0""?>\n<Clock xmlns:dt=""urn:schemas-microsoft-com:datatypes""><Description dt:dt=""string"">E-Prime Primary Realtime Clock</Description><StartTime><Timestamp dt:dt=""int"">0</Timestamp><DateUtc dt:dt=""string"">2018-10-10T17:09:17Z</DateUtc></StartTime><FrequencyChanges><FrequencyChange><Frequency dt:dt=""r8"">3215292</Frequency><Timestamp dt:dt=""r8"">3905219894117</Timestamp><Current dt:dt=""r8"">0</Current><DateUtc dt:dt=""string"">2018-10-10T17:09:17Z</DateUtc></FrequencyChange></FrequencyChanges></Clock>\n",KW_Experiment5A-9-1,59.944,1.0.0.105,1,1095277310,Professional,2.0.10.353,2.0.10.353,10/10/2018,10/10/2018 17:09,13:09:17,2.0.10.248,2,2,1,2,,,,,,,,TrainingProc,BlockList,24,2,Distractor2.bmp,2,0,,0,1,424300,501,,0,0,red,500,2,500,1,horizontal,red,Distractor2.bmp,yellow,Distractor2.bmp,lime,Target2.bmp,cyan,Distractor2.bmp,purple,Distractor1.bmp,blue,Distractor1.bmp,,,,TrialProc,,TrainingTrialList,1,2,-999999,1,424801,0,2,818,425619,Target2.bmp,lime,2,,,,3,1,24
KW_Experiment5A,9,1,"<?xml version=""1.0""?>\n<Clock xmlns:dt=""urn:schemas-microsoft-com:datatypes""><Description dt:dt=""string"">E-Prime Primary Realtime Clock</Description><StartTime><Timestamp dt:dt=""int"">0</Timestamp><DateUtc dt:dt=""string"">2018-10-10T17:09:17Z</DateUtc></StartTime><FrequencyChanges><FrequencyChange><Frequency dt:dt=""r8"">3215292</Frequency><Timestamp dt:dt=""r8"">3905219894117</Timestamp><Current dt:dt=""r8"">0</Current><DateUtc dt:dt=""string"">2018-10-10T17:09:17Z</DateUtc></FrequencyChange></FrequencyChanges></Clock>\n",KW_Experiment5A-9-1,59.944,1.0.0.105,1,1095277310,Professional,2.0.10.353,2.0.10.353,10/10/2018,10/10/2018 17:09,13:09:17,2.0.10.248,2,2,1,2,,,,,,,,TrainingProc,BlockList,25,1,Distractor1.bmp,1,0,,0,1,426636,500,,0,0,purple,500,2,500,5,vertical,purple,Distractor2.bmp,yellow,Distractor1.bmp,cyan,Distractor1.bmp,lime,Target1.bmp,red,Distractor1.bmp,blue,Distractor2.bmp,,,,TrialProc,,TrainingTrialList,1,1,-999999,0,427136,0,1,1154,428290,Target1.bmp,lime,1,,,,4,2,25
KW_Experiment5A,9,1,"<?xml version=""1.0""?>\n<Clock xmlns:dt=""urn:schemas-microsoft-com:datatypes""><Description dt:dt=""string"">E-Prime Primary Realtime Clock</Description><StartTime><Timestamp dt:dt=""int"">0</Timestamp><DateUtc dt:dt=""string"">2018-10-10T17:09:17Z</DateUtc></StartTime><FrequencyChanges><FrequencyChange><Frequency dt:dt=""r8"">3215292</Frequency><Timestamp dt:dt=""r8"">3905219894117</Timestamp><Current dt:dt=""r8"">0</Current><DateUtc dt:dt=""string"">2018-10-10T17:09:17Z</DateUtc></FrequencyChange></FrequencyChanges></Clock>\n",KW_Experiment5A-9-1,59.944,1.0.0.105,1,1095277310,Professional,2.0.10.353,2.0.10.353,10/10/2018,10/10/2018 17:09,13:09:17,2.0.10.248,2,2,1,2,,,,,,,,TrainingProc,BlockList,26,1,Distractor1.bmp,1,0,,0,1,429305,600,,0,0,blue,600,3,600,,vertical,blue,Distractor1.bmp,yellow,Distractor2.bmp,lime,Distractor2.bmp,purple,Distractor1.bmp,red,Target1.bmp,cyan,Distractor1.bmp,,,,TrialProc,3,TrainingTrialList,1,1,-999999,0,429905,0,1,1161,431066,Target1.bmp,red,1,,,,11,2,26
KW_Experiment5A,9,1,"<?xml version=""1.0""?>\n<Clock xmlns:dt=""urn:schemas-microsoft-com:datatypes""><Description dt:dt=""string"">E-Prime Primary Realtime Clock</Description><StartTime><Timestamp dt:dt=""int"">0</Timestamp><DateUtc dt:dt=""string"">2018-10-10T17:09:17Z</DateUtc></StartTime><FrequencyChanges><FrequencyChange><Frequency dt:dt=""r8"">3215292</Frequency><Timestamp dt:dt=""r8"">3905219894117</Timestamp><Current dt:dt=""r8"">0</Current><DateUtc dt:dt=""string"">2018-10-10T17:09:17Z</DateUtc></FrequencyChange></FrequencyChanges></Clock>\n",KW_Experiment5A-9-1,59.944,1.0.0.105,1,1095277310,Professional,2.0.10.353,2.0.10.353,10/10/2018,10/10/2018 17:09,13:09:17,2.0.10.248,2,2,1,2,,,,,,,,TrainingProc,BlockList,27,1,Distractor1.bmp,1,0,,0,1,432091,400,,0,0,red,400,1,400,1,vertical,red,Distractor2.bmp,yellow,Distractor2.bmp,blue,Distractor1.bmp,lime,Target1.bmp,purple,Distractor1.bmp,cyan,Distractor1.bmp,,,,TrialProc,,TrainingTrialList,1,1,-999999,0,432491,0,1,1383,433874,Target1.bmp,lime,1,,,,4,2,27
KW_Experiment5A,9,1,"<?xml version=""1.0""?>\n<Clock xmlns:dt=""urn:schemas-microsoft-com:datatypes""><Description dt:dt=""string"">E-Prime Primary Realtime Clock</Description><StartTime><Timestamp dt:dt=""int"">0</Timestamp><DateUtc dt:dt=""string"">2018-10-10T17:09:17Z</DateUtc></StartTime><FrequencyChanges><FrequencyChange><Frequency dt:dt=""r8"">3215292</Frequency><Timestamp dt:dt=""r8"">3905219894117</Timestamp><Current dt:dt=""r8"">0</Current><DateUtc dt:dt=""string"">2018-10-10T17:09:17Z</DateUtc></FrequencyChange></FrequencyChanges></Clock>\n",KW_Experiment5A-9-1,59.944,1.0.0.105,1,1095277310,Professional,2.0.10.353,2.0.10.353,10/10/2018,10/10/2018 17:09,13:09:17,2.0.10.248,2,2,1,2,,,,,,,,TrainingProc,BlockList,28,1,Distractor2.bmp,2,0,,0,1,434893,401,,0,0,cyan,400,1,400,4,vertical,cyan,Distractor2.bmp,purple,Distractor1.bmp,blue,Distractor1.bmp,yellow,Distractor2.bmp,lime,Target1.bmp,red,Distractor2.bmp,,,,TrialProc,,TrainingTrialList,1,1,-999999,1,435294,0,1,812,436106,Target1.bmp,lime,1,,,,5,2,28
KW_Experiment5A,9,1,"<?xml version=""1.0""?>\n<Clock xmlns:dt=""urn:schemas-microsoft-com:datatypes""><Description dt:dt=""string"">E-Prime Primary Realtime Clock</Description><StartTime><Timestamp dt:dt=""int"">0</Timestamp><DateUtc dt:dt=""string"">2018-10-10T17:09:17Z</DateUtc></StartTime><FrequencyChanges><FrequencyChange><Frequency dt:dt=""r8"">3215292</Frequency><Timestamp dt:dt=""r8"">3905219894117</Timestamp><Current dt:dt=""r8"">0</Current><DateUtc dt:dt=""string"">2018-10-10T17:09:17Z</DateUtc></FrequencyChange></FrequencyChanges></Clock>\n",KW_Experiment5A-9-1,59.944,1.0.0.105,1,1095277310,Professional,2.0.10.353,2.0.10.353,10/10/2018,10/10/2018 17:09,13:09:17,2.0.10.248,2,2,1,2,,,,,,,,TrainingProc,BlockList,29,2,Distractor2.bmp,2,0,,0,1,437129,400,,0,0,yellow,400,1,400,2,horizontal,yellow,Distractor2.bmp,lime,Target2.bmp,purple,Distractor2.bmp,red,Distractor1.bmp,cyan,Distractor1.bmp,blue,Distractor2.bmp,,,,TrialProc,,TrainingTrialList,1,2,-999999,0,437529,0,2,681,438210,Target2.bmp,lime,2,,,,2,2,29
KW_Experiment5A,9,1,"<?xml version=""1.0""?>\n<Clock xmlns:dt=""urn:schemas-microsoft-com:datatypes""><Description dt:dt=""string"">E-Prime Primary Realtime Clock</Description><StartTime><Timestamp dt:dt=""int"">0</Timestamp><DateUtc dt:dt=""string"">2018-10-10T17:09:17Z</DateUtc></StartTime><FrequencyChanges><FrequencyChange><Frequency dt:dt=""r8"">3215292</Frequency><Timestamp dt:dt=""r8"">3905219894117</Timestamp><Current dt:dt=""r8"">0</Current><DateUtc dt:dt=""string"">2018-10-10T17:09:17Z</DateUtc></FrequencyChange></FrequencyChanges></Clock>\n",KW_Experiment5A-9-1,59.944,1.0.0.105,1,1095277310,Professional,2.0.10.353,2.0.10.353,10/10/2018,10/10/2018 17:09,13:09:17,2.0.10.248,2,2,1,2,,,,,,,,TrainingProc,BlockList,30,1,Distractor1.bmp,1,0,,0,1,439231,500,,0,0,cyan,500,2,500,4,vertical,cyan,Distractor2.bmp,yellow,Distractor1.bmp,lime,Target1.bmp,blue,Distractor1.bmp,red,Distractor1.bmp,purple,Distractor2.bmp,,,,TrialProc,,TrainingTrialList,1,1,-999999,0,439731,0,1,975,440706,Target1.bmp,lime,1,,,,3,2,30
KW_Experiment5A,9,1,"<?xml version=""1.0""?>\n<Clock xmlns:dt=""urn:schemas-microsoft-com:datatypes""><Description dt:dt=""string"">E-Prime Primary Realtime Clock</Description><StartTime><Timestamp dt:dt=""int"">0</Timestamp><DateUtc dt:dt=""string"">2018-10-10T17:09:17Z</DateUtc></StartTime><FrequencyChanges><FrequencyChange><Frequency dt:dt=""r8"">3215292</Frequency><Timestamp dt:dt=""r8"">3905219894117</Timestamp><Current dt:dt=""r8"">0</Current><DateUtc dt:dt=""string"">2018-10-10T17:09:17Z</DateUtc></FrequencyChange></FrequencyChanges></Clock>\n",KW_Experiment5A-9-1,59.944,1.0.0.105,1,1095277310,Professional,2.0.10.353,2.0.10.353,10/10/2018,10/10/2018 17:09,13:09:17,2.0.10.248,2,2,1,2,,,,,,,,TrainingProc,BlockList,31,2,Distractor2.bmp,2,0,,0,1,441733,400,,0,0,red,400,1,400,1,horizontal,red,Distractor1.bmp,lime,Target2.bmp,purple,Distractor2.bmp,blue,Distractor1.bmp,cyan,Distractor1.bmp,yellow,Distractor2.bmp,,,,TrialProc,,TrainingTrialList,1,2,-999999,0,442133,0,2,677,442810,Target2.bmp,lime,2,,,,2,2,31
KW_Experiment5A,9,1,"<?xml version=""1.0""?>\n<Clock xmlns:dt=""urn:schemas-microsoft-com:datatypes""><Description dt:dt=""string"">E-Prime Primary Realtime Clock</Description><StartTime><Timestamp dt:dt=""int"">0</Timestamp><DateUtc dt:dt=""string"">2018-10-10T17:09:17Z</DateUtc></StartTime><FrequencyChanges><FrequencyChange><Frequency dt:dt=""r8"">3215292</Frequency><Timestamp dt:dt=""r8"">3905219894117</Timestamp><Current dt:dt=""r8"">0</Current><DateUtc dt:dt=""string"">2018-10-10T17:09:17Z</DateUtc></FrequencyChange></FrequencyChanges></Clock>\n",KW_Experiment5A-9-1,59.944,1.0.0.105,1,1095277310,Professional,2.0.10.353,2.0.10.353,10/10/2018,10/10/2018 17:09,13:09:17,2.0.10.248,2,2,1,2,,,,,,,,TrainingProc,BlockList,32,1,Distractor2.bmp,2,0,,0,1,443835,600,,0,0,yellow,600,3,600,2,vertical,yellow,Distractor2.bmp,purple,Distractor1.bmp,cyan,Distractor2.bmp,blue,Distractor2.bmp,red,Distractor2.bmp,lime,Target1.bmp,,,,TrialProc,,TrainingTrialList,1,1,-999999,0,444435,0,1,783,445218,Target1.bmp,lime,1,,,,6,2,32
KW_Experiment5A,9,1,"<?xml version=""1.0""?>\n<Clock xmlns:dt=""urn:schemas-microsoft-com:datatypes""><Description dt:dt=""string"">E-Prime Primary Realtime Clock</Description><StartTime><Timestamp dt:dt=""int"">0</Timestamp><DateUtc dt:dt=""string"">2018-10-10T17:09:17Z</DateUtc></StartTime><FrequencyChanges><FrequencyChange><Frequency dt:dt=""r8"">3215292</Frequency><Timestamp dt:dt=""r8"">3905219894117</Timestamp><Current dt:dt=""r8"">0</Current><DateUtc dt:dt=""string"">2018-10-10T17:09:17Z</DateUtc></FrequencyChange></FrequencyChanges></Clock>\n",KW_Experiment5A-9-1,59.944,1.0.0.105,1,1095277310,Professional,2.0.10.353,2.0.10.353,10/10/2018,10/10/2018 17:09,13:09:17,2.0.10.248,2,2,1,2,,,,,,,,TrainingProc,BlockList,33,1,Distractor1.bmp,1,0,,0,1,446237,601,,0,0,purple,600,3,600,,vertical,purple,Distractor1.bmp,lime,Distractor2.bmp,yellow,Distractor1.bmp,blue,Distractor2.bmp,cyan,Distractor2.bmp,red,Target1.bmp,,,,TrialProc,5,TrainingTrialList,1,1,-999999,1,446838,0,1,804,447642,Target1.bmp,red,1,,,,12,2,33
KW_Experiment5A,9,1,"<?xml version=""1.0""?>\n<Clock xmlns:dt=""urn:schemas-microsoft-com:datatypes""><Description dt:dt=""string"">E-Prime Primary Realtime Clock</Description><StartTime><Timestamp dt:dt=""int"">0</Timestamp><DateUtc dt:dt=""string"">2018-10-10T17:09:17Z</DateUtc></StartTime><FrequencyChanges><FrequencyChange><Frequency dt:dt=""r8"">3215292</Frequency><Timestamp dt:dt=""r8"">3905219894117</Timestamp><Current dt:dt=""r8"">0</Current><DateUtc dt:dt=""string"">2018-10-10T17:09:17Z</DateUtc></FrequencyChange></FrequencyChanges></Clock>\n",KW_Experiment5A-9-1,59.944,1.0.0.105,1,1095277310,Professional,2.0.10.353,2.0.10.353,10/10/2018,10/10/2018 17:09,13:09:17,2.0.10.248,2,2,1,2,,,,,,,,TrainingProc,BlockList,34,1,Distractor1.bmp,1,0,,0,1,448656,500,,0,0,purple,500,2,500,5,vertical,purple,Distractor2.bmp,lime,Target1.bmp,red,Distractor1.bmp,blue,Distractor2.bmp,yellow,Distractor1.bmp,cyan,Distractor1.bmp,,,,TrialProc,,TrainingTrialList,1,1,-999999,0,449156,0,1,766,449922,Target1.bmp,lime,1,,,,2,2,34
KW_Experiment5A,9,1,"<?xml version=""1.0""?>\n<Clock xmlns:dt=""urn:schemas-microsoft-com:datatypes""><Description dt:dt=""string"">E-Prime Primary Realtime Clock</Description><StartTime><Timestamp dt:dt=""int"">0</Timestamp><DateUtc dt:dt=""string"">2018-10-10T17:09:17Z</DateUtc></StartTime><FrequencyChanges><FrequencyChange><Frequency dt:dt=""r8"">3215292</Frequency><Timestamp dt:dt=""r8"">3905219894117</Timestamp><Current dt:dt=""r8"">0</Current><DateUtc dt:dt=""string"">2018-10-10T17:09:17Z</DateUtc></FrequencyChange></FrequencyChanges></Clock>\n",KW_Experiment5A-9-1,59.944,1.0.0.105,1,1095277310,Professional,2.0.10.353,2.0.10.353,10/10/2018,10/10/2018 17:09,13:09:17,2.0.10.248,2,2,1,2,,,,,,,,TrainingProc,BlockList,35,2,Distractor1.bmp,1,0,,0,1,450941,601,,0,0,yellow,600,3,600,2,horizontal,lime,Target2.bmp,yellow,Distractor1.bmp,blue,Distractor1.bmp,cyan,Distractor2.bmp,purple,Distractor1.bmp,red,Distractor1.bmp,,,,TrialProc,,TrainingTrialList,1,2,-999999,1,451542,0,2,628,452170,Target2.bmp,lime,2,,,,1,2,35
KW_Experiment5A,9,1,"<?xml version=""1.0""?>\n<Clock xmlns:dt=""urn:schemas-microsoft-com:datatypes""><Description dt:dt=""string"">E-Prime Primary Realtime Clock</Description><StartTime><Timestamp dt:dt=""int"">0</Timestamp><DateUtc dt:dt=""string"">2018-10-10T17:09:17Z</DateUtc></StartTime><FrequencyChanges><FrequencyChange><Frequency dt:dt=""r8"">3215292</Frequency><Timestamp dt:dt=""r8"">3905219894117</Timestamp><Current dt:dt=""r8"">0</Current><DateUtc dt:dt=""string"">2018-10-10T17:09:17Z</DateUtc></FrequencyChange></FrequencyChanges></Clock>\n",KW_Experiment5A-9-1,59.944,1.0.0.105,1,1095277310,Professional,2.0.10.353,2.0.10.353,10/10/2018,10/10/2018 17:09,13:09:17,2.0.10.248,2,2,1,2,,,,,,,,TrainingProc,BlockList,36,1,Distractor1.bmp,1,0,,0,1,453193,501,,0,0,yellow,500,2,500,2,vertical,yellow,Distractor1.bmp,blue,Distractor1.bmp,purple,Distractor2.bmp,cyan,Distractor2.bmp,red,Distractor2.bmp,lime,Target1.bmp,,,,TrialProc,,TrainingTrialList,1,1,-999999,1,453694,0,1,612,454306,Target1.bmp,lime,1,,,,6,2,36
KW_Experiment5A,9,1,"<?xml version=""1.0""?>\n<Clock xmlns:dt=""urn:schemas-microsoft-com:datatypes""><Description dt:dt=""string"">E-Prime Primary Realtime Clock</Description><StartTime><Timestamp dt:dt=""int"">0</Timestamp><DateUtc dt:dt=""string"">2018-10-10T17:09:17Z</DateUtc></StartTime><FrequencyChanges><FrequencyChange><Frequency dt:dt=""r8"">3215292</Frequency><Timestamp dt:dt=""r8"">3905219894117</Timestamp><Current dt:dt=""r8"">0</Current><DateUtc dt:dt=""string"">2018-10-10T17:09:17Z</DateUtc></FrequencyChange></FrequencyChanges></Clock>\n",KW_Experiment5A-9-1,59.944,1.0.0.105,1,1095277310,Professional,2.0.10.353,2.0.10.353,10/10/2018,10/10/2018 17:09,13:09:17,2.0.10.248,2,2,1,2,,,,,,,,TrainingProc,BlockList,37,1,Distractor1.bmp,1,0,,0,1,455329,400,,0,0,purple,400,1,400,5,vertical,lime,Target1.bmp,purple,Distractor1.bmp,blue,Distractor2.bmp,yellow,Distractor2.bmp,cyan,Distractor1.bmp,red,Distractor2.bmp,,,,TrialProc,,TrainingTrialList,1,1,-999999,0,455729,0,1,937,456666,Target1.bmp,lime,1,,,,1,2,37
KW_Experiment5A,9,1,"<?xml version=""1.0""?>\n<Clock xmlns:dt=""urn:schemas-microsoft-com:datatypes""><Description dt:dt=""string"">E-Prime Primary Realtime Clock</Description><StartTime><Timestamp dt:dt=""int"">0</Timestamp><DateUtc dt:dt=""string"">2018-10-10T17:09:17Z</DateUtc></StartTime><FrequencyChanges><FrequencyChange><Frequency dt:dt=""r8"">3215292</Frequency><Timestamp dt:dt=""r8"">3905219894117</Timestamp><Current dt:dt=""r8"">0</Current><DateUtc dt:dt=""string"">2018-10-10T17:09:17Z</DateUtc></FrequencyChange></FrequencyChanges></Clock>\n",KW_Experiment5A-9-1,59.944,1.0.0.105,1,1095277310,Professional,2.0.10.353,2.0.10.353,10/10/2018,10/10/2018 17:09,13:09:17,2.0.10.248,2,2,1,2,,,,,,,,TrainingProc,BlockList,38,1,Distractor2.bmp,2,0,,0,1,457681,600,,0,0,purple,600,3,600,5,vertical,lime,Target1.bmp,purple,Distractor2.bmp,red,Distractor1.bmp,blue,Distractor2.bmp,cyan,Distractor1.bmp,yellow,Distractor2.bmp,,,,TrialProc,,TrainingTrialList,1,1,-999999,0,458281,0,1,649,458930,Target1.bmp,lime,1,,,,1,2,38
KW_Experiment5A,9,1,"<?xml version=""1.0""?>\n<Clock xmlns:dt=""urn:schemas-microsoft-com:datatypes""><Description dt:dt=""string"">E-Prime Primary Realtime Clock</Description><StartTime><Timestamp dt:dt=""int"">0</Timestamp><DateUtc dt:dt=""string"">2018-10-10T17:09:17Z</DateUtc></StartTime><FrequencyChanges><FrequencyChange><Frequency dt:dt=""r8"">3215292</Frequency><Timestamp dt:dt=""r8"">3905219894117</Timestamp><Current dt:dt=""r8"">0</Current><DateUtc dt:dt=""string"">2018-10-10T17:09:17Z</DateUtc></FrequencyChange></FrequencyChanges></Clock>\n",KW_Experiment5A-9-1,59.944,1.0.0.105,1,1095277310,Professional,2.0.10.353,2.0.10.353,10/10/2018,10/10/2018 17:09,13:09:17,2.0.10.248,2,2,1,2,,,,,,,,TrainingProc,BlockList,39,2,Distractor2.bmp,2,0,,0,1,459949,501,,0,0,purple,500,2,500,,horizontal,red,Target2.bmp,yellow,Distractor2.bmp,cyan,Distractor1.bmp,blue,Distractor2.bmp,lime,Distractor1.bmp,purple,Distractor1.bmp,,,,TrialProc,5,TrainingTrialList,1,2,-999999,1,460450,0,2,744,461194,Target2.bmp,red,2,,,,7,2,39
KW_Experiment5A,9,1,"<?xml version=""1.0""?>\n<Clock xmlns:dt=""urn:schemas-microsoft-com:datatypes""><Description dt:dt=""string"">E-Prime Primary Realtime Clock</Description><StartTime><Timestamp dt:dt=""int"">0</Timestamp><DateUtc dt:dt=""string"">2018-10-10T17:09:17Z</DateUtc></StartTime><FrequencyChanges><FrequencyChange><Frequency dt:dt=""r8"">3215292</Frequency><Timestamp dt:dt=""r8"">3905219894117</Timestamp><Current dt:dt=""r8"">0</Current><DateUtc dt:dt=""string"">2018-10-10T17:09:17Z</DateUtc></FrequencyChange></FrequencyChanges></Clock>\n",KW_Experiment5A-9-1,59.944,1.0.0.105,1,1095277310,Professional,2.0.10.353,2.0.10.353,10/10/2018,10/10/2018 17:09,13:09:17,2.0.10.248,2,2,1,2,,,,,,,,TrainingProc,BlockList,40,1,Distractor1.bmp,1,0,,0,1,462218,501,,0,0,blue,500,2,500,3,vertical,blue,Distractor2.bmp,purple,Distractor2.bmp,red,Distractor1.bmp,cyan,Distractor2.bmp,lime,Target1.bmp,yellow,Distractor1.bmp,,,,TrialProc,,TrainingTrialList,1,1,-999999,1,462719,0,1,1251,463970,Target1.bmp,lime,1,,,,5,2,40
KW_Experiment5A,9,1,"<?xml version=""1.0""?>\n<Clock xmlns:dt=""urn:schemas-microsoft-com:datatypes""><Description dt:dt=""string"">E-Prime Primary Realtime Clock</Description><StartTime><Timestamp dt:dt=""int"">0</Timestamp><DateUtc dt:dt=""string"">2018-10-10T17:09:17Z</DateUtc></StartTime><FrequencyChanges><FrequencyChange><Frequency dt:dt=""r8"">3215292</Frequency><Timestamp dt:dt=""r8"">3905219894117</Timestamp><Current dt:dt=""r8"">0</Current><DateUtc dt:dt=""string"">2018-10-10T17:09:17Z</DateUtc></FrequencyChange></FrequencyChanges></Clock>\n",KW_Experiment5A-9-1,59.944,1.0.0.105,1,1095277310,Professional,2.0.10.353,2.0.10.353,10/10/2018,10/10/2018 17:09,13:09:17,2.0.10.248,2,2,1,2,,,,,,,,TrainingProc,BlockList,41,2,Distractor2.bmp,2,0,,0,1,464987,601,,0,0,blue,600,3,600,3,horizontal,blue,Distractor1.bmp,red,Distractor2.bmp,lime,Target2.bmp,purple,Distractor2.bmp,yellow,Distractor1.bmp,cyan,Distractor1.bmp,,,,TrialProc,,TrainingTrialList,1,2,-999999,1,465588,0,2,1182,466770,Target2.bmp,lime,2,,,,3,2,41
KW_Experiment5A,9,1,"<?xml version=""1.0""?>\n<Clock xmlns:dt=""urn:schemas-microsoft-com:datatypes""><Description dt:dt=""string"">E-Prime Primary Realtime Clock</Description><StartTime><Timestamp dt:dt=""int"">0</Timestamp><DateUtc dt:dt=""string"">2018-10-10T17:09:17Z</DateUtc></StartTime><FrequencyChanges><FrequencyChange><Frequency dt:dt=""r8"">3215292</Frequency><Timestamp dt:dt=""r8"">3905219894117</Timestamp><Current dt:dt=""r8"">0</Current><DateUtc dt:dt=""string"">2018-10-10T17:09:17Z</DateUtc></FrequencyChange></FrequencyChanges></Clock>\n",KW_Experiment5A-9-1,59.944,1.0.0.105,1,1095277310,Professional,2.0.10.353,2.0.10.353,10/10/2018,10/10/2018 17:09,13:09:17,2.0.10.248,2,2,1,2,,,,,,,,TrainingProc,BlockList,42,1,Distractor2.bmp,2,0,,0,1,467790,400,,0,0,red,400,1,400,1,vertical,red,Distractor1.bmp,cyan,Distractor2.bmp,blue,Distractor1.bmp,lime,Target1.bmp,purple,Distractor2.bmp,yellow,Distractor2.bmp,,,,TrialProc,,TrainingTrialList,1,1,-999999,0,468190,0,1,1403,469593,Target1.bmp,lime,1,,,,4,2,42
KW_Experiment5A,9,1,"<?xml version=""1.0""?>\n<Clock xmlns:dt=""urn:schemas-microsoft-com:datatypes""><Description dt:dt=""string"">E-Prime Primary Realtime Clock</Description><StartTime><Timestamp dt:dt=""int"">0</Timestamp><DateUtc dt:dt=""string"">2018-10-10T17:09:17Z</DateUtc></StartTime><FrequencyChanges><FrequencyChange><Frequency dt:dt=""r8"">3215292</Frequency><Timestamp dt:dt=""r8"">3905219894117</Timestamp><Current dt:dt=""r8"">0</Current><DateUtc dt:dt=""string"">2018-10-10T17:09:17Z</DateUtc></FrequencyChange></FrequencyChanges></Clock>\n",KW_Experiment5A-9-1,59.944,1.0.0.105,1,1095277310,Professional,2.0.10.353,2.0.10.353,10/10/2018,10/10/2018 17:09,13:09:17,2.0.10.248,2,2,1,2,,,,,,,,TrainingProc,BlockList,43,1,Distractor1.bmp,1,0,,0,1,470609,601,,0,0,cyan,600,3,600,4,vertical,cyan,Distractor2.bmp,purple,Distractor2.bmp,red,Distractor1.bmp,yellow,Distractor1.bmp,lime,Target1.bmp,blue,Distractor1.bmp,,,,TrialProc,,TrainingTrialList,1,1,-999999,1,471210,0,1,671,471881,Target1.bmp,lime,1,,,,5,2,43
KW_Experiment5A,9,1,"<?xml version=""1.0""?>\n<Clock xmlns:dt=""urn:schemas-microsoft-com:datatypes""><Description dt:dt=""string"">E-Prime Primary Realtime Clock</Description><StartTime><Timestamp dt:dt=""int"">0</Timestamp><DateUtc dt:dt=""string"">2018-10-10T17:09:17Z</DateUtc></StartTime><FrequencyChanges><FrequencyChange><Frequency dt:dt=""r8"">3215292</Frequency><Timestamp dt:dt=""r8"">3905219894117</Timestamp><Current dt:dt=""r8"">0</Current><DateUtc dt:dt=""string"">2018-10-10T17:09:17Z</DateUtc></FrequencyChange></FrequencyChanges></Clock>\n",KW_Experiment5A-9-1,59.944,1.0.0.105,1,1095277310,Professional,2.0.10.353,2.0.10.353,10/10/2018,10/10/2018 17:09,13:09:17,2.0.10.248,2,2,1,2,,,,,,,,TrainingProc,BlockList,44,1,Distractor2.bmp,2,0,,0,1,472895,600,,0,0,yellow,600,3,600,,vertical,yellow,Distractor1.bmp,purple,Distractor2.bmp,blue,Distractor2.bmp,red,Target1.bmp,cyan,Distractor2.bmp,lime,Distractor2.bmp,,,,TrialProc,2,TrainingTrialList,1,1,-999999,0,473495,0,1,1226,474721,Target1.bmp,red,1,,,,10,2,44
KW_Experiment5A,9,1,"<?xml version=""1.0""?>\n<Clock xmlns:dt=""urn:schemas-microsoft-com:datatypes""><Description dt:dt=""string"">E-Prime Primary Realtime Clock</Description><StartTime><Timestamp dt:dt=""int"">0</Timestamp><DateUtc dt:dt=""string"">2018-10-10T17:09:17Z</DateUtc></StartTime><FrequencyChanges><FrequencyChange><Frequency dt:dt=""r8"">3215292</Frequency><Timestamp dt:dt=""r8"">3905219894117</Timestamp><Current dt:dt=""r8"">0</Current><DateUtc dt:dt=""string"">2018-10-10T17:09:17Z</DateUtc></FrequencyChange></FrequencyChanges></Clock>\n",KW_Experiment5A-9-1,59.944,1.0.0.105,1,1095277310,Professional,2.0.10.353,2.0.10.353,10/10/2018,10/10/2018 17:09,13:09:17,2.0.10.248,2,2,1,2,,,,,,,,TrainingProc,BlockList,45,1,Distractor2.bmp,2,0,,0,1,475747,501,,0,0,yellow,500,2,500,,vertical,yellow,Distractor1.bmp,red,Target1.bmp,blue,Distractor2.bmp,purple,Distractor1.bmp,cyan,Distractor2.bmp,lime,Distractor2.bmp,,,,TrialProc,2,TrainingTrialList,1,1,-999999,1,476248,0,1,1313,477561,Target1.bmp,red,1,,,,8,2,45
KW_Experiment5A,9,1,"<?xml version=""1.0""?>\n<Clock xmlns:dt=""urn:schemas-microsoft-com:datatypes""><Description dt:dt=""string"">E-Prime Primary Realtime Clock</Description><StartTime><Timestamp dt:dt=""int"">0</Timestamp><DateUtc dt:dt=""string"">2018-10-10T17:09:17Z</DateUtc></StartTime><FrequencyChanges><FrequencyChange><Frequency dt:dt=""r8"">3215292</Frequency><Timestamp dt:dt=""r8"">3905219894117</Timestamp><Current dt:dt=""r8"">0</Current><DateUtc dt:dt=""string"">2018-10-10T17:09:17Z</DateUtc></FrequencyChange></FrequencyChanges></Clock>\n",KW_Experiment5A-9-1,59.944,1.0.0.105,1,1095277310,Professional,2.0.10.353,2.0.10.353,10/10/2018,10/10/2018 17:09,13:09:17,2.0.10.248,2,2,1,2,,,,,,,,TrainingProc,BlockList,46,2,Distractor2.bmp,2,0,,0,1,478583,400,,0,0,purple,400,1,400,,horizontal,purple,Distractor2.bmp,cyan,Distractor2.bmp,red,Target2.bmp,lime,Distractor2.bmp,blue,Distractor1.bmp,yellow,Distractor1.bmp,,,,TrialProc,5,TrainingTrialList,1,2,-999999,0,478983,0,2,1466,480449,Target2.bmp,red,2,,,,9,2,46
KW_Experiment5A,9,1,"<?xml version=""1.0""?>\n<Clock xmlns:dt=""urn:schemas-microsoft-com:datatypes""><Description dt:dt=""string"">E-Prime Primary Realtime Clock</Description><StartTime><Timestamp dt:dt=""int"">0</Timestamp><DateUtc dt:dt=""string"">2018-10-10T17:09:17Z</DateUtc></StartTime><FrequencyChanges><FrequencyChange><Frequency dt:dt=""r8"">3215292</Frequency><Timestamp dt:dt=""r8"">3905219894117</Timestamp><Current dt:dt=""r8"">0</Current><DateUtc dt:dt=""string"">2018-10-10T17:09:17Z</DateUtc></FrequencyChange></FrequencyChanges></Clock>\n",KW_Experiment5A-9-1,59.944,1.0.0.105,1,1095277310,Professional,2.0.10.353,2.0.10.353,10/10/2018,10/10/2018 17:09,13:09:17,2.0.10.248,2,2,1,2,,,,,,,,TrainingProc,BlockList,47,2,Distractor2.bmp,2,0,,0,1,481469,600,,0,0,purple,600,3,600,5,horizontal,purple,Distractor1.bmp,cyan,Distractor1.bmp,lime,Target2.bmp,yellow,Distractor2.bmp,blue,Distractor1.bmp,red,Distractor1.bmp,,,,TrialProc,,TrainingTrialList,1,2,-999999,0,482069,0,2,1220,483289,Target2.bmp,lime,2,,,,3,2,47
KW_Experiment5A,9,1,"<?xml version=""1.0""?>\n<Clock xmlns:dt=""urn:schemas-microsoft-com:datatypes""><Description dt:dt=""string"">E-Prime Primary Realtime Clock</Description><StartTime><Timestamp dt:dt=""int"">0</Timestamp><DateUtc dt:dt=""string"">2018-10-10T17:09:17Z</DateUtc></StartTime><FrequencyChanges><FrequencyChange><Frequency dt:dt=""r8"">3215292</Frequency><Timestamp dt:dt=""r8"">3905219894117</Timestamp><Current dt:dt=""r8"">0</Current><DateUtc dt:dt=""string"">2018-10-10T17:09:17Z</DateUtc></FrequencyChange></FrequencyChanges></Clock>\n",KW_Experiment5A-9-1,59.944,1.0.0.105,1,1095277310,Professional,2.0.10.353,2.0.10.353,10/10/2018,10/10/2018 17:09,13:09:17,2.0.10.248,2,2,1,2,,,,,,,,TrainingProc,BlockList,48,1,Distractor1.bmp,1,0,,0,1,484305,600,,0,0,red,600,3,600,1,vertical,red,Distractor1.bmp,yellow,Distractor2.bmp,cyan,Distractor2.bmp,purple,Distractor2.bmp,blue,Distractor1.bmp,lime,Target1.bmp,,,,TrialProc,,TrainingTrialList,1,1,-999999,0,484905,0,1,688,485593,Target1.bmp,lime,1,,,,6,2,48
KW_Experiment5A,9,1,"<?xml version=""1.0""?>\n<Clock xmlns:dt=""urn:schemas-microsoft-com:datatypes""><Description dt:dt=""string"">E-Prime Primary Realtime Clock</Description><StartTime><Timestamp dt:dt=""int"">0</Timestamp><DateUtc dt:dt=""string"">2018-10-10T17:09:17Z</DateUtc></StartTime><FrequencyChanges><FrequencyChange><Frequency dt:dt=""r8"">3215292</Frequency><Timestamp dt:dt=""r8"">3905219894117</Timestamp><Current dt:dt=""r8"">0</Current><DateUtc dt:dt=""string"">2018-10-10T17:09:17Z</DateUtc></FrequencyChange></FrequencyChanges></Clock>\n",KW_Experiment5A-9-1,59.944,1.0.0.105,1,1095277310,Professional,2.0.10.353,2.0.10.353,10/10/2018,10/10/2018 17:09,13:09:17,2.0.10.248,3,2,1,3,,,,,,,,TrainingProc,BlockList,1,2,Distractor2.bmp,2,0,,0,23,488592,501,,0,0,yellow,500,2,500,2,horizontal,yellow,Distractor2.bmp,red,Distractor2.bmp,blue,Distractor2.bmp,purple,Distractor2.bmp,cyan,Distractor2.bmp,lime,Target2.bmp,,,,TrialProc,,TrainingTrialList,0,2,-999999,1,489093,0,1,676,489769,Target2.bmp,lime,2,,,,6,3,49
KW_Experiment5A,9,1,"<?xml version=""1.0""?>\n<Clock xmlns:dt=""urn:schemas-microsoft-com:datatypes""><Description dt:dt=""string"">E-Prime Primary Realtime Clock</Description><StartTime><Timestamp dt:dt=""int"">0</Timestamp><DateUtc dt:dt=""string"">2018-10-10T17:09:17Z</DateUtc></StartTime><FrequencyChanges><FrequencyChange><Frequency dt:dt=""r8"">3215292</Frequency><Timestamp dt:dt=""r8"">3905219894117</Timestamp><Current dt:dt=""r8"">0</Current><DateUtc dt:dt=""string"">2018-10-10T17:09:17Z</DateUtc></FrequencyChange></FrequencyChanges></Clock>\n",KW_Experiment5A-9-1,59.944,1.0.0.105,1,1095277310,Professional,2.0.10.353,2.0.10.353,10/10/2018,10/10/2018 17:09,13:09:17,2.0.10.248,3,2,1,3,,,,,,,,TrainingProc,BlockList,2,2,Distractor1.bmp,1,0,,0,1,490794,601,,0,0,purple,600,3,600,5,horizontal,purple,Distractor1.bmp,cyan,Distractor2.bmp,red,Distractor2.bmp,blue,Distractor1.bmp,lime,Target2.bmp,yellow,Distractor1.bmp,,,,TrialProc,,TrainingTrialList,1,2,-999999,1,491395,0,2,1470,492865,Target2.bmp,lime,2,,,,5,3,50
KW_Experiment5A,9,1,"<?xml version=""1.0""?>\n<Clock xmlns:dt=""urn:schemas-microsoft-com:datatypes""><Description dt:dt=""string"">E-Prime Primary Realtime Clock</Description><StartTime><Timestamp dt:dt=""int"">0</Timestamp><DateUtc dt:dt=""string"">2018-10-10T17:09:17Z</DateUtc></StartTime><FrequencyChanges><FrequencyChange><Frequency dt:dt=""r8"">3215292</Frequency><Timestamp dt:dt=""r8"">3905219894117</Timestamp><Current dt:dt=""r8"">0</Current><DateUtc dt:dt=""string"">2018-10-10T17:09:17Z</DateUtc></FrequencyChange></FrequencyChanges></Clock>\n",KW_Experiment5A-9-1,59.944,1.0.0.105,1,1095277310,Professional,2.0.10.353,2.0.10.353,10/10/2018,10/10/2018 17:09,13:09:17,2.0.10.248,3,2,1,3,,,,,,,,TrainingProc,BlockList,3,2,Distractor2.bmp,2,0,,0,1,493880,401,,0,0,purple,400,1,400,5,horizontal,purple,Distractor1.bmp,blue,Distractor1.bmp,yellow,Distractor1.bmp,lime,Target2.bmp,red,Distractor2.bmp,cyan,Distractor2.bmp,,,,TrialProc,,TrainingTrialList,1,2,-999999,1,494281,0,2,1032,495313,Target2.bmp,lime,2,,,,4,3,51
KW_Experiment5A,9,1,"<?xml version=""1.0""?>\n<Clock xmlns:dt=""urn:schemas-microsoft-com:datatypes""><Description dt:dt=""string"">E-Prime Primary Realtime Clock</Description><StartTime><Timestamp dt:dt=""int"">0</Timestamp><DateUtc dt:dt=""string"">2018-10-10T17:09:17Z</DateUtc></StartTime><FrequencyChanges><FrequencyChange><Frequency dt:dt=""r8"">3215292</Frequency><Timestamp dt:dt=""r8"">3905219894117</Timestamp><Current dt:dt=""r8"">0</Current><DateUtc dt:dt=""string"">2018-10-10T17:09:17Z</DateUtc></FrequencyChange></FrequencyChanges></Clock>\n",KW_Experiment5A-9-1,59.944,1.0.0.105,1,1095277310,Professional,2.0.10.353,2.0.10.353,10/10/2018,10/10/2018 17:09,13:09:17,2.0.10.248,3,2,1,3,,,,,,,,TrainingProc,BlockList,4,2,Distractor1.bmp,1,0,,1,0,496332,601,,0,0,purple,600,3,600,,horizontal,purple,Distractor1.bmp,lime,Distractor2.bmp,cyan,Distractor1.bmp,blue,Distractor1.bmp,red,Target2.bmp,yellow,Distractor1.bmp,,,,TrialProc,5,TrainingTrialList,1,2,-999999,1,496933,0,2,652,497585,Target2.bmp,red,2,,,,11,3,52
KW_Experiment5A,9,1,"<?xml version=""1.0""?>\n<Clock xmlns:dt=""urn:schemas-microsoft-com:datatypes""><Description dt:dt=""string"">E-Prime Primary Realtime Clock</Description><StartTime><Timestamp dt:dt=""int"">0</Timestamp><DateUtc dt:dt=""string"">2018-10-10T17:09:17Z</DateUtc></StartTime><FrequencyChanges><FrequencyChange><Frequency dt:dt=""r8"">3215292</Frequency><Timestamp dt:dt=""r8"">3905219894117</Timestamp><Current dt:dt=""r8"">0</Current><DateUtc dt:dt=""string"">2018-10-10T17:09:17Z</DateUtc></FrequencyChange></FrequencyChanges></Clock>\n",KW_Experiment5A-9-1,59.944,1.0.0.105,1,1095277310,Professional,2.0.10.353,2.0.10.353,10/10/2018,10/10/2018 17:09,13:09:17,2.0.10.248,3,2,1,3,,,,,,,,TrainingProc,BlockList,5,2,Distractor2.bmp,2,0,,0,1,498601,601,,0,0,lime,600,3,600,,horizontal,lime,Distractor1.bmp,purple,Distractor1.bmp,red,Target2.bmp,blue,Distractor2.bmp,yellow,Distractor1.bmp,cyan,Distractor1.bmp,,,,TrialProc,6,TrainingTrialList,1,2,-999999,1,499202,0,2,823,500025,Target2.bmp,red,2,,,,9,3,53
KW_Experiment5A,9,1,"<?xml version=""1.0""?>\n<Clock xmlns:dt=""urn:schemas-microsoft-com:datatypes""><Description dt:dt=""string"">E-Prime Primary Realtime Clock</Description><StartTime><Timestamp dt:dt=""int"">0</Timestamp><DateUtc dt:dt=""string"">2018-10-10T17:09:17Z</DateUtc></StartTime><FrequencyChanges><FrequencyChange><Frequency dt:dt=""r8"">3215292</Frequency><Timestamp dt:dt=""r8"">3905219894117</Timestamp><Current dt:dt=""r8"">0</Current><DateUtc dt:dt=""string"">2018-10-10T17:09:17Z</DateUtc></FrequencyChange></FrequencyChanges></Clock>\n",KW_Experiment5A-9-1,59.944,1.0.0.105,1,1095277310,Professional,2.0.10.353,2.0.10.353,10/10/2018,10/10/2018 17:09,13:09:17,2.0.10.248,3,2,1,3,,,,,,,,TrainingProc,BlockList,6,2,Distractor1.bmp,1,0,,0,1,501037,500,,0,0,purple,500,2,500,5,horizontal,purple,Distractor2.bmp,cyan,Distractor2.bmp,lime,Target2.bmp,red,Distractor1.bmp,yellow,Distractor2.bmp,blue,Distractor2.bmp,,,,TrialProc,,TrainingTrialList,1,2,-999999,0,501537,0,2,792,502329,Target2.bmp,lime,2,,,,3,3,54
KW_Experiment5A,9,1,"<?xml version=""1.0""?>\n<Clock xmlns:dt=""urn:schemas-microsoft-com:datatypes""><Description dt:dt=""string"">E-Prime Primary Realtime Clock</Description><StartTime><Timestamp dt:dt=""int"">0</Timestamp><DateUtc dt:dt=""string"">2018-10-10T17:09:17Z</DateUtc></StartTime><FrequencyChanges><FrequencyChange><Frequency dt:dt=""r8"">3215292</Frequency><Timestamp dt:dt=""r8"">3905219894117</Timestamp><Current dt:dt=""r8"">0</Current><DateUtc dt:dt=""string"">2018-10-10T17:09:17Z</DateUtc></FrequencyChange></FrequencyChanges></Clock>\n",KW_Experiment5A-9-1,59.944,1.0.0.105,1,1095277310,Professional,2.0.10.353,2.0.10.353,10/10/2018,10/10/2018 17:09,13:09:17,2.0.10.248,3,2,1,3,,,,,,,,TrainingProc,BlockList,7,1,Distractor1.bmp,1,0,,0,1,503339,400,,0,0,red,400,1,400,1,vertical,red,Distractor1.bmp,cyan,Distractor2.bmp,blue,Distractor2.bmp,purple,Distractor1.bmp,yellow,Distractor2.bmp,lime,Target1.bmp,,,,TrialProc,,TrainingTrialList,1,1,-999999,0,503739,0,1,622,504361,Target1.bmp,lime,1,,,,6,3,55
KW_Experiment5A,9,1,"<?xml version=""1.0""?>\n<Clock xmlns:dt=""urn:schemas-microsoft-com:datatypes""><Description dt:dt=""string"">E-Prime Primary Realtime Clock</Description><StartTime><Timestamp dt:dt=""int"">0</Timestamp><DateUtc dt:dt=""string"">2018-10-10T17:09:17Z</DateUtc></StartTime><FrequencyChanges><FrequencyChange><Frequency dt:dt=""r8"">3215292</Frequency><Timestamp dt:dt=""r8"">3905219894117</Timestamp><Current dt:dt=""r8"">0</Current><DateUtc dt:dt=""string"">2018-10-10T17:09:17Z</DateUtc></FrequencyChange></FrequencyChanges></Clock>\n",KW_Experiment5A-9-1,59.944,1.0.0.105,1,1095277310,Professional,2.0.10.353,2.0.10.353,10/10/2018,10/10/2018 17:09,13:09:17,2.0.10.248,3,2,1,3,,,,,,,,TrainingProc,BlockList,8,1,Distractor2.bmp,2,0,,0,1,505374,400,,0,0,cyan,400,1,400,4,vertical,cyan,Distractor2.bmp,red,Distractor1.bmp,yellow,Distractor1.bmp,blue,Distractor1.bmp,purple,Distractor2.bmp,lime,Target1.bmp,,,,TrialProc,,TrainingTrialList,1,1,-999999,0,505774,0,1,1195,506969,Target1.bmp,lime,1,,,,6,3,56
KW_Experiment5A,9,1,"<?xml version=""1.0""?>\n<Clock xmlns:dt=""urn:schemas-microsoft-com:datatypes""><Description dt:dt=""string"">E-Prime Primary Realtime Clock</Description><StartTime><Timestamp dt:dt=""int"">0</Timestamp><DateUtc dt:dt=""string"">2018-10-10T17:09:17Z</DateUtc></StartTime><FrequencyChanges><FrequencyChange><Frequency dt:dt=""r8"">3215292</Frequency><Timestamp dt:dt=""r8"">3905219894117</Timestamp><Current dt:dt=""r8"">0</Current><DateUtc dt:dt=""string"">2018-10-10T17:09:17Z</DateUtc></FrequencyChange></FrequencyChanges></Clock>\n",KW_Experiment5A-9-1,59.944,1.0.0.105,1,1095277310,Professional,2.0.10.353,2.0.10.353,10/10/2018,10/10/2018 17:09,13:09:17,2.0.10.248,3,2,1,3,,,,,,,,TrainingProc,BlockList,9,2,Distractor2.bmp,2,0,,0,1,507993,400,,0,0,red,400,1,400,1,horizontal,red,Distractor1.bmp,lime,Target2.bmp,yellow,Distractor2.bmp,blue,Distractor2.bmp,purple,Distractor2.bmp,cyan,Distractor1.bmp,,,,TrialProc,,TrainingTrialList,1,2,-999999,0,508393,0,2,1271,509664,Target2.bmp,lime,2,,,,2,3,57
KW_Experiment5A,9,1,"<?xml version=""1.0""?>\n<Clock xmlns:dt=""urn:schemas-microsoft-com:datatypes""><Description dt:dt=""string"">E-Prime Primary Realtime Clock</Description><StartTime><Timestamp dt:dt=""int"">0</Timestamp><DateUtc dt:dt=""string"">2018-10-10T17:09:17Z</DateUtc></StartTime><FrequencyChanges><FrequencyChange><Frequency dt:dt=""r8"">3215292</Frequency><Timestamp dt:dt=""r8"">3905219894117</Timestamp><Current dt:dt=""r8"">0</Current><DateUtc dt:dt=""string"">2018-10-10T17:09:17Z</DateUtc></FrequencyChange></FrequencyChanges></Clock>\n",KW_Experiment5A-9-1,59.944,1.0.0.105,1,1095277310,Professional,2.0.10.353,2.0.10.353,10/10/2018,10/10/2018 17:09,13:09:17,2.0.10.248,3,2,1,3,,,,,,,,TrainingProc,BlockList,10,1,Distractor1.bmp,1,0,,0,1,510679,400,,0,0,red,400,1,400,1,vertical,red,Distractor1.bmp,cyan,Distractor1.bmp,yellow,Distractor1.bmp,lime,Target1.bmp,purple,Distractor1.bmp,blue,Distractor2.bmp,,,,TrialProc,,TrainingTrialList,1,1,-999999,0,511079,0,1,977,512056,Target1.bmp,lime,1,,,,4,3,58
KW_Experiment5A,9,1,"<?xml version=""1.0""?>\n<Clock xmlns:dt=""urn:schemas-microsoft-com:datatypes""><Description dt:dt=""string"">E-Prime Primary Realtime Clock</Description><StartTime><Timestamp dt:dt=""int"">0</Timestamp><DateUtc dt:dt=""string"">2018-10-10T17:09:17Z</DateUtc></StartTime><FrequencyChanges><FrequencyChange><Frequency dt:dt=""r8"">3215292</Frequency><Timestamp dt:dt=""r8"">3905219894117</Timestamp><Current dt:dt=""r8"">0</Current><DateUtc dt:dt=""string"">2018-10-10T17:09:17Z</DateUtc></FrequencyChange></FrequencyChanges></Clock>\n",KW_Experiment5A-9-1,59.944,1.0.0.105,1,1095277310,Professional,2.0.10.353,2.0.10.353,10/10/2018,10/10/2018 17:09,13:09:17,2.0.10.248,3,2,1,3,,,,,,,,TrainingProc,BlockList,11,1,Distractor1.bmp,1,0,,0,1,513081,601,,0,0,red,600,3,600,1,vertical,red,Distractor2.bmp,yellow,Distractor1.bmp,cyan,Distractor1.bmp,lime,Target1.bmp,purple,Distractor1.bmp,blue,Distractor2.bmp,,,,TrialProc,,TrainingTrialList,1,1,-999999,1,513682,0,1,854,514536,Target1.bmp,lime,1,,,,4,3,59
KW_Experiment5A,9,1,"<?xml version=""1.0""?>\n<Clock xmlns:dt=""urn:schemas-microsoft-com:datatypes""><Description dt:dt=""string"">E-Prime Primary Realtime Clock</Description><StartTime><Timestamp dt:dt=""int"">0</Timestamp><DateUtc dt:dt=""string"">2018-10-10T17:09:17Z</DateUtc></StartTime><FrequencyChanges><FrequencyChange><Frequency dt:dt=""r8"">3215292</Frequency><Timestamp dt:dt=""r8"">3905219894117</Timestamp><Current dt:dt=""r8"">0</Current><DateUtc dt:dt=""string"">2018-10-10T17:09:17Z</DateUtc></FrequencyChange></FrequencyChanges></Clock>\n",KW_Experiment5A-9-1,59.944,1.0.0.105,1,1095277310,Professional,2.0.10.353,2.0.10.353,10/10/2018,10/10/2018 17:09,13:09:17,2.0.10.248,3,2,1,3,,,,,,,,TrainingProc,BlockList,12,1,Distractor1.bmp,1,0,,0,1,515550,601,,0,0,cyan,600,3,600,4,vertical,lime,Target1.bmp,cyan,Distractor1.bmp,red,Distractor1.bmp,purple,Distractor2.bmp,blue,Distractor1.bmp,yellow,Distractor1.bmp,,,,TrialProc,,TrainingTrialList,1,1,-999999,1,516151,0,1,569,516720,Target1.bmp,lime,1,,,,1,3,60
KW_Experiment5A,9,1,"<?xml version=""1.0""?>\n<Clock xmlns:dt=""urn:schemas-microsoft-com:datatypes""><Description dt:dt=""string"">E-Prime Primary Realtime Clock</Description><StartTime><Timestamp dt:dt=""int"">0</Timestamp><DateUtc dt:dt=""string"">2018-10-10T17:09:17Z</DateUtc></StartTime><FrequencyChanges><FrequencyChange><Frequency dt:dt=""r8"">3215292</Frequency><Timestamp dt:dt=""r8"">3905219894117</Timestamp><Current dt:dt=""r8"">0</Current><DateUtc dt:dt=""string"">2018-10-10T17:09:17Z</DateUtc></FrequencyChange></FrequencyChanges></Clock>\n",KW_Experiment5A-9-1,59.944,1.0.0.105,1,1095277310,Professional,2.0.10.353,2.0.10.353,10/10/2018,10/10/2018 17:09,13:09:17,2.0.10.248,3,2,1,3,,,,,,,,TrainingProc,BlockList,13,2,Distractor1.bmp,1,0,,0,1,517735,401,,0,0,yellow,400,1,400,2,horizontal,yellow,Distractor2.bmp,purple,Distractor2.bmp,lime,Target2.bmp,red,Distractor1.bmp,blue,Distractor1.bmp,cyan,Distractor1.bmp,,,,TrialProc,,TrainingTrialList,1,2,-999999,1,518136,0,2,728,518864,Target2.bmp,lime,2,,,,3,3,61
KW_Experiment5A,9,1,"<?xml version=""1.0""?>\n<Clock xmlns:dt=""urn:schemas-microsoft-com:datatypes""><Description dt:dt=""string"">E-Prime Primary Realtime Clock</Description><StartTime><Timestamp dt:dt=""int"">0</Timestamp><DateUtc dt:dt=""string"">2018-10-10T17:09:17Z</DateUtc></StartTime><FrequencyChanges><FrequencyChange><Frequency dt:dt=""r8"">3215292</Frequency><Timestamp dt:dt=""r8"">3905219894117</Timestamp><Current dt:dt=""r8"">0</Current><DateUtc dt:dt=""string"">2018-10-10T17:09:17Z</DateUtc></FrequencyChange></FrequencyChanges></Clock>\n",KW_Experiment5A-9-1,59.944,1.0.0.105,1,1095277310,Professional,2.0.10.353,2.0.10.353,10/10/2018,10/10/2018 17:09,13:09:17,2.0.10.248,3,2,1,3,,,,,,,,TrainingProc,BlockList,14,1,Distractor1.bmp,1,0,,0,1,519887,601,,0,0,blue,600,3,600,3,vertical,lime,Target1.bmp,blue,Distractor1.bmp,cyan,Distractor1.bmp,red,Distractor2.bmp,purple,Distractor2.bmp,yellow,Distractor2.bmp,,,,TrialProc,,TrainingTrialList,1,1,-999999,1,520488,0,1,560,521048,Target1.bmp,lime,1,,,,1,3,62
KW_Experiment5A,9,1,"<?xml version=""1.0""?>\n<Clock xmlns:dt=""urn:schemas-microsoft-com:datatypes""><Description dt:dt=""string"">E-Prime Primary Realtime Clock</Description><StartTime><Timestamp dt:dt=""int"">0</Timestamp><DateUtc dt:dt=""string"">2018-10-10T17:09:17Z</DateUtc></StartTime><FrequencyChanges><FrequencyChange><Frequency dt:dt=""r8"">3215292</Frequency><Timestamp dt:dt=""r8"">3905219894117</Timestamp><Current dt:dt=""r8"">0</Current><DateUtc dt:dt=""string"">2018-10-10T17:09:17Z</DateUtc></FrequencyChange></FrequencyChanges></Clock>\n",KW_Experiment5A-9-1,59.944,1.0.0.105,1,1095277310,Professional,2.0.10.353,2.0.10.353,10/10/2018,10/10/2018 17:09,13:09:17,2.0.10.248,3,2,1,3,,,,,,,,TrainingProc,BlockList,15,1,Distractor2.bmp,2,0,,0,1,522073,600,,0,0,lime,600,3,600,,vertical,lime,Distractor2.bmp,red,Target1.bmp,purple,Distractor2.bmp,cyan,Distractor2.bmp,blue,Distractor2.bmp,yellow,Distractor1.bmp,,,,TrialProc,6,TrainingTrialList,1,1,-999999,0,522673,0,1,1175,523848,Target1.bmp,red,1,,,,8,3,63
KW_Experiment5A,9,1,"<?xml version=""1.0""?>\n<Clock xmlns:dt=""urn:schemas-microsoft-com:datatypes""><Description dt:dt=""string"">E-Prime Primary Realtime Clock</Description><StartTime><Timestamp dt:dt=""int"">0</Timestamp><DateUtc dt:dt=""string"">2018-10-10T17:09:17Z</DateUtc></StartTime><FrequencyChanges><FrequencyChange><Frequency dt:dt=""r8"">3215292</Frequency><Timestamp dt:dt=""r8"">3905219894117</Timestamp><Current dt:dt=""r8"">0</Current><DateUtc dt:dt=""string"">2018-10-10T17:09:17Z</DateUtc></FrequencyChange></FrequencyChanges></Clock>\n",KW_Experiment5A-9-1,59.944,1.0.0.105,1,1095277310,Professional,2.0.10.353,2.0.10.353,10/10/2018,10/10/2018 17:09,13:09:17,2.0.10.248,3,2,1,3,,,,,,,,TrainingProc,BlockList,16,2,Distractor1.bmp,1,0,,0,0,524858,601,,0,0,red,600,3,600,1,horizontal,lime,Target2.bmp,red,Distractor1.bmp,blue,Distractor1.bmp,purple,Distractor2.bmp,cyan,Distractor2.bmp,yellow,Distractor1.bmp,,,,TrialProc,,TrainingTrialList,1,2,-999999,1,525459,0,2,517,525976,Target2.bmp,lime,2,,,,1,3,64
KW_Experiment5A,9,1,"<?xml version=""1.0""?>\n<Clock xmlns:dt=""urn:schemas-microsoft-com:datatypes""><Description dt:dt=""string"">E-Prime Primary Realtime Clock</Description><StartTime><Timestamp dt:dt=""int"">0</Timestamp><DateUtc dt:dt=""string"">2018-10-10T17:09:17Z</DateUtc></StartTime><FrequencyChanges><FrequencyChange><Frequency dt:dt=""r8"">3215292</Frequency><Timestamp dt:dt=""r8"">3905219894117</Timestamp><Current dt:dt=""r8"">0</Current><DateUtc dt:dt=""string"">2018-10-10T17:09:17Z</DateUtc></FrequencyChange></FrequencyChanges></Clock>\n",KW_Experiment5A-9-1,59.944,1.0.0.105,1,1095277310,Professional,2.0.10.353,2.0.10.353,10/10/2018,10/10/2018 17:09,13:09:17,2.0.10.248,3,2,1,3,,,,,,,,TrainingProc,BlockList,17,2,Distractor1.bmp,1,0,,0,1,526994,500,,0,0,purple,500,2,500,,horizontal,purple,Distractor1.bmp,cyan,Distractor1.bmp,blue,Distractor1.bmp,yellow,Distractor2.bmp,lime,Distractor2.bmp,red,Target2.bmp,,,,TrialProc,5,TrainingTrialList,1,2,-999999,0,527494,0,2,890,528384,Target2.bmp,red,2,,,,12,3,65
KW_Experiment5A,9,1,"<?xml version=""1.0""?>\n<Clock xmlns:dt=""urn:schemas-microsoft-com:datatypes""><Description dt:dt=""string"">E-Prime Primary Realtime Clock</Description><StartTime><Timestamp dt:dt=""int"">0</Timestamp><DateUtc dt:dt=""string"">2018-10-10T17:09:17Z</DateUtc></StartTime><FrequencyChanges><FrequencyChange><Frequency dt:dt=""r8"">3215292</Frequency><Timestamp dt:dt=""r8"">3905219894117</Timestamp><Current dt:dt=""r8"">0</Current><DateUtc dt:dt=""string"">2018-10-10T17:09:17Z</DateUtc></FrequencyChange></FrequencyChanges></Clock>\n",KW_Experiment5A-9-1,59.944,1.0.0.105,1,1095277310,Professional,2.0.10.353,2.0.10.353,10/10/2018,10/10/2018 17:09,13:09:17,2.0.10.248,3,2,1,3,,,,,,,,TrainingProc,BlockList,18,1,Distractor1.bmp,1,0,,0,1,529396,400,,0,0,blue,400,1,400,3,vertical,blue,Distractor1.bmp,cyan,Distractor2.bmp,lime,Target1.bmp,red,Distractor1.bmp,purple,Distractor1.bmp,yellow,Distractor1.bmp,,,,TrialProc,,TrainingTrialList,1,1,-999999,0,529796,0,1,980,530776,Target1.bmp,lime,1,,,,3,3,66
KW_Experiment5A,9,1,"<?xml version=""1.0""?>\n<Clock xmlns:dt=""urn:schemas-microsoft-com:datatypes""><Description dt:dt=""string"">E-Prime Primary Realtime Clock</Description><StartTime><Timestamp dt:dt=""int"">0</Timestamp><DateUtc dt:dt=""string"">2018-10-10T17:09:17Z</DateUtc></StartTime><FrequencyChanges><FrequencyChange><Frequency dt:dt=""r8"">3215292</Frequency><Timestamp dt:dt=""r8"">3905219894117</Timestamp><Current dt:dt=""r8"">0</Current><DateUtc dt:dt=""string"">2018-10-10T17:09:17Z</DateUtc></FrequencyChange></FrequencyChanges></Clock>\n",KW_Experiment5A-9-1,59.944,1.0.0.105,1,1095277310,Professional,2.0.10.353,2.0.10.353,10/10/2018,10/10/2018 17:09,13:09:17,2.0.10.248,3,2,1,3,,,,,,,,TrainingProc,BlockList,19,1,Distractor2.bmp,2,0,,0,1,531798,400,,0,0,cyan,400,1,400,4,vertical,cyan,Distractor1.bmp,lime,Target1.bmp,blue,Distractor2.bmp,purple,Distractor2.bmp,yellow,Distractor1.bmp,red,Distractor1.bmp,,,,TrialProc,,TrainingTrialList,1,1,-999999,0,532198,0,1,706,532904,Target1.bmp,lime,1,,,,2,3,67
KW_Experiment5A,9,1,"<?xml version=""1.0""?>\n<Clock xmlns:dt=""urn:schemas-microsoft-com:datatypes""><Description dt:dt=""string"">E-Prime Primary Realtime Clock</Description><StartTime><Timestamp dt:dt=""int"">0</Timestamp><DateUtc dt:dt=""string"">2018-10-10T17:09:17Z</DateUtc></StartTime><FrequencyChanges><FrequencyChange><Frequency dt:dt=""r8"">3215292</Frequency><Timestamp dt:dt=""r8"">3905219894117</Timestamp><Current dt:dt=""r8"">0</Current><DateUtc dt:dt=""string"">2018-10-10T17:09:17Z</DateUtc></FrequencyChange></FrequencyChanges></Clock>\n",KW_Experiment5A-9-1,59.944,1.0.0.105,1,1095277310,Professional,2.0.10.353,2.0.10.353,10/10/2018,10/10/2018 17:09,13:09:17,2.0.10.248,3,2,1,3,,,,,,,,TrainingProc,BlockList,20,2,Distractor1.bmp,1,0,,0,1,533917,400,,0,0,lime,400,1,400,,horizontal,red,Target2.bmp,blue,Distractor1.bmp,yellow,Distractor2.bmp,cyan,Distractor1.bmp,purple,Distractor1.bmp,lime,Distractor1.bmp,,,,TrialProc,6,TrainingTrialList,1,2,-999999,0,534317,0,2,475,534792,Target2.bmp,red,2,,,,7,3,68
KW_Experiment5A,9,1,"<?xml version=""1.0""?>\n<Clock xmlns:dt=""urn:schemas-microsoft-com:datatypes""><Description dt:dt=""string"">E-Prime Primary Realtime Clock</Description><StartTime><Timestamp dt:dt=""int"">0</Timestamp><DateUtc dt:dt=""string"">2018-10-10T17:09:17Z</DateUtc></StartTime><FrequencyChanges><FrequencyChange><Frequency dt:dt=""r8"">3215292</Frequency><Timestamp dt:dt=""r8"">3905219894117</Timestamp><Current dt:dt=""r8"">0</Current><DateUtc dt:dt=""string"">2018-10-10T17:09:17Z</DateUtc></FrequencyChange></FrequencyChanges></Clock>\n",KW_Experiment5A-9-1,59.944,1.0.0.105,1,1095277310,Professional,2.0.10.353,2.0.10.353,10/10/2018,10/10/2018 17:09,13:09:17,2.0.10.248,3,2,1,3,,,,,,,,TrainingProc,BlockList,21,1,Distractor2.bmp,2,0,,0,1,535802,400,,0,0,cyan,400,1,400,,vertical,cyan,Distractor1.bmp,purple,Distractor1.bmp,yellow,Distractor1.bmp,red,Target1.bmp,blue,Distractor2.bmp,lime,Distractor1.bmp,,,,TrialProc,4,TrainingTrialList,1,1,-999999,0,536202,0,1,758,536960,Target1.bmp,red,1,,,,10,3,69
KW_Experiment5A,9,1,"<?xml version=""1.0""?>\n<Clock xmlns:dt=""urn:schemas-microsoft-com:datatypes""><Description dt:dt=""string"">E-Prime Primary Realtime Clock</Description><StartTime><Timestamp dt:dt=""int"">0</Timestamp><DateUtc dt:dt=""string"">2018-10-10T17:09:17Z</DateUtc></StartTime><FrequencyChanges><FrequencyChange><Frequency dt:dt=""r8"">3215292</Frequency><Timestamp dt:dt=""r8"">3905219894117</Timestamp><Current dt:dt=""r8"">0</Current><DateUtc dt:dt=""string"">2018-10-10T17:09:17Z</DateUtc></FrequencyChange></FrequencyChanges></Clock>\n",KW_Experiment5A-9-1,59.944,1.0.0.105,1,1095277310,Professional,2.0.10.353,2.0.10.353,10/10/2018,10/10/2018 17:09,13:09:17,2.0.10.248,3,2,1,3,,,,,,,,TrainingProc,BlockList,22,1,Distractor2.bmp,2,0,,0,1,537970,401,,0,0,purple,400,1,400,5,vertical,purple,Distractor2.bmp,yellow,Distractor1.bmp,cyan,Distractor2.bmp,blue,Distractor2.bmp,lime,Target1.bmp,red,Distractor2.bmp,,,,TrialProc,,TrainingTrialList,1,1,-999999,1,538371,0,1,685,539056,Target1.bmp,lime,1,,,,5,3,70
KW_Experiment5A,9,1,"<?xml version=""1.0""?>\n<Clock xmlns:dt=""urn:schemas-microsoft-com:datatypes""><Description dt:dt=""string"">E-Prime Primary Realtime Clock</Description><StartTime><Timestamp dt:dt=""int"">0</Timestamp><DateUtc dt:dt=""string"">2018-10-10T17:09:17Z</DateUtc></StartTime><FrequencyChanges><FrequencyChange><Frequency dt:dt=""r8"">3215292</Frequency><Timestamp dt:dt=""r8"">3905219894117</Timestamp><Current dt:dt=""r8"">0</Current><DateUtc dt:dt=""string"">2018-10-10T17:09:17Z</DateUtc></FrequencyChange></FrequencyChanges></Clock>\n",KW_Experiment5A-9-1,59.944,1.0.0.105,1,1095277310,Professional,2.0.10.353,2.0.10.353,10/10/2018,10/10/2018 17:09,13:09:17,2.0.10.248,3,2,1,3,,,,,,,,TrainingProc,BlockList,23,1,Distractor2.bmp,2,0,,0,1,540072,601,,0,0,purple,600,3,600,5,vertical,purple,Distractor2.bmp,lime,Target1.bmp,yellow,Distractor2.bmp,cyan,Distractor2.bmp,blue,Distractor2.bmp,red,Distractor2.bmp,,,,TrialProc,,TrainingTrialList,1,1,-999999,1,540673,0,1,479,541152,Target1.bmp,lime,1,,,,2,3,71
KW_Experiment5A,9,1,"<?xml version=""1.0""?>\n<Clock xmlns:dt=""urn:schemas-microsoft-com:datatypes""><Description dt:dt=""string"">E-Prime Primary Realtime Clock</Description><StartTime><Timestamp dt:dt=""int"">0</Timestamp><DateUtc dt:dt=""string"">2018-10-10T17:09:17Z</DateUtc></StartTime><FrequencyChanges><FrequencyChange><Frequency dt:dt=""r8"">3215292</Frequency><Timestamp dt:dt=""r8"">3905219894117</Timestamp><Current dt:dt=""r8"">0</Current><DateUtc dt:dt=""string"">2018-10-10T17:09:17Z</DateUtc></FrequencyChange></FrequencyChanges></Clock>\n",KW_Experiment5A-9-1,59.944,1.0.0.105,1,1095277310,Professional,2.0.10.353,2.0.10.353,10/10/2018,10/10/2018 17:09,13:09:17,2.0.10.248,3,2,1,3,,,,,,,,TrainingProc,BlockList,24,1,Distractor1.bmp,1,0,,0,1,542174,601,,0,0,purple,600,3,600,5,vertical,purple,Distractor1.bmp,red,Distractor1.bmp,cyan,Distractor1.bmp,blue,Distractor1.bmp,lime,Target1.bmp,yellow,Distractor1.bmp,,,,TrialProc,,TrainingTrialList,1,1,-999999,1,542775,0,1,457,543232,Target1.bmp,lime,1,,,,5,3,72
KW_Experiment5A,9,1,"<?xml version=""1.0""?>\n<Clock xmlns:dt=""urn:schemas-microsoft-com:datatypes""><Description dt:dt=""string"">E-Prime Primary Realtime Clock</Description><StartTime><Timestamp dt:dt=""int"">0</Timestamp><DateUtc dt:dt=""string"">2018-10-10T17:09:17Z</DateUtc></StartTime><FrequencyChanges><FrequencyChange><Frequency dt:dt=""r8"">3215292</Frequency><Timestamp dt:dt=""r8"">3905219894117</Timestamp><Current dt:dt=""r8"">0</Current><DateUtc dt:dt=""string"">2018-10-10T17:09:17Z</DateUtc></FrequencyChange></FrequencyChanges></Clock>\n",KW_Experiment5A-9-1,59.944,1.0.0.105,1,1095277310,Professional,2.0.10.353,2.0.10.353,10/10/2018,10/10/2018 17:09,13:09:17,2.0.10.248,3,2,1,3,,,,,,,,TrainingProc,BlockList,25,1,Distractor2.bmp,2,0,,0,1,544243,500,,0,0,red,500,2,500,1,vertical,lime,Target1.bmp,red,Distractor2.bmp,cyan,Distractor1.bmp,blue,Distractor2.bmp,purple,Distractor2.bmp,yellow,Distractor1.bmp,,,,TrialProc,,TrainingTrialList,1,1,-999999,0,544743,0,1,513,545256,Target1.bmp,lime,1,,,,1,4,73
KW_Experiment5A,9,1,"<?xml version=""1.0""?>\n<Clock xmlns:dt=""urn:schemas-microsoft-com:datatypes""><Description dt:dt=""string"">E-Prime Primary Realtime Clock</Description><StartTime><Timestamp dt:dt=""int"">0</Timestamp><DateUtc dt:dt=""string"">2018-10-10T17:09:17Z</DateUtc></StartTime><FrequencyChanges><FrequencyChange><Frequency dt:dt=""r8"">3215292</Frequency><Timestamp dt:dt=""r8"">3905219894117</Timestamp><Current dt:dt=""r8"">0</Current><DateUtc dt:dt=""string"">2018-10-10T17:09:17Z</DateUtc></FrequencyChange></FrequencyChanges></Clock>\n",KW_Experiment5A-9-1,59.944,1.0.0.105,1,1095277310,Professional,2.0.10.353,2.0.10.353,10/10/2018,10/10/2018 17:09,13:09:17,2.0.10.248,3,2,1,3,,,,,,,,TrainingProc,BlockList,26,2,Distractor1.bmp,1,0,,0,1,546278,600,,0,0,purple,600,3,600,,horizontal,purple,Distractor2.bmp,lime,Distractor2.bmp,red,Target2.bmp,yellow,Distractor1.bmp,blue,Distractor1.bmp,cyan,Distractor1.bmp,,,,TrialProc,5,TrainingTrialList,0,2,-999999,0,546878,0,1,514,547392,Target2.bmp,red,2,,,,9,4,74
KW_Experiment5A,9,1,"<?xml version=""1.0""?>\n<Clock xmlns:dt=""urn:schemas-microsoft-com:datatypes""><Description dt:dt=""string"">E-Prime Primary Realtime Clock</Description><StartTime><Timestamp dt:dt=""int"">0</Timestamp><DateUtc dt:dt=""string"">2018-10-10T17:09:17Z</DateUtc></StartTime><FrequencyChanges><FrequencyChange><Frequency dt:dt=""r8"">3215292</Frequency><Timestamp dt:dt=""r8"">3905219894117</Timestamp><Current dt:dt=""r8"">0</Current><DateUtc dt:dt=""string"">2018-10-10T17:09:17Z</DateUtc></FrequencyChange></FrequencyChanges></Clock>\n",KW_Experiment5A-9-1,59.944,1.0.0.105,1,1095277310,Professional,2.0.10.353,2.0.10.353,10/10/2018,10/10/2018 17:09,13:09:17,2.0.10.248,3,2,1,3,,,,,,,,TrainingProc,BlockList,27,2,Distractor1.bmp,1,0,,0,1,548413,401,,0,0,purple,400,1,400,,horizontal,purple,Distractor1.bmp,lime,Distractor1.bmp,yellow,Distractor2.bmp,blue,Distractor2.bmp,red,Target2.bmp,cyan,Distractor1.bmp,,,,TrialProc,5,TrainingTrialList,1,2,-999999,1,548814,0,2,666,549480,Target2.bmp,red,2,,,,11,4,75
KW_Experiment5A,9,1,"<?xml version=""1.0""?>\n<Clock xmlns:dt=""urn:schemas-microsoft-com:datatypes""><Description dt:dt=""string"">E-Prime Primary Realtime Clock</Description><StartTime><Timestamp dt:dt=""int"">0</Timestamp><DateUtc dt:dt=""string"">2018-10-10T17:09:17Z</DateUtc></StartTime><FrequencyChanges><FrequencyChange><Frequency dt:dt=""r8"">3215292</Frequency><Timestamp dt:dt=""r8"">3905219894117</Timestamp><Current dt:dt=""r8"">0</Current><DateUtc dt:dt=""string"">2018-10-10T17:09:17Z</DateUtc></FrequencyChange></FrequencyChanges></Clock>\n",KW_Experiment5A-9-1,59.944,1.0.0.105,1,1095277310,Professional,2.0.10.353,2.0.10.353,10/10/2018,10/10/2018 17:09,13:09:17,2.0.10.248,3,2,1,3,,,,,,,,TrainingProc,BlockList,28,1,Distractor2.bmp,2,0,,0,1,550498,501,,0,0,blue,500,2,500,3,vertical,blue,Distractor2.bmp,cyan,Distractor1.bmp,purple,Distractor2.bmp,red,Distractor1.bmp,yellow,Distractor1.bmp,lime,Target1.bmp,,,,TrialProc,,TrainingTrialList,1,1,-999999,1,550999,0,1,1456,552455,Target1.bmp,lime,1,,,,6,4,76
KW_Experiment5A,9,1,"<?xml version=""1.0""?>\n<Clock xmlns:dt=""urn:schemas-microsoft-com:datatypes""><Description dt:dt=""string"">E-Prime Primary Realtime Clock</Description><StartTime><Timestamp dt:dt=""int"">0</Timestamp><DateUtc dt:dt=""string"">2018-10-10T17:09:17Z</DateUtc></StartTime><FrequencyChanges><FrequencyChange><Frequency dt:dt=""r8"">3215292</Frequency><Timestamp dt:dt=""r8"">3905219894117</Timestamp><Current dt:dt=""r8"">0</Current><DateUtc dt:dt=""string"">2018-10-10T17:09:17Z</DateUtc></FrequencyChange></FrequencyChanges></Clock>\n",KW_Experiment5A-9-1,59.944,1.0.0.105,1,1095277310,Professional,2.0.10.353,2.0.10.353,10/10/2018,10/10/2018 17:09,13:09:17,2.0.10.248,3,2,1,3,,,,,,,,TrainingProc,BlockList,29,1,Distractor1.bmp,1,0,,0,1,553468,400,,0,0,lime,400,1,400,,vertical,lime,Distractor2.bmp,red,Target1.bmp,yellow,Distractor1.bmp,blue,Distractor1.bmp,cyan,Distractor1.bmp,purple,Distractor1.bmp,,,,TrialProc,6,TrainingTrialList,1,1,-999999,0,553868,0,1,739,554607,Target1.bmp,red,1,,,,8,4,77
KW_Experiment5A,9,1,"<?xml version=""1.0""?>\n<Clock xmlns:dt=""urn:schemas-microsoft-com:datatypes""><Description dt:dt=""string"">E-Prime Primary Realtime Clock</Description><StartTime><Timestamp dt:dt=""int"">0</Timestamp><DateUtc dt:dt=""string"">2018-10-10T17:09:17Z</DateUtc></StartTime><FrequencyChanges><FrequencyChange><Frequency dt:dt=""r8"">3215292</Frequency><Timestamp dt:dt=""r8"">3905219894117</Timestamp><Current dt:dt=""r8"">0</Current><DateUtc dt:dt=""string"">2018-10-10T17:09:17Z</DateUtc></FrequencyChange></FrequencyChanges></Clock>\n",KW_Experiment5A-9-1,59.944,1.0.0.105,1,1095277310,Professional,2.0.10.353,2.0.10.353,10/10/2018,10/10/2018 17:09,13:09:17,2.0.10.248,3,2,1,3,,,,,,,,TrainingProc,BlockList,30,1,Distractor1.bmp,1,0,,0,1,555620,600,,0,0,yellow,600,3,600,2,vertical,yellow,Distractor1.bmp,red,Distractor2.bmp,lime,Target1.bmp,blue,Distractor1.bmp,purple,Distractor1.bmp,cyan,Distractor1.bmp,,,,TrialProc,,TrainingTrialList,1,1,-999999,0,556220,0,1,851,557071,Target1.bmp,lime,1,,,,3,4,78
KW_Experiment5A,9,1,"<?xml version=""1.0""?>\n<Clock xmlns:dt=""urn:schemas-microsoft-com:datatypes""><Description dt:dt=""string"">E-Prime Primary Realtime Clock</Description><StartTime><Timestamp dt:dt=""int"">0</Timestamp><DateUtc dt:dt=""string"">2018-10-10T17:09:17Z</DateUtc></StartTime><FrequencyChanges><FrequencyChange><Frequency dt:dt=""r8"">3215292</Frequency><Timestamp dt:dt=""r8"">3905219894117</Timestamp><Current dt:dt=""r8"">0</Current><DateUtc dt:dt=""string"">2018-10-10T17:09:17Z</DateUtc></FrequencyChange></FrequencyChanges></Clock>\n",KW_Experiment5A-9-1,59.944,1.0.0.105,1,1095277310,Professional,2.0.10.353,2.0.10.353,10/10/2018,10/10/2018 17:09,13:09:17,2.0.10.248,3,2,1,3,,,,,,,,TrainingProc,BlockList,31,1,Distractor1.bmp,1,0,,0,1,558089,500,,0,0,red,500,2,500,1,vertical,red,Distractor1.bmp,blue,Distractor1.bmp,purple,Distractor2.bmp,cyan,Distractor2.bmp,yellow,Distractor2.bmp,lime,Target1.bmp,,,,TrialProc,,TrainingTrialList,1,1,-999999,0,558589,0,1,586,559175,Target1.bmp,lime,1,,,,6,4,79
KW_Experiment5A,9,1,"<?xml version=""1.0""?>\n<Clock xmlns:dt=""urn:schemas-microsoft-com:datatypes""><Description dt:dt=""string"">E-Prime Primary Realtime Clock</Description><StartTime><Timestamp dt:dt=""int"">0</Timestamp><DateUtc dt:dt=""string"">2018-10-10T17:09:17Z</DateUtc></StartTime><FrequencyChanges><FrequencyChange><Frequency dt:dt=""r8"">3215292</Frequency><Timestamp dt:dt=""r8"">3905219894117</Timestamp><Current dt:dt=""r8"">0</Current><DateUtc dt:dt=""string"">2018-10-10T17:09:17Z</DateUtc></FrequencyChange></FrequencyChanges></Clock>\n",KW_Experiment5A-9-1,59.944,1.0.0.105,1,1095277310,Professional,2.0.10.353,2.0.10.353,10/10/2018,10/10/2018 17:09,13:09:17,2.0.10.248,3,2,1,3,,,,,,,,TrainingProc,BlockList,32,2,Distractor2.bmp,2,0,,0,1,560191,400,,0,0,yellow,400,1,400,2,horizontal,yellow,Distractor2.bmp,red,Distractor2.bmp,lime,Target2.bmp,blue,Distractor2.bmp,purple,Distractor2.bmp,cyan,Distractor2.bmp,,,,TrialProc,,TrainingTrialList,1,2,-999999,0,560591,0,2,992,561583,Target2.bmp,lime,2,,,,3,4,80
KW_Experiment5A,9,1,"<?xml version=""1.0""?>\n<Clock xmlns:dt=""urn:schemas-microsoft-com:datatypes""><Description dt:dt=""string"">E-Prime Primary Realtime Clock</Description><StartTime><Timestamp dt:dt=""int"">0</Timestamp><DateUtc dt:dt=""string"">2018-10-10T17:09:17Z</DateUtc></StartTime><FrequencyChanges><FrequencyChange><Frequency dt:dt=""r8"">3215292</Frequency><Timestamp dt:dt=""r8"">3905219894117</Timestamp><Current dt:dt=""r8"">0</Current><DateUtc dt:dt=""string"">2018-10-10T17:09:17Z</DateUtc></FrequencyChange></FrequencyChanges></Clock>\n",KW_Experiment5A-9-1,59.944,1.0.0.105,1,1095277310,Professional,2.0.10.353,2.0.10.353,10/10/2018,10/10/2018 17:09,13:09:17,2.0.10.248,3,2,1,3,,,,,,,,TrainingProc,BlockList,33,1,Distractor1.bmp,1,0,,0,1,562593,400,,0,0,blue,400,1,400,3,vertical,blue,Distractor1.bmp,purple,Distractor1.bmp,yellow,Distractor2.bmp,lime,Target1.bmp,red,Distractor1.bmp,cyan,Distractor2.bmp,,,,TrialProc,,TrainingTrialList,1,1,-999999,0,562993,0,1,1110,564103,Target1.bmp,lime,1,,,,4,4,81
KW_Experiment5A,9,1,"<?xml version=""1.0""?>\n<Clock xmlns:dt=""urn:schemas-microsoft-com:datatypes""><Description dt:dt=""string"">E-Prime Primary Realtime Clock</Description><StartTime><Timestamp dt:dt=""int"">0</Timestamp><DateUtc dt:dt=""string"">2018-10-10T17:09:17Z</DateUtc></StartTime><FrequencyChanges><FrequencyChange><Frequency dt:dt=""r8"">3215292</Frequency><Timestamp dt:dt=""r8"">3905219894117</Timestamp><Current dt:dt=""r8"">0</Current><DateUtc dt:dt=""string"">2018-10-10T17:09:17Z</DateUtc></FrequencyChange></FrequencyChanges></Clock>\n",KW_Experiment5A-9-1,59.944,1.0.0.105,1,1095277310,Professional,2.0.10.353,2.0.10.353,10/10/2018,10/10/2018 17:09,13:09:17,2.0.10.248,3,2,1,3,,,,,,,,TrainingProc,BlockList,34,2,Distractor1.bmp,1,0,,0,1,565128,601,,0,0,purple,600,3,600,5,horizontal,purple,Distractor2.bmp,lime,Target2.bmp,blue,Distractor1.bmp,yellow,Distractor1.bmp,red,Distractor2.bmp,cyan,Distractor2.bmp,,,,TrialProc,,TrainingTrialList,1,2,-999999,1,565729,0,2,998,566727,Target2.bmp,lime,2,,,,2,4,82
KW_Experiment5A,9,1,"<?xml version=""1.0""?>\n<Clock xmlns:dt=""urn:schemas-microsoft-com:datatypes""><Description dt:dt=""string"">E-Prime Primary Realtime Clock</Description><StartTime><Timestamp dt:dt=""int"">0</Timestamp><DateUtc dt:dt=""string"">2018-10-10T17:09:17Z</DateUtc></StartTime><FrequencyChanges><FrequencyChange><Frequency dt:dt=""r8"">3215292</Frequency><Timestamp dt:dt=""r8"">3905219894117</Timestamp><Current dt:dt=""r8"">0</Current><DateUtc dt:dt=""string"">2018-10-10T17:09:17Z</DateUtc></FrequencyChange></FrequencyChanges></Clock>\n",KW_Experiment5A-9-1,59.944,1.0.0.105,1,1095277310,Professional,2.0.10.353,2.0.10.353,10/10/2018,10/10/2018 17:09,13:09:17,2.0.10.248,3,2,1,3,,,,,,,,TrainingProc,BlockList,35,1,Distractor1.bmp,1,0,,0,1,567747,401,,0,0,purple,400,1,400,,vertical,purple,Distractor1.bmp,cyan,Distractor2.bmp,yellow,Distractor2.bmp,blue,Distractor2.bmp,lime,Distractor2.bmp,red,Target1.bmp,,,,TrialProc,5,TrainingTrialList,1,1,-999999,1,568148,0,1,643,568791,Target1.bmp,red,1,,,,12,4,83
KW_Experiment5A,9,1,"<?xml version=""1.0""?>\n<Clock xmlns:dt=""urn:schemas-microsoft-com:datatypes""><Description dt:dt=""string"">E-Prime Primary Realtime Clock</Description><StartTime><Timestamp dt:dt=""int"">0</Timestamp><DateUtc dt:dt=""string"">2018-10-10T17:09:17Z</DateUtc></StartTime><FrequencyChanges><FrequencyChange><Frequency dt:dt=""r8"">3215292</Frequency><Timestamp dt:dt=""r8"">3905219894117</Timestamp><Current dt:dt=""r8"">0</Current><DateUtc dt:dt=""string"">2018-10-10T17:09:17Z</DateUtc></FrequencyChange></FrequencyChanges></Clock>\n",KW_Experiment5A-9-1,59.944,1.0.0.105,1,1095277310,Professional,2.0.10.353,2.0.10.353,10/10/2018,10/10/2018 17:09,13:09:17,2.0.10.248,3,2,1,3,,,,,,,,TrainingProc,BlockList,36,2,Distractor2.bmp,2,0,,0,1,569816,400,,0,0,purple,400,1,400,5,horizontal,purple,Distractor1.bmp,lime,Target2.bmp,blue,Distractor2.bmp,red,Distractor2.bmp,yellow,Distractor1.bmp,cyan,Distractor2.bmp,,,,TrialProc,,TrainingTrialList,1,2,-999999,0,570216,0,2,791,571007,Target2.bmp,lime,2,,,,2,4,84
KW_Experiment5A,9,1,"<?xml version=""1.0""?>\n<Clock xmlns:dt=""urn:schemas-microsoft-com:datatypes""><Description dt:dt=""string"">E-Prime Primary Realtime Clock</Description><StartTime><Timestamp dt:dt=""int"">0</Timestamp><DateUtc dt:dt=""string"">2018-10-10T17:09:17Z</DateUtc></StartTime><FrequencyChanges><FrequencyChange><Frequency dt:dt=""r8"">3215292</Frequency><Timestamp dt:dt=""r8"">3905219894117</Timestamp><Current dt:dt=""r8"">0</Current><DateUtc dt:dt=""string"">2018-10-10T17:09:17Z</DateUtc></FrequencyChange></FrequencyChanges></Clock>\n",KW_Experiment5A-9-1,59.944,1.0.0.105,1,1095277310,Professional,2.0.10.353,2.0.10.353,10/10/2018,10/10/2018 17:09,13:09:17,2.0.10.248,3,2,1,3,,,,,,,,TrainingProc,BlockList,37,1,Distractor1.bmp,1,0,,0,1,572018,400,,0,0,blue,400,1,400,3,vertical,blue,Distractor2.bmp,yellow,Distractor2.bmp,purple,Distractor1.bmp,cyan,Distractor1.bmp,lime,Target1.bmp,red,Distractor1.bmp,,,,TrialProc,,TrainingTrialList,1,1,-999999,0,572418,0,1,749,573167,Target1.bmp,lime,1,,,,5,4,85
KW_Experiment5A,9,1,"<?xml version=""1.0""?>\n<Clock xmlns:dt=""urn:schemas-microsoft-com:datatypes""><Description dt:dt=""string"">E-Prime Primary Realtime Clock</Description><StartTime><Timestamp dt:dt=""int"">0</Timestamp><DateUtc dt:dt=""string"">2018-10-10T17:09:17Z</DateUtc></StartTime><FrequencyChanges><FrequencyChange><Frequency dt:dt=""r8"">3215292</Frequency><Timestamp dt:dt=""r8"">3905219894117</Timestamp><Current dt:dt=""r8"">0</Current><DateUtc dt:dt=""string"">2018-10-10T17:09:17Z</DateUtc></FrequencyChange></FrequencyChanges></Clock>\n",KW_Experiment5A-9-1,59.944,1.0.0.105,1,1095277310,Professional,2.0.10.353,2.0.10.353,10/10/2018,10/10/2018 17:09,13:09:17,2.0.10.248,3,2,1,3,,,,,,,,TrainingProc,BlockList,38,2,Distractor2.bmp,2,0,,0,1,574187,400,,0,0,red,400,1,400,1,horizontal,red,Distractor2.bmp,blue,Distractor2.bmp,yellow,Distractor1.bmp,lime,Target2.bmp,cyan,Distractor2.bmp,purple,Distractor2.bmp,,,,TrialProc,,TrainingTrialList,1,2,-999999,0,574587,0,2,1084,575671,Target2.bmp,lime,2,,,,4,4,86
KW_Experiment5A,9,1,"<?xml version=""1.0""?>\n<Clock xmlns:dt=""urn:schemas-microsoft-com:datatypes""><Description dt:dt=""string"">E-Prime Primary Realtime Clock</Description><StartTime><Timestamp dt:dt=""int"">0</Timestamp><DateUtc dt:dt=""string"">2018-10-10T17:09:17Z</DateUtc></StartTime><FrequencyChanges><FrequencyChange><Frequency dt:dt=""r8"">3215292</Frequency><Timestamp dt:dt=""r8"">3905219894117</Timestamp><Current dt:dt=""r8"">0</Current><DateUtc dt:dt=""string"">2018-10-10T17:09:17Z</DateUtc></FrequencyChange></FrequencyChanges></Clock>\n",KW_Experiment5A-9-1,59.944,1.0.0.105,1,1095277310,Professional,2.0.10.353,2.0.10.353,10/10/2018,10/10/2018 17:09,13:09:17,2.0.10.248,3,2,1,3,,,,,,,,TrainingProc,BlockList,39,1,Distractor1.bmp,1,0,,0,1,576689,600,,0,0,cyan,600,3,600,,vertical,red,Target1.bmp,purple,Distractor1.bmp,blue,Distractor2.bmp,lime,Distractor1.bmp,yellow,Distractor1.bmp,cyan,Distractor2.bmp,,,,TrialProc,4,TrainingTrialList,1,1,-999999,0,577289,0,1,750,578039,Target1.bmp,red,1,,,,7,4,87
KW_Experiment5A,9,1,"<?xml version=""1.0""?>\n<Clock xmlns:dt=""urn:schemas-microsoft-com:datatypes""><Description dt:dt=""string"">E-Prime Primary Realtime Clock</Description><StartTime><Timestamp dt:dt=""int"">0</Timestamp><DateUtc dt:dt=""string"">2018-10-10T17:09:17Z</DateUtc></StartTime><FrequencyChanges><FrequencyChange><Frequency dt:dt=""r8"">3215292</Frequency><Timestamp dt:dt=""r8"">3905219894117</Timestamp><Current dt:dt=""r8"">0</Current><DateUtc dt:dt=""string"">2018-10-10T17:09:17Z</DateUtc></FrequencyChange></FrequencyChanges></Clock>\n",KW_Experiment5A-9-1,59.944,1.0.0.105,1,1095277310,Professional,2.0.10.353,2.0.10.353,10/10/2018,10/10/2018 17:09,13:09:17,2.0.10.248,3,2,1,3,,,,,,,,TrainingProc,BlockList,40,2,Distractor2.bmp,2,0,,0,1,579058,500,,0,0,red,500,2,500,1,horizontal,red,Distractor1.bmp,purple,Distractor2.bmp,yellow,Distractor2.bmp,blue,Distractor1.bmp,lime,Target2.bmp,cyan,Distractor2.bmp,,,,TrialProc,,TrainingTrialList,1,2,-999999,0,579558,0,2,689,580247,Target2.bmp,lime,2,,,,5,4,88
KW_Experiment5A,9,1,"<?xml version=""1.0""?>\n<Clock xmlns:dt=""urn:schemas-microsoft-com:datatypes""><Description dt:dt=""string"">E-Prime Primary Realtime Clock</Description><StartTime><Timestamp dt:dt=""int"">0</Timestamp><DateUtc dt:dt=""string"">2018-10-10T17:09:17Z</DateUtc></StartTime><FrequencyChanges><FrequencyChange><Frequency dt:dt=""r8"">3215292</Frequency><Timestamp dt:dt=""r8"">3905219894117</Timestamp><Current dt:dt=""r8"">0</Current><DateUtc dt:dt=""string"">2018-10-10T17:09:17Z</DateUtc></FrequencyChange></FrequencyChanges></Clock>\n",KW_Experiment5A-9-1,59.944,1.0.0.105,1,1095277310,Professional,2.0.10.353,2.0.10.353,10/10/2018,10/10/2018 17:09,13:09:17,2.0.10.248,3,2,1,3,,,,,,,,TrainingProc,BlockList,41,2,Distractor1.bmp,1,0,,0,1,581260,500,,0,0,red,500,2,500,1,horizontal,red,Distractor2.bmp,cyan,Distractor2.bmp,purple,Distractor2.bmp,lime,Target2.bmp,blue,Distractor1.bmp,yellow,Distractor2.bmp,,,,TrialProc,,TrainingTrialList,1,2,-999999,0,581760,0,2,879,582639,Target2.bmp,lime,2,,,,4,4,89
KW_Experiment5A,9,1,"<?xml version=""1.0""?>\n<Clock xmlns:dt=""urn:schemas-microsoft-com:datatypes""><Description dt:dt=""string"">E-Prime Primary Realtime Clock</Description><StartTime><Timestamp dt:dt=""int"">0</Timestamp><DateUtc dt:dt=""string"">2018-10-10T17:09:17Z</DateUtc></StartTime><FrequencyChanges><FrequencyChange><Frequency dt:dt=""r8"">3215292</Frequency><Timestamp dt:dt=""r8"">3905219894117</Timestamp><Current dt:dt=""r8"">0</Current><DateUtc dt:dt=""string"">2018-10-10T17:09:17Z</DateUtc></FrequencyChange></FrequencyChanges></Clock>\n",KW_Experiment5A-9-1,59.944,1.0.0.105,1,1095277310,Professional,2.0.10.353,2.0.10.353,10/10/2018,10/10/2018 17:09,13:09:17,2.0.10.248,3,2,1,3,,,,,,,,TrainingProc,BlockList,42,1,Distractor2.bmp,2,0,,0,1,583662,400,,0,0,purple,400,1,400,5,vertical,lime,Target1.bmp,purple,Distractor2.bmp,cyan,Distractor1.bmp,yellow,Distractor2.bmp,blue,Distractor1.bmp,red,Distractor1.bmp,,,,TrialProc,,TrainingTrialList,1,1,-999999,0,584062,0,1,745,584807,Target1.bmp,lime,1,,,,1,4,90
