ExperimentName,Subject,Session,Clock.Information,DataFile.Basename,Display.RefreshRate,ExperimentVersion,Group,RandomSeed,RuntimeCapabilities,RuntimeVersion,RuntimeVersionExpected,SessionDate,SessionStartDateTimeUtc,SessionTime,StudioVersion,Block,BlockList,BlockList.Cycle,BlockList.Sample,PostTestQ1.RESP,PostTestQ1CJ.RESP,PostTestQ2.RESP,PostTestQ2CJ.RESP,PostTestQ3.RESP,PostTestQ3CJ.RESP,PostTestSlide.RESP,Procedure[Block],Running[Block],Trial,CorrectResponse,Distractor,DistractorList,Fixation.ACC,Fixation.CRESP,Fixation.DurationError,Fixation.OnsetDelay,Fixation.OnsetTime,Fixation.OnsetToOnsetTime,Fixation.RESP,Fixation.RT,Fixation.RTTime,ItemColor,Jitter,JitterList,JitterTime,Lime0List,Orientation,Pos1Color,Pos1Item,Pos2Color,Pos2Item,Pos3Color,Pos3Item,Pos4Color,Pos4Item,Pos5Color,Pos5Item,Pos6Color,Pos6Item,PracticeTrialList,PracticeTrialList.Cycle,PracticeTrialList.Sample,Procedure[Trial],Red0List,Running[Trial],Stimulus.ACC,Stimulus.CRESP,Stimulus.DurationError,Stimulus.OnsetDelay,Stimulus.OnsetTime,Stimulus.OnsetToOnsetTime,Stimulus.RESP,Stimulus.RT,Stimulus.RTTime,Target,TargetColor,TargetList,TestTrialList,TestTrialList.Cycle,TestTrialList.Sample,TrainingTrialList,TrainingTrialList.Cycle,TrainingTrialList.Sample
KW_Experiment5A,5,1,"<?xml version=""1.0""?>\n<Clock xmlns:dt=""urn:schemas-microsoft-com:datatypes""><Description dt:dt=""string"">E-Prime Primary Realtime Clock</Description><StartTime><Timestamp dt:dt=""int"">0</Timestamp><DateUtc dt:dt=""string"">2018-10-08T17:20:28Z</DateUtc></StartTime><FrequencyChanges><FrequencyChange><Frequency dt:dt=""r8"">3215244</Frequency><Timestamp dt:dt=""r8"">4635226942968</Timestamp><Current dt:dt=""r8"">0</Current><DateUtc dt:dt=""string"">2018-10-08T17:20:28Z</DateUtc></FrequencyChange></FrequencyChanges></Clock>\n",KW_Experiment5A-5-1,59.946,1.0.0.105,1,957885846,Professional,2.0.10.353,2.0.10.353,10/8/2018,10/8/2018 17:20,13:20:29,2.0.10.248,1,1,1,1,,,,,,,,PracticeProc,BlockList,1,1,Distractor1.bmp,1,0,,0,42,2411148,400,,0,0,purple,400,1,400,,vertical,yellow,Distractor1.bmp,cyan,Distractor2.bmp,blue,Distractor2.bmp,lime,Distractor1.bmp,purple,Distractor1.bmp,red,Target1.bmp,6,1,1,TrialProc,5,PracticeTrialList,1,1,-999999,0,2411548,0,1,8990,2420538,Target1.bmp,red,1,,,,,,
KW_Experiment5A,5,1,"<?xml version=""1.0""?>\n<Clock xmlns:dt=""urn:schemas-microsoft-com:datatypes""><Description dt:dt=""string"">E-Prime Primary Realtime Clock</Description><StartTime><Timestamp dt:dt=""int"">0</Timestamp><DateUtc dt:dt=""string"">2018-10-08T17:20:28Z</DateUtc></StartTime><FrequencyChanges><FrequencyChange><Frequency dt:dt=""r8"">3215244</Frequency><Timestamp dt:dt=""r8"">4635226942968</Timestamp><Current dt:dt=""r8"">0</Current><DateUtc dt:dt=""string"">2018-10-08T17:20:28Z</DateUtc></FrequencyChange></FrequencyChanges></Clock>\n",KW_Experiment5A-5-1,59.946,1.0.0.105,1,957885846,Professional,2.0.10.353,2.0.10.353,10/8/2018,10/8/2018 17:20,13:20:29,2.0.10.248,1,1,1,1,,,,,,,,PracticeProc,BlockList,2,1,Distractor1.bmp,1,0,,0,1,2421557,501,,0,0,cyan,500,2,500,4,vertical,lime,Target1.bmp,purple,Distractor1.bmp,blue,Distractor2.bmp,yellow,Distractor2.bmp,red,Distractor2.bmp,cyan,Distractor1.bmp,1,1,2,TrialProc,,PracticeTrialList,1,1,-999999,1,2422058,0,1,1080,2423138,Target1.bmp,lime,1,,,,,,
KW_Experiment5A,5,1,"<?xml version=""1.0""?>\n<Clock xmlns:dt=""urn:schemas-microsoft-com:datatypes""><Description dt:dt=""string"">E-Prime Primary Realtime Clock</Description><StartTime><Timestamp dt:dt=""int"">0</Timestamp><DateUtc dt:dt=""string"">2018-10-08T17:20:28Z</DateUtc></StartTime><FrequencyChanges><FrequencyChange><Frequency dt:dt=""r8"">3215244</Frequency><Timestamp dt:dt=""r8"">4635226942968</Timestamp><Current dt:dt=""r8"">0</Current><DateUtc dt:dt=""string"">2018-10-08T17:20:28Z</DateUtc></FrequencyChange></FrequencyChanges></Clock>\n",KW_Experiment5A-5-1,59.946,1.0.0.105,1,957885846,Professional,2.0.10.353,2.0.10.353,10/8/2018,10/8/2018 17:20,13:20:29,2.0.10.248,1,1,1,1,,,,,,,,PracticeProc,BlockList,3,2,Distractor2.bmp,2,0,,0,1,2424160,500,,0,0,yellow,500,2,500,2,horizontal,red,Distractor1.bmp,yellow,Distractor1.bmp,lime,Target2.bmp,purple,Distractor2.bmp,blue,Distractor1.bmp,cyan,Distractor1.bmp,3,1,3,TrialProc,,PracticeTrialList,1,2,-999999,0,2424660,0,2,894,2425554,Target2.bmp,lime,2,,,,,,
KW_Experiment5A,5,1,"<?xml version=""1.0""?>\n<Clock xmlns:dt=""urn:schemas-microsoft-com:datatypes""><Description dt:dt=""string"">E-Prime Primary Realtime Clock</Description><StartTime><Timestamp dt:dt=""int"">0</Timestamp><DateUtc dt:dt=""string"">2018-10-08T17:20:28Z</DateUtc></StartTime><FrequencyChanges><FrequencyChange><Frequency dt:dt=""r8"">3215244</Frequency><Timestamp dt:dt=""r8"">4635226942968</Timestamp><Current dt:dt=""r8"">0</Current><DateUtc dt:dt=""string"">2018-10-08T17:20:28Z</DateUtc></FrequencyChange></FrequencyChanges></Clock>\n",KW_Experiment5A-5-1,59.946,1.0.0.105,1,957885846,Professional,2.0.10.353,2.0.10.353,10/8/2018,10/8/2018 17:20,13:20:29,2.0.10.248,1,1,1,1,,,,,,,,PracticeProc,BlockList,4,1,Distractor1.bmp,1,0,,0,1,2426579,600,,0,0,purple,600,3,600,,vertical,lime,Distractor1.bmp,blue,Distractor1.bmp,purple,Distractor1.bmp,red,Target1.bmp,cyan,Distractor1.bmp,yellow,Distractor1.bmp,4,1,4,TrialProc,5,PracticeTrialList,1,1,-999999,0,2427179,0,1,783,2427962,Target1.bmp,red,1,,,,,,
KW_Experiment5A,5,1,"<?xml version=""1.0""?>\n<Clock xmlns:dt=""urn:schemas-microsoft-com:datatypes""><Description dt:dt=""string"">E-Prime Primary Realtime Clock</Description><StartTime><Timestamp dt:dt=""int"">0</Timestamp><DateUtc dt:dt=""string"">2018-10-08T17:20:28Z</DateUtc></StartTime><FrequencyChanges><FrequencyChange><Frequency dt:dt=""r8"">3215244</Frequency><Timestamp dt:dt=""r8"">4635226942968</Timestamp><Current dt:dt=""r8"">0</Current><DateUtc dt:dt=""string"">2018-10-08T17:20:28Z</DateUtc></FrequencyChange></FrequencyChanges></Clock>\n",KW_Experiment5A-5-1,59.946,1.0.0.105,1,957885846,Professional,2.0.10.353,2.0.10.353,10/8/2018,10/8/2018 17:20,13:20:29,2.0.10.248,1,1,1,1,,,,,,,,PracticeProc,BlockList,5,1,Distractor1.bmp,1,0,,0,1,2428981,600,,0,0,purple,600,3,600,5,vertical,blue,Distractor2.bmp,red,Distractor2.bmp,yellow,Distractor2.bmp,purple,Distractor1.bmp,lime,Target1.bmp,cyan,Distractor1.bmp,5,1,5,TrialProc,,PracticeTrialList,1,1,-999999,0,2429581,0,1,709,2430290,Target1.bmp,lime,1,,,,,,
KW_Experiment5A,5,1,"<?xml version=""1.0""?>\n<Clock xmlns:dt=""urn:schemas-microsoft-com:datatypes""><Description dt:dt=""string"">E-Prime Primary Realtime Clock</Description><StartTime><Timestamp dt:dt=""int"">0</Timestamp><DateUtc dt:dt=""string"">2018-10-08T17:20:28Z</DateUtc></StartTime><FrequencyChanges><FrequencyChange><Frequency dt:dt=""r8"">3215244</Frequency><Timestamp dt:dt=""r8"">4635226942968</Timestamp><Current dt:dt=""r8"">0</Current><DateUtc dt:dt=""string"">2018-10-08T17:20:28Z</DateUtc></FrequencyChange></FrequencyChanges></Clock>\n",KW_Experiment5A-5-1,59.946,1.0.0.105,1,957885846,Professional,2.0.10.353,2.0.10.353,10/8/2018,10/8/2018 17:20,13:20:29,2.0.10.248,1,1,1,1,,,,,,,,PracticeProc,BlockList,6,2,Distractor2.bmp,2,0,,0,1,2431316,501,,0,0,lime,500,2,500,,horizontal,lime,Distractor1.bmp,red,Target2.bmp,blue,Distractor2.bmp,yellow,Distractor2.bmp,purple,Distractor1.bmp,cyan,Distractor1.bmp,2,1,6,TrialProc,6,PracticeTrialList,1,2,-999999,1,2431817,0,2,985,2432802,Target2.bmp,red,2,,,,,,
KW_Experiment5A,5,1,"<?xml version=""1.0""?>\n<Clock xmlns:dt=""urn:schemas-microsoft-com:datatypes""><Description dt:dt=""string"">E-Prime Primary Realtime Clock</Description><StartTime><Timestamp dt:dt=""int"">0</Timestamp><DateUtc dt:dt=""string"">2018-10-08T17:20:28Z</DateUtc></StartTime><FrequencyChanges><FrequencyChange><Frequency dt:dt=""r8"">3215244</Frequency><Timestamp dt:dt=""r8"">4635226942968</Timestamp><Current dt:dt=""r8"">0</Current><DateUtc dt:dt=""string"">2018-10-08T17:20:28Z</DateUtc></FrequencyChange></FrequencyChanges></Clock>\n",KW_Experiment5A-5-1,59.946,1.0.0.105,1,957885846,Professional,2.0.10.353,2.0.10.353,10/8/2018,10/8/2018 17:20,13:20:29,2.0.10.248,2,2,1,2,,,,,,,,TrainingProc,BlockList,1,2,Distractor1.bmp,1,0,,0,17,2441275,401,,0,0,purple,400,1,400,5,horizontal,purple,Distractor1.bmp,yellow,Distractor2.bmp,cyan,Distractor1.bmp,blue,Distractor2.bmp,red,Distractor2.bmp,lime,Target2.bmp,,,,TrialProc,,TrainingTrialList,1,2,-999999,1,2441676,0,2,790,2442466,Target2.bmp,lime,2,,,,6,1,1
KW_Experiment5A,5,1,"<?xml version=""1.0""?>\n<Clock xmlns:dt=""urn:schemas-microsoft-com:datatypes""><Description dt:dt=""string"">E-Prime Primary Realtime Clock</Description><StartTime><Timestamp dt:dt=""int"">0</Timestamp><DateUtc dt:dt=""string"">2018-10-08T17:20:28Z</DateUtc></StartTime><FrequencyChanges><FrequencyChange><Frequency dt:dt=""r8"">3215244</Frequency><Timestamp dt:dt=""r8"">4635226942968</Timestamp><Current dt:dt=""r8"">0</Current><DateUtc dt:dt=""string"">2018-10-08T17:20:28Z</DateUtc></FrequencyChange></FrequencyChanges></Clock>\n",KW_Experiment5A-5-1,59.946,1.0.0.105,1,957885846,Professional,2.0.10.353,2.0.10.353,10/8/2018,10/8/2018 17:20,13:20:29,2.0.10.248,2,2,1,2,,,,,,,,TrainingProc,BlockList,2,1,Distractor2.bmp,2,0,,0,1,2443477,401,,0,0,cyan,400,1,400,4,vertical,cyan,Distractor1.bmp,lime,Target1.bmp,purple,Distractor2.bmp,red,Distractor1.bmp,yellow,Distractor1.bmp,blue,Distractor1.bmp,,,,TrialProc,,TrainingTrialList,1,1,-999999,1,2443878,0,1,748,2444626,Target1.bmp,lime,1,,,,2,1,2
KW_Experiment5A,5,1,"<?xml version=""1.0""?>\n<Clock xmlns:dt=""urn:schemas-microsoft-com:datatypes""><Description dt:dt=""string"">E-Prime Primary Realtime Clock</Description><StartTime><Timestamp dt:dt=""int"">0</Timestamp><DateUtc dt:dt=""string"">2018-10-08T17:20:28Z</DateUtc></StartTime><FrequencyChanges><FrequencyChange><Frequency dt:dt=""r8"">3215244</Frequency><Timestamp dt:dt=""r8"">4635226942968</Timestamp><Current dt:dt=""r8"">0</Current><DateUtc dt:dt=""string"">2018-10-08T17:20:28Z</DateUtc></FrequencyChange></FrequencyChanges></Clock>\n",KW_Experiment5A-5-1,59.946,1.0.0.105,1,957885846,Professional,2.0.10.353,2.0.10.353,10/8/2018,10/8/2018 17:20,13:20:29,2.0.10.248,2,2,1,2,,,,,,,,TrainingProc,BlockList,3,2,Distractor2.bmp,2,0,,0,1,2445646,400,,0,0,lime,400,1,400,,horizontal,lime,Distractor2.bmp,red,Target2.bmp,blue,Distractor2.bmp,cyan,Distractor1.bmp,purple,Distractor1.bmp,yellow,Distractor2.bmp,,,,TrialProc,6,TrainingTrialList,1,2,-999999,0,2446046,0,2,556,2446602,Target2.bmp,red,2,,,,8,1,3
KW_Experiment5A,5,1,"<?xml version=""1.0""?>\n<Clock xmlns:dt=""urn:schemas-microsoft-com:datatypes""><Description dt:dt=""string"">E-Prime Primary Realtime Clock</Description><StartTime><Timestamp dt:dt=""int"">0</Timestamp><DateUtc dt:dt=""string"">2018-10-08T17:20:28Z</DateUtc></StartTime><FrequencyChanges><FrequencyChange><Frequency dt:dt=""r8"">3215244</Frequency><Timestamp dt:dt=""r8"">4635226942968</Timestamp><Current dt:dt=""r8"">0</Current><DateUtc dt:dt=""string"">2018-10-08T17:20:28Z</DateUtc></FrequencyChange></FrequencyChanges></Clock>\n",KW_Experiment5A-5-1,59.946,1.0.0.105,1,957885846,Professional,2.0.10.353,2.0.10.353,10/8/2018,10/8/2018 17:20,13:20:29,2.0.10.248,2,2,1,2,,,,,,,,TrainingProc,BlockList,4,2,Distractor2.bmp,2,0,,0,1,2447615,400,,0,0,cyan,400,1,400,4,horizontal,lime,Target2.bmp,cyan,Distractor2.bmp,red,Distractor1.bmp,purple,Distractor1.bmp,yellow,Distractor1.bmp,blue,Distractor1.bmp,,,,TrialProc,,TrainingTrialList,0,2,-999999,0,2448015,0,1,627,2448642,Target2.bmp,lime,2,,,,1,1,4
KW_Experiment5A,5,1,"<?xml version=""1.0""?>\n<Clock xmlns:dt=""urn:schemas-microsoft-com:datatypes""><Description dt:dt=""string"">E-Prime Primary Realtime Clock</Description><StartTime><Timestamp dt:dt=""int"">0</Timestamp><DateUtc dt:dt=""string"">2018-10-08T17:20:28Z</DateUtc></StartTime><FrequencyChanges><FrequencyChange><Frequency dt:dt=""r8"">3215244</Frequency><Timestamp dt:dt=""r8"">4635226942968</Timestamp><Current dt:dt=""r8"">0</Current><DateUtc dt:dt=""string"">2018-10-08T17:20:28Z</DateUtc></FrequencyChange></FrequencyChanges></Clock>\n",KW_Experiment5A-5-1,59.946,1.0.0.105,1,957885846,Professional,2.0.10.353,2.0.10.353,10/8/2018,10/8/2018 17:20,13:20:29,2.0.10.248,2,2,1,2,,,,,,,,TrainingProc,BlockList,5,1,Distractor2.bmp,2,0,,1,0,2449666,501,,0,0,red,500,2,500,1,vertical,red,Distractor2.bmp,blue,Distractor2.bmp,lime,Target1.bmp,yellow,Distractor2.bmp,cyan,Distractor2.bmp,purple,Distractor2.bmp,,,,TrialProc,,TrainingTrialList,1,1,-999999,1,2450167,0,1,1219,2451386,Target1.bmp,lime,1,,,,3,1,5
KW_Experiment5A,5,1,"<?xml version=""1.0""?>\n<Clock xmlns:dt=""urn:schemas-microsoft-com:datatypes""><Description dt:dt=""string"">E-Prime Primary Realtime Clock</Description><StartTime><Timestamp dt:dt=""int"">0</Timestamp><DateUtc dt:dt=""string"">2018-10-08T17:20:28Z</DateUtc></StartTime><FrequencyChanges><FrequencyChange><Frequency dt:dt=""r8"">3215244</Frequency><Timestamp dt:dt=""r8"">4635226942968</Timestamp><Current dt:dt=""r8"">0</Current><DateUtc dt:dt=""string"">2018-10-08T17:20:28Z</DateUtc></FrequencyChange></FrequencyChanges></Clock>\n",KW_Experiment5A-5-1,59.946,1.0.0.105,1,957885846,Professional,2.0.10.353,2.0.10.353,10/8/2018,10/8/2018 17:20,13:20:29,2.0.10.248,2,2,1,2,,,,,,,,TrainingProc,BlockList,6,2,Distractor1.bmp,1,0,,0,1,2452402,401,,0,0,yellow,400,1,400,2,horizontal,yellow,Distractor1.bmp,lime,Target2.bmp,purple,Distractor1.bmp,cyan,Distractor2.bmp,blue,Distractor1.bmp,red,Distractor1.bmp,,,,TrialProc,,TrainingTrialList,1,2,-999999,1,2452803,0,2,607,2453410,Target2.bmp,lime,2,,,,2,1,6
KW_Experiment5A,5,1,"<?xml version=""1.0""?>\n<Clock xmlns:dt=""urn:schemas-microsoft-com:datatypes""><Description dt:dt=""string"">E-Prime Primary Realtime Clock</Description><StartTime><Timestamp dt:dt=""int"">0</Timestamp><DateUtc dt:dt=""string"">2018-10-08T17:20:28Z</DateUtc></StartTime><FrequencyChanges><FrequencyChange><Frequency dt:dt=""r8"">3215244</Frequency><Timestamp dt:dt=""r8"">4635226942968</Timestamp><Current dt:dt=""r8"">0</Current><DateUtc dt:dt=""string"">2018-10-08T17:20:28Z</DateUtc></FrequencyChange></FrequencyChanges></Clock>\n",KW_Experiment5A-5-1,59.946,1.0.0.105,1,957885846,Professional,2.0.10.353,2.0.10.353,10/8/2018,10/8/2018 17:20,13:20:29,2.0.10.248,2,2,1,2,,,,,,,,TrainingProc,BlockList,7,2,Distractor2.bmp,2,0,,0,1,2454421,400,,0,0,yellow,400,1,400,2,horizontal,yellow,Distractor2.bmp,red,Distractor1.bmp,blue,Distractor2.bmp,purple,Distractor2.bmp,cyan,Distractor1.bmp,lime,Target2.bmp,,,,TrialProc,,TrainingTrialList,1,2,-999999,0,2454821,0,2,637,2455458,Target2.bmp,lime,2,,,,6,1,7
KW_Experiment5A,5,1,"<?xml version=""1.0""?>\n<Clock xmlns:dt=""urn:schemas-microsoft-com:datatypes""><Description dt:dt=""string"">E-Prime Primary Realtime Clock</Description><StartTime><Timestamp dt:dt=""int"">0</Timestamp><DateUtc dt:dt=""string"">2018-10-08T17:20:28Z</DateUtc></StartTime><FrequencyChanges><FrequencyChange><Frequency dt:dt=""r8"">3215244</Frequency><Timestamp dt:dt=""r8"">4635226942968</Timestamp><Current dt:dt=""r8"">0</Current><DateUtc dt:dt=""string"">2018-10-08T17:20:28Z</DateUtc></FrequencyChange></FrequencyChanges></Clock>\n",KW_Experiment5A-5-1,59.946,1.0.0.105,1,957885846,Professional,2.0.10.353,2.0.10.353,10/8/2018,10/8/2018 17:20,13:20:29,2.0.10.248,2,2,1,2,,,,,,,,TrainingProc,BlockList,8,2,Distractor2.bmp,2,0,,0,1,2456473,400,,0,0,blue,400,1,400,3,horizontal,blue,Distractor2.bmp,yellow,Distractor2.bmp,purple,Distractor2.bmp,cyan,Distractor1.bmp,lime,Target2.bmp,red,Distractor2.bmp,,,,TrialProc,,TrainingTrialList,1,2,-999999,0,2456873,0,2,689,2457562,Target2.bmp,lime,2,,,,5,1,8
KW_Experiment5A,5,1,"<?xml version=""1.0""?>\n<Clock xmlns:dt=""urn:schemas-microsoft-com:datatypes""><Description dt:dt=""string"">E-Prime Primary Realtime Clock</Description><StartTime><Timestamp dt:dt=""int"">0</Timestamp><DateUtc dt:dt=""string"">2018-10-08T17:20:28Z</DateUtc></StartTime><FrequencyChanges><FrequencyChange><Frequency dt:dt=""r8"">3215244</Frequency><Timestamp dt:dt=""r8"">4635226942968</Timestamp><Current dt:dt=""r8"">0</Current><DateUtc dt:dt=""string"">2018-10-08T17:20:28Z</DateUtc></FrequencyChange></FrequencyChanges></Clock>\n",KW_Experiment5A-5-1,59.946,1.0.0.105,1,957885846,Professional,2.0.10.353,2.0.10.353,10/8/2018,10/8/2018 17:20,13:20:29,2.0.10.248,2,2,1,2,,,,,,,,TrainingProc,BlockList,9,2,Distractor1.bmp,1,0,,0,1,2458575,400,,0,0,purple,400,1,400,,horizontal,purple,Distractor2.bmp,cyan,Distractor2.bmp,lime,Distractor2.bmp,blue,Distractor2.bmp,red,Target2.bmp,yellow,Distractor1.bmp,,,,TrialProc,5,TrainingTrialList,1,2,-999999,0,2458975,0,2,595,2459570,Target2.bmp,red,2,,,,11,1,9
KW_Experiment5A,5,1,"<?xml version=""1.0""?>\n<Clock xmlns:dt=""urn:schemas-microsoft-com:datatypes""><Description dt:dt=""string"">E-Prime Primary Realtime Clock</Description><StartTime><Timestamp dt:dt=""int"">0</Timestamp><DateUtc dt:dt=""string"">2018-10-08T17:20:28Z</DateUtc></StartTime><FrequencyChanges><FrequencyChange><Frequency dt:dt=""r8"">3215244</Frequency><Timestamp dt:dt=""r8"">4635226942968</Timestamp><Current dt:dt=""r8"">0</Current><DateUtc dt:dt=""string"">2018-10-08T17:20:28Z</DateUtc></FrequencyChange></FrequencyChanges></Clock>\n",KW_Experiment5A-5-1,59.946,1.0.0.105,1,957885846,Professional,2.0.10.353,2.0.10.353,10/8/2018,10/8/2018 17:20,13:20:29,2.0.10.248,2,2,1,2,,,,,,,,TrainingProc,BlockList,10,1,Distractor2.bmp,2,0,,0,1,2460593,401,,0,0,blue,400,1,400,3,vertical,blue,Distractor2.bmp,purple,Distractor1.bmp,lime,Target1.bmp,cyan,Distractor2.bmp,yellow,Distractor1.bmp,red,Distractor2.bmp,,,,TrialProc,,TrainingTrialList,1,1,-999999,1,2460994,0,1,1040,2462034,Target1.bmp,lime,1,,,,3,1,10
KW_Experiment5A,5,1,"<?xml version=""1.0""?>\n<Clock xmlns:dt=""urn:schemas-microsoft-com:datatypes""><Description dt:dt=""string"">E-Prime Primary Realtime Clock</Description><StartTime><Timestamp dt:dt=""int"">0</Timestamp><DateUtc dt:dt=""string"">2018-10-08T17:20:28Z</DateUtc></StartTime><FrequencyChanges><FrequencyChange><Frequency dt:dt=""r8"">3215244</Frequency><Timestamp dt:dt=""r8"">4635226942968</Timestamp><Current dt:dt=""r8"">0</Current><DateUtc dt:dt=""string"">2018-10-08T17:20:28Z</DateUtc></FrequencyChange></FrequencyChanges></Clock>\n",KW_Experiment5A-5-1,59.946,1.0.0.105,1,957885846,Professional,2.0.10.353,2.0.10.353,10/8/2018,10/8/2018 17:20,13:20:29,2.0.10.248,2,2,1,2,,,,,,,,TrainingProc,BlockList,11,1,Distractor1.bmp,1,0,,1,0,2463045,601,,0,0,purple,600,3,600,5,vertical,purple,Distractor1.bmp,lime,Target1.bmp,cyan,Distractor1.bmp,blue,Distractor2.bmp,red,Distractor2.bmp,yellow,Distractor1.bmp,,,,TrialProc,,TrainingTrialList,1,1,-999999,1,2463646,0,1,787,2464433,Target1.bmp,lime,1,,,,2,1,11
KW_Experiment5A,5,1,"<?xml version=""1.0""?>\n<Clock xmlns:dt=""urn:schemas-microsoft-com:datatypes""><Description dt:dt=""string"">E-Prime Primary Realtime Clock</Description><StartTime><Timestamp dt:dt=""int"">0</Timestamp><DateUtc dt:dt=""string"">2018-10-08T17:20:28Z</DateUtc></StartTime><FrequencyChanges><FrequencyChange><Frequency dt:dt=""r8"">3215244</Frequency><Timestamp dt:dt=""r8"">4635226942968</Timestamp><Current dt:dt=""r8"">0</Current><DateUtc dt:dt=""string"">2018-10-08T17:20:28Z</DateUtc></FrequencyChange></FrequencyChanges></Clock>\n",KW_Experiment5A-5-1,59.946,1.0.0.105,1,957885846,Professional,2.0.10.353,2.0.10.353,10/8/2018,10/8/2018 17:20,13:20:29,2.0.10.248,2,2,1,2,,,,,,,,TrainingProc,BlockList,12,2,Distractor2.bmp,2,0,,0,1,2465448,400,,0,0,yellow,400,1,400,2,horizontal,yellow,Distractor2.bmp,blue,Distractor1.bmp,purple,Distractor2.bmp,lime,Target2.bmp,cyan,Distractor2.bmp,red,Distractor1.bmp,,,,TrialProc,,TrainingTrialList,1,2,-999999,0,2465848,0,2,729,2466577,Target2.bmp,lime,2,,,,4,1,12
KW_Experiment5A,5,1,"<?xml version=""1.0""?>\n<Clock xmlns:dt=""urn:schemas-microsoft-com:datatypes""><Description dt:dt=""string"">E-Prime Primary Realtime Clock</Description><StartTime><Timestamp dt:dt=""int"">0</Timestamp><DateUtc dt:dt=""string"">2018-10-08T17:20:28Z</DateUtc></StartTime><FrequencyChanges><FrequencyChange><Frequency dt:dt=""r8"">3215244</Frequency><Timestamp dt:dt=""r8"">4635226942968</Timestamp><Current dt:dt=""r8"">0</Current><DateUtc dt:dt=""string"">2018-10-08T17:20:28Z</DateUtc></FrequencyChange></FrequencyChanges></Clock>\n",KW_Experiment5A-5-1,59.946,1.0.0.105,1,957885846,Professional,2.0.10.353,2.0.10.353,10/8/2018,10/8/2018 17:20,13:20:29,2.0.10.248,2,2,1,2,,,,,,,,TrainingProc,BlockList,13,2,Distractor1.bmp,1,0,,0,1,2467600,600,,0,0,blue,600,3,600,3,horizontal,blue,Distractor1.bmp,cyan,Distractor2.bmp,yellow,Distractor2.bmp,red,Distractor1.bmp,lime,Target2.bmp,purple,Distractor1.bmp,,,,TrialProc,,TrainingTrialList,1,2,-999999,0,2468200,0,2,761,2468961,Target2.bmp,lime,2,,,,5,1,13
KW_Experiment5A,5,1,"<?xml version=""1.0""?>\n<Clock xmlns:dt=""urn:schemas-microsoft-com:datatypes""><Description dt:dt=""string"">E-Prime Primary Realtime Clock</Description><StartTime><Timestamp dt:dt=""int"">0</Timestamp><DateUtc dt:dt=""string"">2018-10-08T17:20:28Z</DateUtc></StartTime><FrequencyChanges><FrequencyChange><Frequency dt:dt=""r8"">3215244</Frequency><Timestamp dt:dt=""r8"">4635226942968</Timestamp><Current dt:dt=""r8"">0</Current><DateUtc dt:dt=""string"">2018-10-08T17:20:28Z</DateUtc></FrequencyChange></FrequencyChanges></Clock>\n",KW_Experiment5A-5-1,59.946,1.0.0.105,1,957885846,Professional,2.0.10.353,2.0.10.353,10/8/2018,10/8/2018 17:20,13:20:29,2.0.10.248,2,2,1,2,,,,,,,,TrainingProc,BlockList,14,1,Distractor1.bmp,1,0,,0,1,2469985,601,,0,0,red,600,3,600,1,vertical,red,Distractor1.bmp,blue,Distractor1.bmp,lime,Target1.bmp,purple,Distractor1.bmp,yellow,Distractor2.bmp,cyan,Distractor2.bmp,,,,TrialProc,,TrainingTrialList,1,1,-999999,1,2470586,0,1,959,2471545,Target1.bmp,lime,1,,,,3,1,14
KW_Experiment5A,5,1,"<?xml version=""1.0""?>\n<Clock xmlns:dt=""urn:schemas-microsoft-com:datatypes""><Description dt:dt=""string"">E-Prime Primary Realtime Clock</Description><StartTime><Timestamp dt:dt=""int"">0</Timestamp><DateUtc dt:dt=""string"">2018-10-08T17:20:28Z</DateUtc></StartTime><FrequencyChanges><FrequencyChange><Frequency dt:dt=""r8"">3215244</Frequency><Timestamp dt:dt=""r8"">4635226942968</Timestamp><Current dt:dt=""r8"">0</Current><DateUtc dt:dt=""string"">2018-10-08T17:20:28Z</DateUtc></FrequencyChange></FrequencyChanges></Clock>\n",KW_Experiment5A-5-1,59.946,1.0.0.105,1,957885846,Professional,2.0.10.353,2.0.10.353,10/8/2018,10/8/2018 17:20,13:20:29,2.0.10.248,2,2,1,2,,,,,,,,TrainingProc,BlockList,15,1,Distractor2.bmp,2,0,,0,1,2472571,600,,0,0,blue,600,3,600,,vertical,blue,Distractor1.bmp,purple,Distractor2.bmp,lime,Distractor1.bmp,red,Target1.bmp,yellow,Distractor2.bmp,cyan,Distractor2.bmp,,,,TrialProc,3,TrainingTrialList,1,1,-999999,0,2473171,0,1,878,2474049,Target1.bmp,red,1,,,,10,1,15
KW_Experiment5A,5,1,"<?xml version=""1.0""?>\n<Clock xmlns:dt=""urn:schemas-microsoft-com:datatypes""><Description dt:dt=""string"">E-Prime Primary Realtime Clock</Description><StartTime><Timestamp dt:dt=""int"">0</Timestamp><DateUtc dt:dt=""string"">2018-10-08T17:20:28Z</DateUtc></StartTime><FrequencyChanges><FrequencyChange><Frequency dt:dt=""r8"">3215244</Frequency><Timestamp dt:dt=""r8"">4635226942968</Timestamp><Current dt:dt=""r8"">0</Current><DateUtc dt:dt=""string"">2018-10-08T17:20:28Z</DateUtc></FrequencyChange></FrequencyChanges></Clock>\n",KW_Experiment5A-5-1,59.946,1.0.0.105,1,957885846,Professional,2.0.10.353,2.0.10.353,10/8/2018,10/8/2018 17:20,13:20:29,2.0.10.248,2,2,1,2,,,,,,,,TrainingProc,BlockList,16,2,Distractor2.bmp,2,0,,0,1,2475073,601,,0,0,purple,600,3,600,,horizontal,red,Target2.bmp,yellow,Distractor2.bmp,lime,Distractor2.bmp,cyan,Distractor2.bmp,blue,Distractor1.bmp,purple,Distractor2.bmp,,,,TrialProc,5,TrainingTrialList,1,2,-999999,1,2475674,0,2,775,2476449,Target2.bmp,red,2,,,,7,1,16
KW_Experiment5A,5,1,"<?xml version=""1.0""?>\n<Clock xmlns:dt=""urn:schemas-microsoft-com:datatypes""><Description dt:dt=""string"">E-Prime Primary Realtime Clock</Description><StartTime><Timestamp dt:dt=""int"">0</Timestamp><DateUtc dt:dt=""string"">2018-10-08T17:20:28Z</DateUtc></StartTime><FrequencyChanges><FrequencyChange><Frequency dt:dt=""r8"">3215244</Frequency><Timestamp dt:dt=""r8"">4635226942968</Timestamp><Current dt:dt=""r8"">0</Current><DateUtc dt:dt=""string"">2018-10-08T17:20:28Z</DateUtc></FrequencyChange></FrequencyChanges></Clock>\n",KW_Experiment5A-5-1,59.946,1.0.0.105,1,957885846,Professional,2.0.10.353,2.0.10.353,10/8/2018,10/8/2018 17:20,13:20:29,2.0.10.248,2,2,1,2,,,,,,,,TrainingProc,BlockList,17,2,Distractor2.bmp,2,0,,0,1,2477459,500,,0,0,red,500,2,500,1,horizontal,red,Distractor2.bmp,blue,Distractor1.bmp,cyan,Distractor2.bmp,lime,Target2.bmp,purple,Distractor2.bmp,yellow,Distractor1.bmp,,,,TrialProc,,TrainingTrialList,0,2,-999999,0,2477959,0,1,754,2478713,Target2.bmp,lime,2,,,,4,1,17
KW_Experiment5A,5,1,"<?xml version=""1.0""?>\n<Clock xmlns:dt=""urn:schemas-microsoft-com:datatypes""><Description dt:dt=""string"">E-Prime Primary Realtime Clock</Description><StartTime><Timestamp dt:dt=""int"">0</Timestamp><DateUtc dt:dt=""string"">2018-10-08T17:20:28Z</DateUtc></StartTime><FrequencyChanges><FrequencyChange><Frequency dt:dt=""r8"">3215244</Frequency><Timestamp dt:dt=""r8"">4635226942968</Timestamp><Current dt:dt=""r8"">0</Current><DateUtc dt:dt=""string"">2018-10-08T17:20:28Z</DateUtc></FrequencyChange></FrequencyChanges></Clock>\n",KW_Experiment5A-5-1,59.946,1.0.0.105,1,957885846,Professional,2.0.10.353,2.0.10.353,10/8/2018,10/8/2018 17:20,13:20:29,2.0.10.248,2,2,1,2,,,,,,,,TrainingProc,BlockList,18,1,Distractor2.bmp,2,0,,0,1,2479728,500,,0,0,purple,500,2,500,5,vertical,purple,Distractor2.bmp,red,Distractor2.bmp,yellow,Distractor2.bmp,cyan,Distractor1.bmp,lime,Target1.bmp,blue,Distractor2.bmp,,,,TrialProc,,TrainingTrialList,1,1,-999999,0,2480228,0,1,749,2480977,Target1.bmp,lime,1,,,,5,1,18
KW_Experiment5A,5,1,"<?xml version=""1.0""?>\n<Clock xmlns:dt=""urn:schemas-microsoft-com:datatypes""><Description dt:dt=""string"">E-Prime Primary Realtime Clock</Description><StartTime><Timestamp dt:dt=""int"">0</Timestamp><DateUtc dt:dt=""string"">2018-10-08T17:20:28Z</DateUtc></StartTime><FrequencyChanges><FrequencyChange><Frequency dt:dt=""r8"">3215244</Frequency><Timestamp dt:dt=""r8"">4635226942968</Timestamp><Current dt:dt=""r8"">0</Current><DateUtc dt:dt=""string"">2018-10-08T17:20:28Z</DateUtc></FrequencyChange></FrequencyChanges></Clock>\n",KW_Experiment5A-5-1,59.946,1.0.0.105,1,957885846,Professional,2.0.10.353,2.0.10.353,10/8/2018,10/8/2018 17:20,13:20:29,2.0.10.248,2,2,1,2,,,,,,,,TrainingProc,BlockList,19,1,Distractor1.bmp,1,0,,0,1,2481996,401,,0,0,yellow,400,1,400,,vertical,yellow,Distractor1.bmp,blue,Distractor1.bmp,red,Target1.bmp,purple,Distractor1.bmp,lime,Distractor1.bmp,cyan,Distractor1.bmp,,,,TrialProc,2,TrainingTrialList,0,1,-999999,1,2482397,0,2,948,2483345,Target1.bmp,red,1,,,,9,1,19
KW_Experiment5A,5,1,"<?xml version=""1.0""?>\n<Clock xmlns:dt=""urn:schemas-microsoft-com:datatypes""><Description dt:dt=""string"">E-Prime Primary Realtime Clock</Description><StartTime><Timestamp dt:dt=""int"">0</Timestamp><DateUtc dt:dt=""string"">2018-10-08T17:20:28Z</DateUtc></StartTime><FrequencyChanges><FrequencyChange><Frequency dt:dt=""r8"">3215244</Frequency><Timestamp dt:dt=""r8"">4635226942968</Timestamp><Current dt:dt=""r8"">0</Current><DateUtc dt:dt=""string"">2018-10-08T17:20:28Z</DateUtc></FrequencyChange></FrequencyChanges></Clock>\n",KW_Experiment5A-5-1,59.946,1.0.0.105,1,957885846,Professional,2.0.10.353,2.0.10.353,10/8/2018,10/8/2018 17:20,13:20:29,2.0.10.248,2,2,1,2,,,,,,,,TrainingProc,BlockList,20,1,Distractor2.bmp,2,0,,0,1,2484365,401,,0,0,red,400,1,400,1,vertical,red,Distractor2.bmp,cyan,Distractor2.bmp,blue,Distractor2.bmp,purple,Distractor1.bmp,yellow,Distractor1.bmp,lime,Target1.bmp,,,,TrialProc,,TrainingTrialList,1,1,-999999,1,2484766,0,1,731,2485497,Target1.bmp,lime,1,,,,6,1,20
KW_Experiment5A,5,1,"<?xml version=""1.0""?>\n<Clock xmlns:dt=""urn:schemas-microsoft-com:datatypes""><Description dt:dt=""string"">E-Prime Primary Realtime Clock</Description><StartTime><Timestamp dt:dt=""int"">0</Timestamp><DateUtc dt:dt=""string"">2018-10-08T17:20:28Z</DateUtc></StartTime><FrequencyChanges><FrequencyChange><Frequency dt:dt=""r8"">3215244</Frequency><Timestamp dt:dt=""r8"">4635226942968</Timestamp><Current dt:dt=""r8"">0</Current><DateUtc dt:dt=""string"">2018-10-08T17:20:28Z</DateUtc></FrequencyChange></FrequencyChanges></Clock>\n",KW_Experiment5A-5-1,59.946,1.0.0.105,1,957885846,Professional,2.0.10.353,2.0.10.353,10/8/2018,10/8/2018 17:20,13:20:29,2.0.10.248,2,2,1,2,,,,,,,,TrainingProc,BlockList,21,2,Distractor1.bmp,1,0,,0,1,2486517,501,,0,0,blue,500,2,500,,horizontal,blue,Distractor1.bmp,yellow,Distractor2.bmp,lime,Distractor1.bmp,cyan,Distractor2.bmp,purple,Distractor2.bmp,red,Target2.bmp,,,,TrialProc,3,TrainingTrialList,1,2,-999999,1,2487018,0,2,631,2487649,Target2.bmp,red,2,,,,12,1,21
KW_Experiment5A,5,1,"<?xml version=""1.0""?>\n<Clock xmlns:dt=""urn:schemas-microsoft-com:datatypes""><Description dt:dt=""string"">E-Prime Primary Realtime Clock</Description><StartTime><Timestamp dt:dt=""int"">0</Timestamp><DateUtc dt:dt=""string"">2018-10-08T17:20:28Z</DateUtc></StartTime><FrequencyChanges><FrequencyChange><Frequency dt:dt=""r8"">3215244</Frequency><Timestamp dt:dt=""r8"">4635226942968</Timestamp><Current dt:dt=""r8"">0</Current><DateUtc dt:dt=""string"">2018-10-08T17:20:28Z</DateUtc></FrequencyChange></FrequencyChanges></Clock>\n",KW_Experiment5A-5-1,59.946,1.0.0.105,1,957885846,Professional,2.0.10.353,2.0.10.353,10/8/2018,10/8/2018 17:20,13:20:29,2.0.10.248,2,2,1,2,,,,,,,,TrainingProc,BlockList,22,1,Distractor1.bmp,1,0,,0,1,2488669,601,,0,0,cyan,600,3,600,4,vertical,lime,Target1.bmp,cyan,Distractor1.bmp,purple,Distractor2.bmp,yellow,Distractor2.bmp,blue,Distractor2.bmp,red,Distractor1.bmp,,,,TrialProc,,TrainingTrialList,1,1,-999999,1,2489270,0,1,627,2489897,Target1.bmp,lime,1,,,,1,1,22
KW_Experiment5A,5,1,"<?xml version=""1.0""?>\n<Clock xmlns:dt=""urn:schemas-microsoft-com:datatypes""><Description dt:dt=""string"">E-Prime Primary Realtime Clock</Description><StartTime><Timestamp dt:dt=""int"">0</Timestamp><DateUtc dt:dt=""string"">2018-10-08T17:20:28Z</DateUtc></StartTime><FrequencyChanges><FrequencyChange><Frequency dt:dt=""r8"">3215244</Frequency><Timestamp dt:dt=""r8"">4635226942968</Timestamp><Current dt:dt=""r8"">0</Current><DateUtc dt:dt=""string"">2018-10-08T17:20:28Z</DateUtc></FrequencyChange></FrequencyChanges></Clock>\n",KW_Experiment5A-5-1,59.946,1.0.0.105,1,957885846,Professional,2.0.10.353,2.0.10.353,10/8/2018,10/8/2018 17:20,13:20:29,2.0.10.248,2,2,1,2,,,,,,,,TrainingProc,BlockList,23,1,Distractor2.bmp,2,0,,0,1,2490921,501,,0,0,red,500,2,500,1,vertical,red,Distractor2.bmp,cyan,Distractor1.bmp,yellow,Distractor1.bmp,lime,Target1.bmp,purple,Distractor2.bmp,blue,Distractor2.bmp,,,,TrialProc,,TrainingTrialList,1,1,-999999,1,2491422,0,1,755,2492177,Target1.bmp,lime,1,,,,4,1,23
KW_Experiment5A,5,1,"<?xml version=""1.0""?>\n<Clock xmlns:dt=""urn:schemas-microsoft-com:datatypes""><Description dt:dt=""string"">E-Prime Primary Realtime Clock</Description><StartTime><Timestamp dt:dt=""int"">0</Timestamp><DateUtc dt:dt=""string"">2018-10-08T17:20:28Z</DateUtc></StartTime><FrequencyChanges><FrequencyChange><Frequency dt:dt=""r8"">3215244</Frequency><Timestamp dt:dt=""r8"">4635226942968</Timestamp><Current dt:dt=""r8"">0</Current><DateUtc dt:dt=""string"">2018-10-08T17:20:28Z</DateUtc></FrequencyChange></FrequencyChanges></Clock>\n",KW_Experiment5A-5-1,59.946,1.0.0.105,1,957885846,Professional,2.0.10.353,2.0.10.353,10/8/2018,10/8/2018 17:20,13:20:29,2.0.10.248,2,2,1,2,,,,,,,,TrainingProc,BlockList,24,2,Distractor2.bmp,2,0,,0,1,2493190,601,,0,0,red,600,3,600,1,horizontal,lime,Target2.bmp,red,Distractor2.bmp,blue,Distractor2.bmp,cyan,Distractor2.bmp,purple,Distractor2.bmp,yellow,Distractor1.bmp,,,,TrialProc,,TrainingTrialList,1,2,-999999,1,2493791,0,2,890,2494681,Target2.bmp,lime,2,,,,1,1,24
KW_Experiment5A,5,1,"<?xml version=""1.0""?>\n<Clock xmlns:dt=""urn:schemas-microsoft-com:datatypes""><Description dt:dt=""string"">E-Prime Primary Realtime Clock</Description><StartTime><Timestamp dt:dt=""int"">0</Timestamp><DateUtc dt:dt=""string"">2018-10-08T17:20:28Z</DateUtc></StartTime><FrequencyChanges><FrequencyChange><Frequency dt:dt=""r8"">3215244</Frequency><Timestamp dt:dt=""r8"">4635226942968</Timestamp><Current dt:dt=""r8"">0</Current><DateUtc dt:dt=""string"">2018-10-08T17:20:28Z</DateUtc></FrequencyChange></FrequencyChanges></Clock>\n",KW_Experiment5A-5-1,59.946,1.0.0.105,1,957885846,Professional,2.0.10.353,2.0.10.353,10/8/2018,10/8/2018 17:20,13:20:29,2.0.10.248,2,2,1,2,,,,,,,,TrainingProc,BlockList,25,1,Distractor1.bmp,1,0,,0,1,2495692,501,,0,0,red,500,2,500,1,vertical,red,Distractor2.bmp,blue,Distractor2.bmp,lime,Target1.bmp,cyan,Distractor1.bmp,purple,Distractor1.bmp,yellow,Distractor1.bmp,,,,TrialProc,,TrainingTrialList,1,1,-999999,1,2496193,0,1,920,2497113,Target1.bmp,lime,1,,,,3,2,25
KW_Experiment5A,5,1,"<?xml version=""1.0""?>\n<Clock xmlns:dt=""urn:schemas-microsoft-com:datatypes""><Description dt:dt=""string"">E-Prime Primary Realtime Clock</Description><StartTime><Timestamp dt:dt=""int"">0</Timestamp><DateUtc dt:dt=""string"">2018-10-08T17:20:28Z</DateUtc></StartTime><FrequencyChanges><FrequencyChange><Frequency dt:dt=""r8"">3215244</Frequency><Timestamp dt:dt=""r8"">4635226942968</Timestamp><Current dt:dt=""r8"">0</Current><DateUtc dt:dt=""string"">2018-10-08T17:20:28Z</DateUtc></FrequencyChange></FrequencyChanges></Clock>\n",KW_Experiment5A-5-1,59.946,1.0.0.105,1,957885846,Professional,2.0.10.353,2.0.10.353,10/8/2018,10/8/2018 17:20,13:20:29,2.0.10.248,2,2,1,2,,,,,,,,TrainingProc,BlockList,26,1,Distractor1.bmp,1,0,,0,1,2498128,400,,0,0,lime,400,1,400,,vertical,lime,Distractor1.bmp,purple,Distractor2.bmp,cyan,Distractor2.bmp,yellow,Distractor1.bmp,blue,Distractor2.bmp,red,Target1.bmp,,,,TrialProc,6,TrainingTrialList,1,1,-999999,0,2498528,0,1,561,2499089,Target1.bmp,red,1,,,,12,2,26
KW_Experiment5A,5,1,"<?xml version=""1.0""?>\n<Clock xmlns:dt=""urn:schemas-microsoft-com:datatypes""><Description dt:dt=""string"">E-Prime Primary Realtime Clock</Description><StartTime><Timestamp dt:dt=""int"">0</Timestamp><DateUtc dt:dt=""string"">2018-10-08T17:20:28Z</DateUtc></StartTime><FrequencyChanges><FrequencyChange><Frequency dt:dt=""r8"">3215244</Frequency><Timestamp dt:dt=""r8"">4635226942968</Timestamp><Current dt:dt=""r8"">0</Current><DateUtc dt:dt=""string"">2018-10-08T17:20:28Z</DateUtc></FrequencyChange></FrequencyChanges></Clock>\n",KW_Experiment5A-5-1,59.946,1.0.0.105,1,957885846,Professional,2.0.10.353,2.0.10.353,10/8/2018,10/8/2018 17:20,13:20:29,2.0.10.248,2,2,1,2,,,,,,,,TrainingProc,BlockList,27,2,Distractor1.bmp,1,0,,0,1,2500113,500,,0,0,yellow,500,2,500,2,horizontal,yellow,Distractor1.bmp,cyan,Distractor2.bmp,red,Distractor2.bmp,blue,Distractor1.bmp,lime,Target2.bmp,purple,Distractor1.bmp,,,,TrialProc,,TrainingTrialList,1,2,-999999,0,2500613,0,2,700,2501313,Target2.bmp,lime,2,,,,5,2,27
KW_Experiment5A,5,1,"<?xml version=""1.0""?>\n<Clock xmlns:dt=""urn:schemas-microsoft-com:datatypes""><Description dt:dt=""string"">E-Prime Primary Realtime Clock</Description><StartTime><Timestamp dt:dt=""int"">0</Timestamp><DateUtc dt:dt=""string"">2018-10-08T17:20:28Z</DateUtc></StartTime><FrequencyChanges><FrequencyChange><Frequency dt:dt=""r8"">3215244</Frequency><Timestamp dt:dt=""r8"">4635226942968</Timestamp><Current dt:dt=""r8"">0</Current><DateUtc dt:dt=""string"">2018-10-08T17:20:28Z</DateUtc></FrequencyChange></FrequencyChanges></Clock>\n",KW_Experiment5A-5-1,59.946,1.0.0.105,1,957885846,Professional,2.0.10.353,2.0.10.353,10/8/2018,10/8/2018 17:20,13:20:29,2.0.10.248,2,2,1,2,,,,,,,,TrainingProc,BlockList,28,1,Distractor1.bmp,1,0,,0,1,2502332,500,,0,0,cyan,500,2,500,4,vertical,lime,Target1.bmp,cyan,Distractor1.bmp,red,Distractor2.bmp,blue,Distractor2.bmp,yellow,Distractor1.bmp,purple,Distractor1.bmp,,,,TrialProc,,TrainingTrialList,1,1,-999999,0,2502832,0,1,697,2503529,Target1.bmp,lime,1,,,,1,2,28
KW_Experiment5A,5,1,"<?xml version=""1.0""?>\n<Clock xmlns:dt=""urn:schemas-microsoft-com:datatypes""><Description dt:dt=""string"">E-Prime Primary Realtime Clock</Description><StartTime><Timestamp dt:dt=""int"">0</Timestamp><DateUtc dt:dt=""string"">2018-10-08T17:20:28Z</DateUtc></StartTime><FrequencyChanges><FrequencyChange><Frequency dt:dt=""r8"">3215244</Frequency><Timestamp dt:dt=""r8"">4635226942968</Timestamp><Current dt:dt=""r8"">0</Current><DateUtc dt:dt=""string"">2018-10-08T17:20:28Z</DateUtc></FrequencyChange></FrequencyChanges></Clock>\n",KW_Experiment5A-5-1,59.946,1.0.0.105,1,957885846,Professional,2.0.10.353,2.0.10.353,10/8/2018,10/8/2018 17:20,13:20:29,2.0.10.248,2,2,1,2,,,,,,,,TrainingProc,BlockList,29,2,Distractor2.bmp,2,0,,0,1,2504550,401,,0,0,red,400,1,400,1,horizontal,red,Distractor2.bmp,lime,Target2.bmp,purple,Distractor2.bmp,yellow,Distractor1.bmp,blue,Distractor2.bmp,cyan,Distractor2.bmp,,,,TrialProc,,TrainingTrialList,1,2,-999999,1,2504951,0,2,706,2505657,Target2.bmp,lime,2,,,,2,2,29
KW_Experiment5A,5,1,"<?xml version=""1.0""?>\n<Clock xmlns:dt=""urn:schemas-microsoft-com:datatypes""><Description dt:dt=""string"">E-Prime Primary Realtime Clock</Description><StartTime><Timestamp dt:dt=""int"">0</Timestamp><DateUtc dt:dt=""string"">2018-10-08T17:20:28Z</DateUtc></StartTime><FrequencyChanges><FrequencyChange><Frequency dt:dt=""r8"">3215244</Frequency><Timestamp dt:dt=""r8"">4635226942968</Timestamp><Current dt:dt=""r8"">0</Current><DateUtc dt:dt=""string"">2018-10-08T17:20:28Z</DateUtc></FrequencyChange></FrequencyChanges></Clock>\n",KW_Experiment5A-5-1,59.946,1.0.0.105,1,957885846,Professional,2.0.10.353,2.0.10.353,10/8/2018,10/8/2018 17:20,13:20:29,2.0.10.248,2,2,1,2,,,,,,,,TrainingProc,BlockList,30,1,Distractor1.bmp,1,0,,0,1,2506669,601,,0,0,purple,600,3,600,,vertical,purple,Distractor2.bmp,blue,Distractor1.bmp,red,Target1.bmp,cyan,Distractor1.bmp,yellow,Distractor1.bmp,lime,Distractor1.bmp,,,,TrialProc,5,TrainingTrialList,1,1,-999999,1,2507270,0,1,1179,2508449,Target1.bmp,red,1,,,,9,2,30
KW_Experiment5A,5,1,"<?xml version=""1.0""?>\n<Clock xmlns:dt=""urn:schemas-microsoft-com:datatypes""><Description dt:dt=""string"">E-Prime Primary Realtime Clock</Description><StartTime><Timestamp dt:dt=""int"">0</Timestamp><DateUtc dt:dt=""string"">2018-10-08T17:20:28Z</DateUtc></StartTime><FrequencyChanges><FrequencyChange><Frequency dt:dt=""r8"">3215244</Frequency><Timestamp dt:dt=""r8"">4635226942968</Timestamp><Current dt:dt=""r8"">0</Current><DateUtc dt:dt=""string"">2018-10-08T17:20:28Z</DateUtc></FrequencyChange></FrequencyChanges></Clock>\n",KW_Experiment5A-5-1,59.946,1.0.0.105,1,957885846,Professional,2.0.10.353,2.0.10.353,10/8/2018,10/8/2018 17:20,13:20:29,2.0.10.248,2,2,1,2,,,,,,,,TrainingProc,BlockList,31,1,Distractor2.bmp,2,0,,0,1,2509472,500,,0,0,yellow,500,2,500,2,vertical,yellow,Distractor1.bmp,lime,Target1.bmp,purple,Distractor2.bmp,cyan,Distractor2.bmp,red,Distractor2.bmp,blue,Distractor1.bmp,,,,TrialProc,,TrainingTrialList,1,1,-999999,0,2509972,0,1,837,2510809,Target1.bmp,lime,1,,,,2,2,31
KW_Experiment5A,5,1,"<?xml version=""1.0""?>\n<Clock xmlns:dt=""urn:schemas-microsoft-com:datatypes""><Description dt:dt=""string"">E-Prime Primary Realtime Clock</Description><StartTime><Timestamp dt:dt=""int"">0</Timestamp><DateUtc dt:dt=""string"">2018-10-08T17:20:28Z</DateUtc></StartTime><FrequencyChanges><FrequencyChange><Frequency dt:dt=""r8"">3215244</Frequency><Timestamp dt:dt=""r8"">4635226942968</Timestamp><Current dt:dt=""r8"">0</Current><DateUtc dt:dt=""string"">2018-10-08T17:20:28Z</DateUtc></FrequencyChange></FrequencyChanges></Clock>\n",KW_Experiment5A-5-1,59.946,1.0.0.105,1,957885846,Professional,2.0.10.353,2.0.10.353,10/8/2018,10/8/2018 17:20,13:20:29,2.0.10.248,2,2,1,2,,,,,,,,TrainingProc,BlockList,32,1,Distractor2.bmp,2,0,,0,1,2511824,400,,0,0,lime,400,1,400,,vertical,red,Target1.bmp,blue,Distractor2.bmp,purple,Distractor2.bmp,yellow,Distractor1.bmp,cyan,Distractor2.bmp,lime,Distractor1.bmp,,,,TrialProc,6,TrainingTrialList,1,1,-999999,0,2512224,0,1,705,2512929,Target1.bmp,red,1,,,,7,2,32
KW_Experiment5A,5,1,"<?xml version=""1.0""?>\n<Clock xmlns:dt=""urn:schemas-microsoft-com:datatypes""><Description dt:dt=""string"">E-Prime Primary Realtime Clock</Description><StartTime><Timestamp dt:dt=""int"">0</Timestamp><DateUtc dt:dt=""string"">2018-10-08T17:20:28Z</DateUtc></StartTime><FrequencyChanges><FrequencyChange><Frequency dt:dt=""r8"">3215244</Frequency><Timestamp dt:dt=""r8"">4635226942968</Timestamp><Current dt:dt=""r8"">0</Current><DateUtc dt:dt=""string"">2018-10-08T17:20:28Z</DateUtc></FrequencyChange></FrequencyChanges></Clock>\n",KW_Experiment5A-5-1,59.946,1.0.0.105,1,957885846,Professional,2.0.10.353,2.0.10.353,10/8/2018,10/8/2018 17:20,13:20:29,2.0.10.248,2,2,1,2,,,,,,,,TrainingProc,BlockList,33,1,Distractor1.bmp,1,0,,0,1,2513942,601,,0,0,yellow,600,3,600,,vertical,yellow,Distractor1.bmp,lime,Distractor1.bmp,blue,Distractor2.bmp,cyan,Distractor2.bmp,red,Target1.bmp,purple,Distractor1.bmp,,,,TrialProc,2,TrainingTrialList,1,1,-999999,1,2514543,0,1,538,2515081,Target1.bmp,red,1,,,,11,2,33
KW_Experiment5A,5,1,"<?xml version=""1.0""?>\n<Clock xmlns:dt=""urn:schemas-microsoft-com:datatypes""><Description dt:dt=""string"">E-Prime Primary Realtime Clock</Description><StartTime><Timestamp dt:dt=""int"">0</Timestamp><DateUtc dt:dt=""string"">2018-10-08T17:20:28Z</DateUtc></StartTime><FrequencyChanges><FrequencyChange><Frequency dt:dt=""r8"">3215244</Frequency><Timestamp dt:dt=""r8"">4635226942968</Timestamp><Current dt:dt=""r8"">0</Current><DateUtc dt:dt=""string"">2018-10-08T17:20:28Z</DateUtc></FrequencyChange></FrequencyChanges></Clock>\n",KW_Experiment5A-5-1,59.946,1.0.0.105,1,957885846,Professional,2.0.10.353,2.0.10.353,10/8/2018,10/8/2018 17:20,13:20:29,2.0.10.248,2,2,1,2,,,,,,,,TrainingProc,BlockList,34,2,Distractor1.bmp,1,0,,0,1,2516094,401,,0,0,lime,400,1,400,,horizontal,lime,Distractor1.bmp,blue,Distractor1.bmp,purple,Distractor2.bmp,red,Target2.bmp,cyan,Distractor1.bmp,yellow,Distractor1.bmp,,,,TrialProc,6,TrainingTrialList,1,2,-999999,1,2516495,0,2,610,2517105,Target2.bmp,red,2,,,,10,2,34
KW_Experiment5A,5,1,"<?xml version=""1.0""?>\n<Clock xmlns:dt=""urn:schemas-microsoft-com:datatypes""><Description dt:dt=""string"">E-Prime Primary Realtime Clock</Description><StartTime><Timestamp dt:dt=""int"">0</Timestamp><DateUtc dt:dt=""string"">2018-10-08T17:20:28Z</DateUtc></StartTime><FrequencyChanges><FrequencyChange><Frequency dt:dt=""r8"">3215244</Frequency><Timestamp dt:dt=""r8"">4635226942968</Timestamp><Current dt:dt=""r8"">0</Current><DateUtc dt:dt=""string"">2018-10-08T17:20:28Z</DateUtc></FrequencyChange></FrequencyChanges></Clock>\n",KW_Experiment5A-5-1,59.946,1.0.0.105,1,957885846,Professional,2.0.10.353,2.0.10.353,10/8/2018,10/8/2018 17:20,13:20:29,2.0.10.248,2,2,1,2,,,,,,,,TrainingProc,BlockList,35,1,Distractor2.bmp,2,0,,0,1,2518130,500,,0,0,yellow,500,2,500,2,vertical,yellow,Distractor2.bmp,blue,Distractor1.bmp,red,Distractor2.bmp,purple,Distractor1.bmp,cyan,Distractor2.bmp,lime,Target1.bmp,,,,TrialProc,,TrainingTrialList,1,1,-999999,0,2518630,0,1,827,2519457,Target1.bmp,lime,1,,,,6,2,35
KW_Experiment5A,5,1,"<?xml version=""1.0""?>\n<Clock xmlns:dt=""urn:schemas-microsoft-com:datatypes""><Description dt:dt=""string"">E-Prime Primary Realtime Clock</Description><StartTime><Timestamp dt:dt=""int"">0</Timestamp><DateUtc dt:dt=""string"">2018-10-08T17:20:28Z</DateUtc></StartTime><FrequencyChanges><FrequencyChange><Frequency dt:dt=""r8"">3215244</Frequency><Timestamp dt:dt=""r8"">4635226942968</Timestamp><Current dt:dt=""r8"">0</Current><DateUtc dt:dt=""string"">2018-10-08T17:20:28Z</DateUtc></FrequencyChange></FrequencyChanges></Clock>\n",KW_Experiment5A-5-1,59.946,1.0.0.105,1,957885846,Professional,2.0.10.353,2.0.10.353,10/8/2018,10/8/2018 17:20,13:20:29,2.0.10.248,2,2,1,2,,,,,,,,TrainingProc,BlockList,36,1,Distractor2.bmp,2,0,,0,1,2520482,500,,0,0,yellow,500,2,500,2,vertical,yellow,Distractor1.bmp,blue,Distractor1.bmp,purple,Distractor2.bmp,lime,Target1.bmp,cyan,Distractor2.bmp,red,Distractor2.bmp,,,,TrialProc,,TrainingTrialList,1,1,-999999,0,2520982,0,1,1019,2522001,Target1.bmp,lime,1,,,,4,2,36
KW_Experiment5A,5,1,"<?xml version=""1.0""?>\n<Clock xmlns:dt=""urn:schemas-microsoft-com:datatypes""><Description dt:dt=""string"">E-Prime Primary Realtime Clock</Description><StartTime><Timestamp dt:dt=""int"">0</Timestamp><DateUtc dt:dt=""string"">2018-10-08T17:20:28Z</DateUtc></StartTime><FrequencyChanges><FrequencyChange><Frequency dt:dt=""r8"">3215244</Frequency><Timestamp dt:dt=""r8"">4635226942968</Timestamp><Current dt:dt=""r8"">0</Current><DateUtc dt:dt=""string"">2018-10-08T17:20:28Z</DateUtc></FrequencyChange></FrequencyChanges></Clock>\n",KW_Experiment5A-5-1,59.946,1.0.0.105,1,957885846,Professional,2.0.10.353,2.0.10.353,10/8/2018,10/8/2018 17:20,13:20:29,2.0.10.248,2,2,1,2,,,,,,,,TrainingProc,BlockList,37,1,Distractor2.bmp,2,0,,1,0,2523017,601,,0,0,red,600,3,600,1,vertical,lime,Target1.bmp,red,Distractor2.bmp,purple,Distractor1.bmp,cyan,Distractor2.bmp,yellow,Distractor2.bmp,blue,Distractor2.bmp,,,,TrialProc,,TrainingTrialList,1,1,-999999,1,2523618,0,1,671,2524289,Target1.bmp,lime,1,,,,1,2,37
KW_Experiment5A,5,1,"<?xml version=""1.0""?>\n<Clock xmlns:dt=""urn:schemas-microsoft-com:datatypes""><Description dt:dt=""string"">E-Prime Primary Realtime Clock</Description><StartTime><Timestamp dt:dt=""int"">0</Timestamp><DateUtc dt:dt=""string"">2018-10-08T17:20:28Z</DateUtc></StartTime><FrequencyChanges><FrequencyChange><Frequency dt:dt=""r8"">3215244</Frequency><Timestamp dt:dt=""r8"">4635226942968</Timestamp><Current dt:dt=""r8"">0</Current><DateUtc dt:dt=""string"">2018-10-08T17:20:28Z</DateUtc></FrequencyChange></FrequencyChanges></Clock>\n",KW_Experiment5A-5-1,59.946,1.0.0.105,1,957885846,Professional,2.0.10.353,2.0.10.353,10/8/2018,10/8/2018 17:20,13:20:29,2.0.10.248,2,2,1,2,,,,,,,,TrainingProc,BlockList,38,2,Distractor2.bmp,2,0,,0,1,2525303,500,,0,0,yellow,500,2,500,2,horizontal,yellow,Distractor2.bmp,purple,Distractor2.bmp,blue,Distractor2.bmp,cyan,Distractor2.bmp,red,Distractor2.bmp,lime,Target2.bmp,,,,TrialProc,,TrainingTrialList,1,2,-999999,0,2525803,0,2,590,2526393,Target2.bmp,lime,2,,,,6,2,38
KW_Experiment5A,5,1,"<?xml version=""1.0""?>\n<Clock xmlns:dt=""urn:schemas-microsoft-com:datatypes""><Description dt:dt=""string"">E-Prime Primary Realtime Clock</Description><StartTime><Timestamp dt:dt=""int"">0</Timestamp><DateUtc dt:dt=""string"">2018-10-08T17:20:28Z</DateUtc></StartTime><FrequencyChanges><FrequencyChange><Frequency dt:dt=""r8"">3215244</Frequency><Timestamp dt:dt=""r8"">4635226942968</Timestamp><Current dt:dt=""r8"">0</Current><DateUtc dt:dt=""string"">2018-10-08T17:20:28Z</DateUtc></FrequencyChange></FrequencyChanges></Clock>\n",KW_Experiment5A-5-1,59.946,1.0.0.105,1,957885846,Professional,2.0.10.353,2.0.10.353,10/8/2018,10/8/2018 17:20,13:20:29,2.0.10.248,2,2,1,2,,,,,,,,TrainingProc,BlockList,39,1,Distractor1.bmp,1,0,,0,1,2527405,400,,0,0,yellow,400,1,400,,vertical,yellow,Distractor2.bmp,red,Target1.bmp,purple,Distractor1.bmp,blue,Distractor1.bmp,cyan,Distractor1.bmp,lime,Distractor1.bmp,,,,TrialProc,2,TrainingTrialList,1,1,-999999,0,2527805,0,1,940,2528745,Target1.bmp,red,1,,,,8,2,39
KW_Experiment5A,5,1,"<?xml version=""1.0""?>\n<Clock xmlns:dt=""urn:schemas-microsoft-com:datatypes""><Description dt:dt=""string"">E-Prime Primary Realtime Clock</Description><StartTime><Timestamp dt:dt=""int"">0</Timestamp><DateUtc dt:dt=""string"">2018-10-08T17:20:28Z</DateUtc></StartTime><FrequencyChanges><FrequencyChange><Frequency dt:dt=""r8"">3215244</Frequency><Timestamp dt:dt=""r8"">4635226942968</Timestamp><Current dt:dt=""r8"">0</Current><DateUtc dt:dt=""string"">2018-10-08T17:20:28Z</DateUtc></FrequencyChange></FrequencyChanges></Clock>\n",KW_Experiment5A-5-1,59.946,1.0.0.105,1,957885846,Professional,2.0.10.353,2.0.10.353,10/8/2018,10/8/2018 17:20,13:20:29,2.0.10.248,2,2,1,2,,,,,,,,TrainingProc,BlockList,40,2,Distractor2.bmp,2,0,,0,1,2529757,500,,0,0,yellow,500,2,500,2,horizontal,yellow,Distractor2.bmp,red,Distractor1.bmp,cyan,Distractor2.bmp,purple,Distractor1.bmp,lime,Target2.bmp,blue,Distractor2.bmp,,,,TrialProc,,TrainingTrialList,1,2,-999999,0,2530257,0,2,656,2530913,Target2.bmp,lime,2,,,,5,2,40
KW_Experiment5A,5,1,"<?xml version=""1.0""?>\n<Clock xmlns:dt=""urn:schemas-microsoft-com:datatypes""><Description dt:dt=""string"">E-Prime Primary Realtime Clock</Description><StartTime><Timestamp dt:dt=""int"">0</Timestamp><DateUtc dt:dt=""string"">2018-10-08T17:20:28Z</DateUtc></StartTime><FrequencyChanges><FrequencyChange><Frequency dt:dt=""r8"">3215244</Frequency><Timestamp dt:dt=""r8"">4635226942968</Timestamp><Current dt:dt=""r8"">0</Current><DateUtc dt:dt=""string"">2018-10-08T17:20:28Z</DateUtc></FrequencyChange></FrequencyChanges></Clock>\n",KW_Experiment5A-5-1,59.946,1.0.0.105,1,957885846,Professional,2.0.10.353,2.0.10.353,10/8/2018,10/8/2018 17:20,13:20:29,2.0.10.248,2,2,1,2,,,,,,,,TrainingProc,BlockList,41,1,Distractor2.bmp,2,0,,0,1,2531926,500,,0,0,blue,500,2,500,3,vertical,lime,Target1.bmp,blue,Distractor2.bmp,yellow,Distractor1.bmp,cyan,Distractor2.bmp,red,Distractor2.bmp,purple,Distractor2.bmp,,,,TrialProc,,TrainingTrialList,1,1,-999999,0,2532426,0,1,615,2533041,Target1.bmp,lime,1,,,,1,2,41
KW_Experiment5A,5,1,"<?xml version=""1.0""?>\n<Clock xmlns:dt=""urn:schemas-microsoft-com:datatypes""><Description dt:dt=""string"">E-Prime Primary Realtime Clock</Description><StartTime><Timestamp dt:dt=""int"">0</Timestamp><DateUtc dt:dt=""string"">2018-10-08T17:20:28Z</DateUtc></StartTime><FrequencyChanges><FrequencyChange><Frequency dt:dt=""r8"">3215244</Frequency><Timestamp dt:dt=""r8"">4635226942968</Timestamp><Current dt:dt=""r8"">0</Current><DateUtc dt:dt=""string"">2018-10-08T17:20:28Z</DateUtc></FrequencyChange></FrequencyChanges></Clock>\n",KW_Experiment5A-5-1,59.946,1.0.0.105,1,957885846,Professional,2.0.10.353,2.0.10.353,10/8/2018,10/8/2018 17:20,13:20:29,2.0.10.248,2,2,1,2,,,,,,,,TrainingProc,BlockList,42,2,Distractor2.bmp,2,0,,0,1,2534061,500,,0,0,yellow,500,2,500,2,horizontal,yellow,Distractor2.bmp,purple,Distractor1.bmp,lime,Target2.bmp,cyan,Distractor2.bmp,blue,Distractor1.bmp,red,Distractor2.bmp,,,,TrialProc,,TrainingTrialList,1,2,-999999,0,2534561,0,2,864,2535425,Target2.bmp,lime,2,,,,3,2,42
KW_Experiment5A,5,1,"<?xml version=""1.0""?>\n<Clock xmlns:dt=""urn:schemas-microsoft-com:datatypes""><Description dt:dt=""string"">E-Prime Primary Realtime Clock</Description><StartTime><Timestamp dt:dt=""int"">0</Timestamp><DateUtc dt:dt=""string"">2018-10-08T17:20:28Z</DateUtc></StartTime><FrequencyChanges><FrequencyChange><Frequency dt:dt=""r8"">3215244</Frequency><Timestamp dt:dt=""r8"">4635226942968</Timestamp><Current dt:dt=""r8"">0</Current><DateUtc dt:dt=""string"">2018-10-08T17:20:28Z</DateUtc></FrequencyChange></FrequencyChanges></Clock>\n",KW_Experiment5A-5-1,59.946,1.0.0.105,1,957885846,Professional,2.0.10.353,2.0.10.353,10/8/2018,10/8/2018 17:20,13:20:29,2.0.10.248,2,2,1,2,,,,,,,,TrainingProc,BlockList,43,1,Distractor2.bmp,2,0,,1,0,2536446,401,,0,0,yellow,400,1,400,2,vertical,yellow,Distractor2.bmp,blue,Distractor1.bmp,cyan,Distractor1.bmp,lime,Target1.bmp,red,Distractor2.bmp,purple,Distractor2.bmp,,,,TrialProc,,TrainingTrialList,1,1,-999999,1,2536847,0,1,746,2537593,Target1.bmp,lime,1,,,,4,2,43
KW_Experiment5A,5,1,"<?xml version=""1.0""?>\n<Clock xmlns:dt=""urn:schemas-microsoft-com:datatypes""><Description dt:dt=""string"">E-Prime Primary Realtime Clock</Description><StartTime><Timestamp dt:dt=""int"">0</Timestamp><DateUtc dt:dt=""string"">2018-10-08T17:20:28Z</DateUtc></StartTime><FrequencyChanges><FrequencyChange><Frequency dt:dt=""r8"">3215244</Frequency><Timestamp dt:dt=""r8"">4635226942968</Timestamp><Current dt:dt=""r8"">0</Current><DateUtc dt:dt=""string"">2018-10-08T17:20:28Z</DateUtc></FrequencyChange></FrequencyChanges></Clock>\n",KW_Experiment5A-5-1,59.946,1.0.0.105,1,957885846,Professional,2.0.10.353,2.0.10.353,10/8/2018,10/8/2018 17:20,13:20:29,2.0.10.248,2,2,1,2,,,,,,,,TrainingProc,BlockList,44,2,Distractor2.bmp,2,0,,0,1,2538615,601,,0,0,red,600,3,600,1,horizontal,red,Distractor2.bmp,yellow,Distractor2.bmp,purple,Distractor2.bmp,lime,Target2.bmp,blue,Distractor2.bmp,cyan,Distractor2.bmp,,,,TrialProc,,TrainingTrialList,1,2,-999999,1,2539216,0,2,969,2540185,Target2.bmp,lime,2,,,,4,2,44
KW_Experiment5A,5,1,"<?xml version=""1.0""?>\n<Clock xmlns:dt=""urn:schemas-microsoft-com:datatypes""><Description dt:dt=""string"">E-Prime Primary Realtime Clock</Description><StartTime><Timestamp dt:dt=""int"">0</Timestamp><DateUtc dt:dt=""string"">2018-10-08T17:20:28Z</DateUtc></StartTime><FrequencyChanges><FrequencyChange><Frequency dt:dt=""r8"">3215244</Frequency><Timestamp dt:dt=""r8"">4635226942968</Timestamp><Current dt:dt=""r8"">0</Current><DateUtc dt:dt=""string"">2018-10-08T17:20:28Z</DateUtc></FrequencyChange></FrequencyChanges></Clock>\n",KW_Experiment5A-5-1,59.946,1.0.0.105,1,957885846,Professional,2.0.10.353,2.0.10.353,10/8/2018,10/8/2018 17:20,13:20:29,2.0.10.248,2,2,1,2,,,,,,,,TrainingProc,BlockList,45,2,Distractor1.bmp,1,0,,0,1,2541201,400,,0,0,blue,400,1,400,3,horizontal,blue,Distractor1.bmp,yellow,Distractor1.bmp,red,Distractor1.bmp,purple,Distractor2.bmp,cyan,Distractor1.bmp,lime,Target2.bmp,,,,TrialProc,,TrainingTrialList,1,2,-999999,0,2541601,0,2,624,2542225,Target2.bmp,lime,2,,,,6,2,45
KW_Experiment5A,5,1,"<?xml version=""1.0""?>\n<Clock xmlns:dt=""urn:schemas-microsoft-com:datatypes""><Description dt:dt=""string"">E-Prime Primary Realtime Clock</Description><StartTime><Timestamp dt:dt=""int"">0</Timestamp><DateUtc dt:dt=""string"">2018-10-08T17:20:28Z</DateUtc></StartTime><FrequencyChanges><FrequencyChange><Frequency dt:dt=""r8"">3215244</Frequency><Timestamp dt:dt=""r8"">4635226942968</Timestamp><Current dt:dt=""r8"">0</Current><DateUtc dt:dt=""string"">2018-10-08T17:20:28Z</DateUtc></FrequencyChange></FrequencyChanges></Clock>\n",KW_Experiment5A-5-1,59.946,1.0.0.105,1,957885846,Professional,2.0.10.353,2.0.10.353,10/8/2018,10/8/2018 17:20,13:20:29,2.0.10.248,2,2,1,2,,,,,,,,TrainingProc,BlockList,46,2,Distractor1.bmp,1,0,,0,1,2543236,601,,0,0,yellow,600,3,600,2,horizontal,yellow,Distractor1.bmp,lime,Target2.bmp,blue,Distractor1.bmp,red,Distractor1.bmp,cyan,Distractor1.bmp,purple,Distractor1.bmp,,,,TrialProc,,TrainingTrialList,1,2,-999999,1,2543837,0,2,676,2544513,Target2.bmp,lime,2,,,,2,2,46
KW_Experiment5A,5,1,"<?xml version=""1.0""?>\n<Clock xmlns:dt=""urn:schemas-microsoft-com:datatypes""><Description dt:dt=""string"">E-Prime Primary Realtime Clock</Description><StartTime><Timestamp dt:dt=""int"">0</Timestamp><DateUtc dt:dt=""string"">2018-10-08T17:20:28Z</DateUtc></StartTime><FrequencyChanges><FrequencyChange><Frequency dt:dt=""r8"">3215244</Frequency><Timestamp dt:dt=""r8"">4635226942968</Timestamp><Current dt:dt=""r8"">0</Current><DateUtc dt:dt=""string"">2018-10-08T17:20:28Z</DateUtc></FrequencyChange></FrequencyChanges></Clock>\n",KW_Experiment5A-5-1,59.946,1.0.0.105,1,957885846,Professional,2.0.10.353,2.0.10.353,10/8/2018,10/8/2018 17:20,13:20:29,2.0.10.248,2,2,1,2,,,,,,,,TrainingProc,BlockList,47,2,Distractor2.bmp,2,0,,0,1,2545538,601,,0,0,blue,600,3,600,3,horizontal,blue,Distractor2.bmp,yellow,Distractor1.bmp,cyan,Distractor1.bmp,red,Distractor1.bmp,lime,Target2.bmp,purple,Distractor2.bmp,,,,TrialProc,,TrainingTrialList,1,2,-999999,1,2546139,0,2,534,2546673,Target2.bmp,lime,2,,,,5,2,47
KW_Experiment5A,5,1,"<?xml version=""1.0""?>\n<Clock xmlns:dt=""urn:schemas-microsoft-com:datatypes""><Description dt:dt=""string"">E-Prime Primary Realtime Clock</Description><StartTime><Timestamp dt:dt=""int"">0</Timestamp><DateUtc dt:dt=""string"">2018-10-08T17:20:28Z</DateUtc></StartTime><FrequencyChanges><FrequencyChange><Frequency dt:dt=""r8"">3215244</Frequency><Timestamp dt:dt=""r8"">4635226942968</Timestamp><Current dt:dt=""r8"">0</Current><DateUtc dt:dt=""string"">2018-10-08T17:20:28Z</DateUtc></FrequencyChange></FrequencyChanges></Clock>\n",KW_Experiment5A-5-1,59.946,1.0.0.105,1,957885846,Professional,2.0.10.353,2.0.10.353,10/8/2018,10/8/2018 17:20,13:20:29,2.0.10.248,2,2,1,2,,,,,,,,TrainingProc,BlockList,48,2,Distractor2.bmp,2,0,,0,1,2547690,401,,0,0,yellow,400,1,400,2,horizontal,yellow,Distractor2.bmp,purple,Distractor2.bmp,lime,Target2.bmp,blue,Distractor2.bmp,cyan,Distractor2.bmp,red,Distractor1.bmp,,,,TrialProc,,TrainingTrialList,1,2,-999999,1,2548091,0,2,1102,2549193,Target2.bmp,lime,2,,,,3,2,48
KW_Experiment5A,5,1,"<?xml version=""1.0""?>\n<Clock xmlns:dt=""urn:schemas-microsoft-com:datatypes""><Description dt:dt=""string"">E-Prime Primary Realtime Clock</Description><StartTime><Timestamp dt:dt=""int"">0</Timestamp><DateUtc dt:dt=""string"">2018-10-08T17:20:28Z</DateUtc></StartTime><FrequencyChanges><FrequencyChange><Frequency dt:dt=""r8"">3215244</Frequency><Timestamp dt:dt=""r8"">4635226942968</Timestamp><Current dt:dt=""r8"">0</Current><DateUtc dt:dt=""string"">2018-10-08T17:20:28Z</DateUtc></FrequencyChange></FrequencyChanges></Clock>\n",KW_Experiment5A-5-1,59.946,1.0.0.105,1,957885846,Professional,2.0.10.353,2.0.10.353,10/8/2018,10/8/2018 17:20,13:20:29,2.0.10.248,3,2,1,3,,,,,,,,TrainingProc,BlockList,1,2,Distractor2.bmp,2,0,,0,33,2554530,400,,0,0,lime,400,1,400,,horizontal,red,Target2.bmp,yellow,Distractor2.bmp,purple,Distractor1.bmp,blue,Distractor2.bmp,cyan,Distractor1.bmp,lime,Distractor1.bmp,,,,TrialProc,6,TrainingTrialList,1,2,-999999,0,2554930,0,2,591,2555521,Target2.bmp,red,2,,,,7,3,49
KW_Experiment5A,5,1,"<?xml version=""1.0""?>\n<Clock xmlns:dt=""urn:schemas-microsoft-com:datatypes""><Description dt:dt=""string"">E-Prime Primary Realtime Clock</Description><StartTime><Timestamp dt:dt=""int"">0</Timestamp><DateUtc dt:dt=""string"">2018-10-08T17:20:28Z</DateUtc></StartTime><FrequencyChanges><FrequencyChange><Frequency dt:dt=""r8"">3215244</Frequency><Timestamp dt:dt=""r8"">4635226942968</Timestamp><Current dt:dt=""r8"">0</Current><DateUtc dt:dt=""string"">2018-10-08T17:20:28Z</DateUtc></FrequencyChange></FrequencyChanges></Clock>\n",KW_Experiment5A-5-1,59.946,1.0.0.105,1,957885846,Professional,2.0.10.353,2.0.10.353,10/8/2018,10/8/2018 17:20,13:20:29,2.0.10.248,3,2,1,3,,,,,,,,TrainingProc,BlockList,2,2,Distractor2.bmp,2,0,,0,1,2556532,600,,0,0,red,600,3,600,1,horizontal,red,Distractor2.bmp,yellow,Distractor1.bmp,blue,Distractor2.bmp,cyan,Distractor2.bmp,lime,Target2.bmp,purple,Distractor2.bmp,,,,TrialProc,,TrainingTrialList,1,2,-999999,0,2557132,0,2,453,2557585,Target2.bmp,lime,2,,,,5,3,50
KW_Experiment5A,5,1,"<?xml version=""1.0""?>\n<Clock xmlns:dt=""urn:schemas-microsoft-com:datatypes""><Description dt:dt=""string"">E-Prime Primary Realtime Clock</Description><StartTime><Timestamp dt:dt=""int"">0</Timestamp><DateUtc dt:dt=""string"">2018-10-08T17:20:28Z</DateUtc></StartTime><FrequencyChanges><FrequencyChange><Frequency dt:dt=""r8"">3215244</Frequency><Timestamp dt:dt=""r8"">4635226942968</Timestamp><Current dt:dt=""r8"">0</Current><DateUtc dt:dt=""string"">2018-10-08T17:20:28Z</DateUtc></FrequencyChange></FrequencyChanges></Clock>\n",KW_Experiment5A-5-1,59.946,1.0.0.105,1,957885846,Professional,2.0.10.353,2.0.10.353,10/8/2018,10/8/2018 17:20,13:20:29,2.0.10.248,3,2,1,3,,,,,,,,TrainingProc,BlockList,3,2,Distractor1.bmp,1,0,,0,1,2558600,501,,0,0,purple,500,2,500,5,horizontal,purple,Distractor2.bmp,red,Distractor2.bmp,yellow,Distractor2.bmp,lime,Target2.bmp,blue,Distractor1.bmp,cyan,Distractor1.bmp,,,,TrialProc,,TrainingTrialList,1,2,-999999,1,2559101,0,2,628,2559729,Target2.bmp,lime,2,,,,4,3,51
KW_Experiment5A,5,1,"<?xml version=""1.0""?>\n<Clock xmlns:dt=""urn:schemas-microsoft-com:datatypes""><Description dt:dt=""string"">E-Prime Primary Realtime Clock</Description><StartTime><Timestamp dt:dt=""int"">0</Timestamp><DateUtc dt:dt=""string"">2018-10-08T17:20:28Z</DateUtc></StartTime><FrequencyChanges><FrequencyChange><Frequency dt:dt=""r8"">3215244</Frequency><Timestamp dt:dt=""r8"">4635226942968</Timestamp><Current dt:dt=""r8"">0</Current><DateUtc dt:dt=""string"">2018-10-08T17:20:28Z</DateUtc></FrequencyChange></FrequencyChanges></Clock>\n",KW_Experiment5A-5-1,59.946,1.0.0.105,1,957885846,Professional,2.0.10.353,2.0.10.353,10/8/2018,10/8/2018 17:20,13:20:29,2.0.10.248,3,2,1,3,,,,,,,,TrainingProc,BlockList,4,1,Distractor1.bmp,1,0,,0,1,2560752,401,,0,0,cyan,400,1,400,4,vertical,cyan,Distractor1.bmp,red,Distractor2.bmp,yellow,Distractor2.bmp,blue,Distractor2.bmp,purple,Distractor1.bmp,lime,Target1.bmp,,,,TrialProc,,TrainingTrialList,1,1,-999999,1,2561153,0,1,640,2561793,Target1.bmp,lime,1,,,,6,3,52
KW_Experiment5A,5,1,"<?xml version=""1.0""?>\n<Clock xmlns:dt=""urn:schemas-microsoft-com:datatypes""><Description dt:dt=""string"">E-Prime Primary Realtime Clock</Description><StartTime><Timestamp dt:dt=""int"">0</Timestamp><DateUtc dt:dt=""string"">2018-10-08T17:20:28Z</DateUtc></StartTime><FrequencyChanges><FrequencyChange><Frequency dt:dt=""r8"">3215244</Frequency><Timestamp dt:dt=""r8"">4635226942968</Timestamp><Current dt:dt=""r8"">0</Current><DateUtc dt:dt=""string"">2018-10-08T17:20:28Z</DateUtc></FrequencyChange></FrequencyChanges></Clock>\n",KW_Experiment5A-5-1,59.946,1.0.0.105,1,957885846,Professional,2.0.10.353,2.0.10.353,10/8/2018,10/8/2018 17:20,13:20:29,2.0.10.248,3,2,1,3,,,,,,,,TrainingProc,BlockList,5,2,Distractor1.bmp,1,0,,0,1,2562804,601,,0,0,red,600,3,600,1,horizontal,red,Distractor1.bmp,cyan,Distractor2.bmp,blue,Distractor1.bmp,purple,Distractor1.bmp,yellow,Distractor1.bmp,lime,Target2.bmp,,,,TrialProc,,TrainingTrialList,1,2,-999999,1,2563405,0,2,724,2564129,Target2.bmp,lime,2,,,,6,3,53
KW_Experiment5A,5,1,"<?xml version=""1.0""?>\n<Clock xmlns:dt=""urn:schemas-microsoft-com:datatypes""><Description dt:dt=""string"">E-Prime Primary Realtime Clock</Description><StartTime><Timestamp dt:dt=""int"">0</Timestamp><DateUtc dt:dt=""string"">2018-10-08T17:20:28Z</DateUtc></StartTime><FrequencyChanges><FrequencyChange><Frequency dt:dt=""r8"">3215244</Frequency><Timestamp dt:dt=""r8"">4635226942968</Timestamp><Current dt:dt=""r8"">0</Current><DateUtc dt:dt=""string"">2018-10-08T17:20:28Z</DateUtc></FrequencyChange></FrequencyChanges></Clock>\n",KW_Experiment5A-5-1,59.946,1.0.0.105,1,957885846,Professional,2.0.10.353,2.0.10.353,10/8/2018,10/8/2018 17:20,13:20:29,2.0.10.248,3,2,1,3,,,,,,,,TrainingProc,BlockList,6,1,Distractor2.bmp,2,0,,0,1,2565140,400,,0,0,blue,400,1,400,3,vertical,blue,Distractor1.bmp,yellow,Distractor2.bmp,purple,Distractor2.bmp,red,Distractor1.bmp,lime,Target1.bmp,cyan,Distractor2.bmp,,,,TrialProc,,TrainingTrialList,1,1,-999999,0,2565540,0,1,581,2566121,Target1.bmp,lime,1,,,,5,3,54
KW_Experiment5A,5,1,"<?xml version=""1.0""?>\n<Clock xmlns:dt=""urn:schemas-microsoft-com:datatypes""><Description dt:dt=""string"">E-Prime Primary Realtime Clock</Description><StartTime><Timestamp dt:dt=""int"">0</Timestamp><DateUtc dt:dt=""string"">2018-10-08T17:20:28Z</DateUtc></StartTime><FrequencyChanges><FrequencyChange><Frequency dt:dt=""r8"">3215244</Frequency><Timestamp dt:dt=""r8"">4635226942968</Timestamp><Current dt:dt=""r8"">0</Current><DateUtc dt:dt=""string"">2018-10-08T17:20:28Z</DateUtc></FrequencyChange></FrequencyChanges></Clock>\n",KW_Experiment5A-5-1,59.946,1.0.0.105,1,957885846,Professional,2.0.10.353,2.0.10.353,10/8/2018,10/8/2018 17:20,13:20:29,2.0.10.248,3,2,1,3,,,,,,,,TrainingProc,BlockList,7,1,Distractor1.bmp,1,0,,1,0,2567141,601,,0,0,purple,600,3,600,5,vertical,purple,Distractor2.bmp,blue,Distractor1.bmp,lime,Target1.bmp,yellow,Distractor1.bmp,cyan,Distractor2.bmp,red,Distractor1.bmp,,,,TrialProc,,TrainingTrialList,1,1,-999999,1,2567742,0,1,907,2568649,Target1.bmp,lime,1,,,,3,3,55
KW_Experiment5A,5,1,"<?xml version=""1.0""?>\n<Clock xmlns:dt=""urn:schemas-microsoft-com:datatypes""><Description dt:dt=""string"">E-Prime Primary Realtime Clock</Description><StartTime><Timestamp dt:dt=""int"">0</Timestamp><DateUtc dt:dt=""string"">2018-10-08T17:20:28Z</DateUtc></StartTime><FrequencyChanges><FrequencyChange><Frequency dt:dt=""r8"">3215244</Frequency><Timestamp dt:dt=""r8"">4635226942968</Timestamp><Current dt:dt=""r8"">0</Current><DateUtc dt:dt=""string"">2018-10-08T17:20:28Z</DateUtc></FrequencyChange></FrequencyChanges></Clock>\n",KW_Experiment5A-5-1,59.946,1.0.0.105,1,957885846,Professional,2.0.10.353,2.0.10.353,10/8/2018,10/8/2018 17:20,13:20:29,2.0.10.248,3,2,1,3,,,,,,,,TrainingProc,BlockList,8,2,Distractor1.bmp,1,0,,1,1,2569660,401,,0,0,blue,400,1,400,,horizontal,blue,Distractor2.bmp,purple,Distractor2.bmp,cyan,Distractor2.bmp,red,Target2.bmp,lime,Distractor1.bmp,yellow,Distractor1.bmp,,,,TrialProc,3,TrainingTrialList,0,2,-999999,1,2570061,0,1,868,2570929,Target2.bmp,red,2,,,,10,3,56
KW_Experiment5A,5,1,"<?xml version=""1.0""?>\n<Clock xmlns:dt=""urn:schemas-microsoft-com:datatypes""><Description dt:dt=""string"">E-Prime Primary Realtime Clock</Description><StartTime><Timestamp dt:dt=""int"">0</Timestamp><DateUtc dt:dt=""string"">2018-10-08T17:20:28Z</DateUtc></StartTime><FrequencyChanges><FrequencyChange><Frequency dt:dt=""r8"">3215244</Frequency><Timestamp dt:dt=""r8"">4635226942968</Timestamp><Current dt:dt=""r8"">0</Current><DateUtc dt:dt=""string"">2018-10-08T17:20:28Z</DateUtc></FrequencyChange></FrequencyChanges></Clock>\n",KW_Experiment5A-5-1,59.946,1.0.0.105,1,957885846,Professional,2.0.10.353,2.0.10.353,10/8/2018,10/8/2018 17:20,13:20:29,2.0.10.248,3,2,1,3,,,,,,,,TrainingProc,BlockList,9,1,Distractor2.bmp,2,0,,0,1,2571946,600,,0,0,purple,600,3,600,5,vertical,purple,Distractor2.bmp,cyan,Distractor2.bmp,red,Distractor2.bmp,blue,Distractor2.bmp,lime,Target1.bmp,yellow,Distractor2.bmp,,,,TrialProc,,TrainingTrialList,1,1,-999999,0,2572546,0,1,662,2573208,Target1.bmp,lime,1,,,,5,3,57
KW_Experiment5A,5,1,"<?xml version=""1.0""?>\n<Clock xmlns:dt=""urn:schemas-microsoft-com:datatypes""><Description dt:dt=""string"">E-Prime Primary Realtime Clock</Description><StartTime><Timestamp dt:dt=""int"">0</Timestamp><DateUtc dt:dt=""string"">2018-10-08T17:20:28Z</DateUtc></StartTime><FrequencyChanges><FrequencyChange><Frequency dt:dt=""r8"">3215244</Frequency><Timestamp dt:dt=""r8"">4635226942968</Timestamp><Current dt:dt=""r8"">0</Current><DateUtc dt:dt=""string"">2018-10-08T17:20:28Z</DateUtc></FrequencyChange></FrequencyChanges></Clock>\n",KW_Experiment5A-5-1,59.946,1.0.0.105,1,957885846,Professional,2.0.10.353,2.0.10.353,10/8/2018,10/8/2018 17:20,13:20:29,2.0.10.248,3,2,1,3,,,,,,,,TrainingProc,BlockList,10,1,Distractor1.bmp,1,0,,0,1,2574231,401,,0,0,red,400,1,400,1,vertical,lime,Target1.bmp,red,Distractor1.bmp,cyan,Distractor2.bmp,purple,Distractor2.bmp,yellow,Distractor2.bmp,blue,Distractor2.bmp,,,,TrialProc,,TrainingTrialList,1,1,-999999,1,2574632,0,1,888,2575520,Target1.bmp,lime,1,,,,1,3,58
KW_Experiment5A,5,1,"<?xml version=""1.0""?>\n<Clock xmlns:dt=""urn:schemas-microsoft-com:datatypes""><Description dt:dt=""string"">E-Prime Primary Realtime Clock</Description><StartTime><Timestamp dt:dt=""int"">0</Timestamp><DateUtc dt:dt=""string"">2018-10-08T17:20:28Z</DateUtc></StartTime><FrequencyChanges><FrequencyChange><Frequency dt:dt=""r8"">3215244</Frequency><Timestamp dt:dt=""r8"">4635226942968</Timestamp><Current dt:dt=""r8"">0</Current><DateUtc dt:dt=""string"">2018-10-08T17:20:28Z</DateUtc></FrequencyChange></FrequencyChanges></Clock>\n",KW_Experiment5A-5-1,59.946,1.0.0.105,1,957885846,Professional,2.0.10.353,2.0.10.353,10/8/2018,10/8/2018 17:20,13:20:29,2.0.10.248,3,2,1,3,,,,,,,,TrainingProc,BlockList,11,2,Distractor2.bmp,2,0,,1,0,2576533,501,,0,0,red,500,2,500,1,horizontal,lime,Target2.bmp,red,Distractor2.bmp,purple,Distractor1.bmp,yellow,Distractor1.bmp,blue,Distractor2.bmp,cyan,Distractor1.bmp,,,,TrialProc,,TrainingTrialList,1,2,-999999,1,2577034,0,2,630,2577664,Target2.bmp,lime,2,,,,1,3,59
KW_Experiment5A,5,1,"<?xml version=""1.0""?>\n<Clock xmlns:dt=""urn:schemas-microsoft-com:datatypes""><Description dt:dt=""string"">E-Prime Primary Realtime Clock</Description><StartTime><Timestamp dt:dt=""int"">0</Timestamp><DateUtc dt:dt=""string"">2018-10-08T17:20:28Z</DateUtc></StartTime><FrequencyChanges><FrequencyChange><Frequency dt:dt=""r8"">3215244</Frequency><Timestamp dt:dt=""r8"">4635226942968</Timestamp><Current dt:dt=""r8"">0</Current><DateUtc dt:dt=""string"">2018-10-08T17:20:28Z</DateUtc></FrequencyChange></FrequencyChanges></Clock>\n",KW_Experiment5A-5-1,59.946,1.0.0.105,1,957885846,Professional,2.0.10.353,2.0.10.353,10/8/2018,10/8/2018 17:20,13:20:29,2.0.10.248,3,2,1,3,,,,,,,,TrainingProc,BlockList,12,1,Distractor1.bmp,1,0,,1,0,2578685,501,,0,0,lime,500,2,500,,vertical,lime,Distractor2.bmp,purple,Distractor2.bmp,red,Target1.bmp,blue,Distractor1.bmp,cyan,Distractor1.bmp,yellow,Distractor2.bmp,,,,TrialProc,6,TrainingTrialList,1,1,-999999,1,2579186,0,1,1094,2580280,Target1.bmp,red,1,,,,9,3,60
KW_Experiment5A,5,1,"<?xml version=""1.0""?>\n<Clock xmlns:dt=""urn:schemas-microsoft-com:datatypes""><Description dt:dt=""string"">E-Prime Primary Realtime Clock</Description><StartTime><Timestamp dt:dt=""int"">0</Timestamp><DateUtc dt:dt=""string"">2018-10-08T17:20:28Z</DateUtc></StartTime><FrequencyChanges><FrequencyChange><Frequency dt:dt=""r8"">3215244</Frequency><Timestamp dt:dt=""r8"">4635226942968</Timestamp><Current dt:dt=""r8"">0</Current><DateUtc dt:dt=""string"">2018-10-08T17:20:28Z</DateUtc></FrequencyChange></FrequencyChanges></Clock>\n",KW_Experiment5A-5-1,59.946,1.0.0.105,1,957885846,Professional,2.0.10.353,2.0.10.353,10/8/2018,10/8/2018 17:20,13:20:29,2.0.10.248,3,2,1,3,,,,,,,,TrainingProc,BlockList,13,1,Distractor1.bmp,1,0,,1,0,2581304,601,,0,0,blue,600,3,600,3,vertical,blue,Distractor1.bmp,yellow,Distractor2.bmp,cyan,Distractor2.bmp,lime,Target1.bmp,red,Distractor1.bmp,purple,Distractor2.bmp,,,,TrialProc,,TrainingTrialList,1,1,-999999,1,2581905,0,1,967,2582872,Target1.bmp,lime,1,,,,4,3,61
KW_Experiment5A,5,1,"<?xml version=""1.0""?>\n<Clock xmlns:dt=""urn:schemas-microsoft-com:datatypes""><Description dt:dt=""string"">E-Prime Primary Realtime Clock</Description><StartTime><Timestamp dt:dt=""int"">0</Timestamp><DateUtc dt:dt=""string"">2018-10-08T17:20:28Z</DateUtc></StartTime><FrequencyChanges><FrequencyChange><Frequency dt:dt=""r8"">3215244</Frequency><Timestamp dt:dt=""r8"">4635226942968</Timestamp><Current dt:dt=""r8"">0</Current><DateUtc dt:dt=""string"">2018-10-08T17:20:28Z</DateUtc></FrequencyChange></FrequencyChanges></Clock>\n",KW_Experiment5A-5-1,59.946,1.0.0.105,1,957885846,Professional,2.0.10.353,2.0.10.353,10/8/2018,10/8/2018 17:20,13:20:29,2.0.10.248,3,2,1,3,,,,,,,,TrainingProc,BlockList,14,1,Distractor2.bmp,2,0,,0,1,2583890,501,,0,0,cyan,500,2,500,4,vertical,cyan,Distractor1.bmp,lime,Target1.bmp,purple,Distractor2.bmp,yellow,Distractor1.bmp,blue,Distractor2.bmp,red,Distractor2.bmp,,,,TrialProc,,TrainingTrialList,1,1,-999999,1,2584391,0,1,833,2585224,Target1.bmp,lime,1,,,,2,3,62
KW_Experiment5A,5,1,"<?xml version=""1.0""?>\n<Clock xmlns:dt=""urn:schemas-microsoft-com:datatypes""><Description dt:dt=""string"">E-Prime Primary Realtime Clock</Description><StartTime><Timestamp dt:dt=""int"">0</Timestamp><DateUtc dt:dt=""string"">2018-10-08T17:20:28Z</DateUtc></StartTime><FrequencyChanges><FrequencyChange><Frequency dt:dt=""r8"">3215244</Frequency><Timestamp dt:dt=""r8"">4635226942968</Timestamp><Current dt:dt=""r8"">0</Current><DateUtc dt:dt=""string"">2018-10-08T17:20:28Z</DateUtc></FrequencyChange></FrequencyChanges></Clock>\n",KW_Experiment5A-5-1,59.946,1.0.0.105,1,957885846,Professional,2.0.10.353,2.0.10.353,10/8/2018,10/8/2018 17:20,13:20:29,2.0.10.248,3,2,1,3,,,,,,,,TrainingProc,BlockList,15,1,Distractor2.bmp,2,0,,0,0,2586242,601,,0,0,red,600,3,600,1,vertical,red,Distractor2.bmp,blue,Distractor2.bmp,lime,Target1.bmp,yellow,Distractor2.bmp,cyan,Distractor1.bmp,purple,Distractor1.bmp,,,,TrialProc,,TrainingTrialList,1,1,-999999,1,2586843,0,1,1021,2587864,Target1.bmp,lime,1,,,,3,3,63
KW_Experiment5A,5,1,"<?xml version=""1.0""?>\n<Clock xmlns:dt=""urn:schemas-microsoft-com:datatypes""><Description dt:dt=""string"">E-Prime Primary Realtime Clock</Description><StartTime><Timestamp dt:dt=""int"">0</Timestamp><DateUtc dt:dt=""string"">2018-10-08T17:20:28Z</DateUtc></StartTime><FrequencyChanges><FrequencyChange><Frequency dt:dt=""r8"">3215244</Frequency><Timestamp dt:dt=""r8"">4635226942968</Timestamp><Current dt:dt=""r8"">0</Current><DateUtc dt:dt=""string"">2018-10-08T17:20:28Z</DateUtc></FrequencyChange></FrequencyChanges></Clock>\n",KW_Experiment5A-5-1,59.946,1.0.0.105,1,957885846,Professional,2.0.10.353,2.0.10.353,10/8/2018,10/8/2018 17:20,13:20:29,2.0.10.248,3,2,1,3,,,,,,,,TrainingProc,BlockList,16,1,Distractor2.bmp,2,0,,0,1,2588878,601,,0,0,red,600,3,600,1,vertical,red,Distractor2.bmp,yellow,Distractor1.bmp,blue,Distractor2.bmp,purple,Distractor1.bmp,cyan,Distractor2.bmp,lime,Target1.bmp,,,,TrialProc,,TrainingTrialList,1,1,-999999,1,2589479,0,1,561,2590040,Target1.bmp,lime,1,,,,6,3,64
KW_Experiment5A,5,1,"<?xml version=""1.0""?>\n<Clock xmlns:dt=""urn:schemas-microsoft-com:datatypes""><Description dt:dt=""string"">E-Prime Primary Realtime Clock</Description><StartTime><Timestamp dt:dt=""int"">0</Timestamp><DateUtc dt:dt=""string"">2018-10-08T17:20:28Z</DateUtc></StartTime><FrequencyChanges><FrequencyChange><Frequency dt:dt=""r8"">3215244</Frequency><Timestamp dt:dt=""r8"">4635226942968</Timestamp><Current dt:dt=""r8"">0</Current><DateUtc dt:dt=""string"">2018-10-08T17:20:28Z</DateUtc></FrequencyChange></FrequencyChanges></Clock>\n",KW_Experiment5A-5-1,59.946,1.0.0.105,1,957885846,Professional,2.0.10.353,2.0.10.353,10/8/2018,10/8/2018 17:20,13:20:29,2.0.10.248,3,2,1,3,,,,,,,,TrainingProc,BlockList,17,1,Distractor1.bmp,1,0,,0,1,2591064,600,,0,0,blue,600,3,600,3,vertical,blue,Distractor1.bmp,lime,Target1.bmp,purple,Distractor1.bmp,yellow,Distractor1.bmp,red,Distractor1.bmp,cyan,Distractor2.bmp,,,,TrialProc,,TrainingTrialList,1,1,-999999,0,2591664,0,1,784,2592448,Target1.bmp,lime,1,,,,2,3,65
KW_Experiment5A,5,1,"<?xml version=""1.0""?>\n<Clock xmlns:dt=""urn:schemas-microsoft-com:datatypes""><Description dt:dt=""string"">E-Prime Primary Realtime Clock</Description><StartTime><Timestamp dt:dt=""int"">0</Timestamp><DateUtc dt:dt=""string"">2018-10-08T17:20:28Z</DateUtc></StartTime><FrequencyChanges><FrequencyChange><Frequency dt:dt=""r8"">3215244</Frequency><Timestamp dt:dt=""r8"">4635226942968</Timestamp><Current dt:dt=""r8"">0</Current><DateUtc dt:dt=""string"">2018-10-08T17:20:28Z</DateUtc></FrequencyChange></FrequencyChanges></Clock>\n",KW_Experiment5A-5-1,59.946,1.0.0.105,1,957885846,Professional,2.0.10.353,2.0.10.353,10/8/2018,10/8/2018 17:20,13:20:29,2.0.10.248,3,2,1,3,,,,,,,,TrainingProc,BlockList,18,2,Distractor2.bmp,2,0,,0,1,2593466,600,,0,0,red,600,3,600,1,horizontal,red,Distractor1.bmp,yellow,Distractor2.bmp,lime,Target2.bmp,purple,Distractor2.bmp,cyan,Distractor1.bmp,blue,Distractor1.bmp,,,,TrialProc,,TrainingTrialList,1,2,-999999,0,2594066,0,2,814,2594880,Target2.bmp,lime,2,,,,3,3,66
KW_Experiment5A,5,1,"<?xml version=""1.0""?>\n<Clock xmlns:dt=""urn:schemas-microsoft-com:datatypes""><Description dt:dt=""string"">E-Prime Primary Realtime Clock</Description><StartTime><Timestamp dt:dt=""int"">0</Timestamp><DateUtc dt:dt=""string"">2018-10-08T17:20:28Z</DateUtc></StartTime><FrequencyChanges><FrequencyChange><Frequency dt:dt=""r8"">3215244</Frequency><Timestamp dt:dt=""r8"">4635226942968</Timestamp><Current dt:dt=""r8"">0</Current><DateUtc dt:dt=""string"">2018-10-08T17:20:28Z</DateUtc></FrequencyChange></FrequencyChanges></Clock>\n",KW_Experiment5A-5-1,59.946,1.0.0.105,1,957885846,Professional,2.0.10.353,2.0.10.353,10/8/2018,10/8/2018 17:20,13:20:29,2.0.10.248,3,2,1,3,,,,,,,,TrainingProc,BlockList,19,1,Distractor1.bmp,1,0,,0,1,2595901,401,,0,0,lime,400,1,400,,vertical,lime,Distractor1.bmp,cyan,Distractor2.bmp,yellow,Distractor1.bmp,blue,Distractor2.bmp,purple,Distractor2.bmp,red,Target1.bmp,,,,TrialProc,6,TrainingTrialList,1,1,-999999,1,2596302,0,1,722,2597024,Target1.bmp,red,1,,,,12,3,67
KW_Experiment5A,5,1,"<?xml version=""1.0""?>\n<Clock xmlns:dt=""urn:schemas-microsoft-com:datatypes""><Description dt:dt=""string"">E-Prime Primary Realtime Clock</Description><StartTime><Timestamp dt:dt=""int"">0</Timestamp><DateUtc dt:dt=""string"">2018-10-08T17:20:28Z</DateUtc></StartTime><FrequencyChanges><FrequencyChange><Frequency dt:dt=""r8"">3215244</Frequency><Timestamp dt:dt=""r8"">4635226942968</Timestamp><Current dt:dt=""r8"">0</Current><DateUtc dt:dt=""string"">2018-10-08T17:20:28Z</DateUtc></FrequencyChange></FrequencyChanges></Clock>\n",KW_Experiment5A-5-1,59.946,1.0.0.105,1,957885846,Professional,2.0.10.353,2.0.10.353,10/8/2018,10/8/2018 17:20,13:20:29,2.0.10.248,3,2,1,3,,,,,,,,TrainingProc,BlockList,20,2,Distractor1.bmp,1,0,,0,1,2598037,500,,0,0,cyan,500,2,500,4,horizontal,cyan,Distractor1.bmp,yellow,Distractor1.bmp,red,Distractor2.bmp,lime,Target2.bmp,blue,Distractor1.bmp,purple,Distractor2.bmp,,,,TrialProc,,TrainingTrialList,1,2,-999999,0,2598537,0,2,991,2599528,Target2.bmp,lime,2,,,,4,3,68
KW_Experiment5A,5,1,"<?xml version=""1.0""?>\n<Clock xmlns:dt=""urn:schemas-microsoft-com:datatypes""><Description dt:dt=""string"">E-Prime Primary Realtime Clock</Description><StartTime><Timestamp dt:dt=""int"">0</Timestamp><DateUtc dt:dt=""string"">2018-10-08T17:20:28Z</DateUtc></StartTime><FrequencyChanges><FrequencyChange><Frequency dt:dt=""r8"">3215244</Frequency><Timestamp dt:dt=""r8"">4635226942968</Timestamp><Current dt:dt=""r8"">0</Current><DateUtc dt:dt=""string"">2018-10-08T17:20:28Z</DateUtc></FrequencyChange></FrequencyChanges></Clock>\n",KW_Experiment5A-5-1,59.946,1.0.0.105,1,957885846,Professional,2.0.10.353,2.0.10.353,10/8/2018,10/8/2018 17:20,13:20:29,2.0.10.248,3,2,1,3,,,,,,,,TrainingProc,BlockList,21,1,Distractor1.bmp,1,0,,0,1,2600539,500,,0,0,blue,500,2,500,3,vertical,lime,Target1.bmp,blue,Distractor1.bmp,red,Distractor2.bmp,purple,Distractor2.bmp,cyan,Distractor2.bmp,yellow,Distractor2.bmp,,,,TrialProc,,TrainingTrialList,1,1,-999999,0,2601039,0,1,665,2601704,Target1.bmp,lime,1,,,,1,3,69
KW_Experiment5A,5,1,"<?xml version=""1.0""?>\n<Clock xmlns:dt=""urn:schemas-microsoft-com:datatypes""><Description dt:dt=""string"">E-Prime Primary Realtime Clock</Description><StartTime><Timestamp dt:dt=""int"">0</Timestamp><DateUtc dt:dt=""string"">2018-10-08T17:20:28Z</DateUtc></StartTime><FrequencyChanges><FrequencyChange><Frequency dt:dt=""r8"">3215244</Frequency><Timestamp dt:dt=""r8"">4635226942968</Timestamp><Current dt:dt=""r8"">0</Current><DateUtc dt:dt=""string"">2018-10-08T17:20:28Z</DateUtc></FrequencyChange></FrequencyChanges></Clock>\n",KW_Experiment5A-5-1,59.946,1.0.0.105,1,957885846,Professional,2.0.10.353,2.0.10.353,10/8/2018,10/8/2018 17:20,13:20:29,2.0.10.248,3,2,1,3,,,,,,,,TrainingProc,BlockList,22,1,Distractor2.bmp,2,0,,0,1,2602724,501,,0,0,lime,500,2,500,,vertical,lime,Distractor2.bmp,cyan,Distractor2.bmp,purple,Distractor1.bmp,yellow,Distractor1.bmp,red,Target1.bmp,blue,Distractor2.bmp,,,,TrialProc,6,TrainingTrialList,1,1,-999999,1,2603225,0,1,695,2603920,Target1.bmp,red,1,,,,11,3,70
KW_Experiment5A,5,1,"<?xml version=""1.0""?>\n<Clock xmlns:dt=""urn:schemas-microsoft-com:datatypes""><Description dt:dt=""string"">E-Prime Primary Realtime Clock</Description><StartTime><Timestamp dt:dt=""int"">0</Timestamp><DateUtc dt:dt=""string"">2018-10-08T17:20:28Z</DateUtc></StartTime><FrequencyChanges><FrequencyChange><Frequency dt:dt=""r8"">3215244</Frequency><Timestamp dt:dt=""r8"">4635226942968</Timestamp><Current dt:dt=""r8"">0</Current><DateUtc dt:dt=""string"">2018-10-08T17:20:28Z</DateUtc></FrequencyChange></FrequencyChanges></Clock>\n",KW_Experiment5A-5-1,59.946,1.0.0.105,1,957885846,Professional,2.0.10.353,2.0.10.353,10/8/2018,10/8/2018 17:20,13:20:29,2.0.10.248,3,2,1,3,,,,,,,,TrainingProc,BlockList,23,2,Distractor1.bmp,1,0,,0,1,2604943,500,,0,0,cyan,500,2,500,4,horizontal,cyan,Distractor1.bmp,lime,Target2.bmp,blue,Distractor1.bmp,purple,Distractor2.bmp,yellow,Distractor1.bmp,red,Distractor2.bmp,,,,TrialProc,,TrainingTrialList,1,2,-999999,0,2605443,0,2,653,2606096,Target2.bmp,lime,2,,,,2,3,71
KW_Experiment5A,5,1,"<?xml version=""1.0""?>\n<Clock xmlns:dt=""urn:schemas-microsoft-com:datatypes""><Description dt:dt=""string"">E-Prime Primary Realtime Clock</Description><StartTime><Timestamp dt:dt=""int"">0</Timestamp><DateUtc dt:dt=""string"">2018-10-08T17:20:28Z</DateUtc></StartTime><FrequencyChanges><FrequencyChange><Frequency dt:dt=""r8"">3215244</Frequency><Timestamp dt:dt=""r8"">4635226942968</Timestamp><Current dt:dt=""r8"">0</Current><DateUtc dt:dt=""string"">2018-10-08T17:20:28Z</DateUtc></FrequencyChange></FrequencyChanges></Clock>\n",KW_Experiment5A-5-1,59.946,1.0.0.105,1,957885846,Professional,2.0.10.353,2.0.10.353,10/8/2018,10/8/2018 17:20,13:20:29,2.0.10.248,3,2,1,3,,,,,,,,TrainingProc,BlockList,24,2,Distractor1.bmp,1,0,,0,1,2607112,500,,0,0,yellow,500,2,500,,horizontal,yellow,Distractor1.bmp,red,Target2.bmp,blue,Distractor1.bmp,lime,Distractor1.bmp,purple,Distractor2.bmp,cyan,Distractor2.bmp,,,,TrialProc,2,TrainingTrialList,1,2,-999999,0,2607612,0,2,572,2608184,Target2.bmp,red,2,,,,8,3,72
KW_Experiment5A,5,1,"<?xml version=""1.0""?>\n<Clock xmlns:dt=""urn:schemas-microsoft-com:datatypes""><Description dt:dt=""string"">E-Prime Primary Realtime Clock</Description><StartTime><Timestamp dt:dt=""int"">0</Timestamp><DateUtc dt:dt=""string"">2018-10-08T17:20:28Z</DateUtc></StartTime><FrequencyChanges><FrequencyChange><Frequency dt:dt=""r8"">3215244</Frequency><Timestamp dt:dt=""r8"">4635226942968</Timestamp><Current dt:dt=""r8"">0</Current><DateUtc dt:dt=""string"">2018-10-08T17:20:28Z</DateUtc></FrequencyChange></FrequencyChanges></Clock>\n",KW_Experiment5A-5-1,59.946,1.0.0.105,1,957885846,Professional,2.0.10.353,2.0.10.353,10/8/2018,10/8/2018 17:20,13:20:29,2.0.10.248,3,2,1,3,,,,,,,,TrainingProc,BlockList,25,1,Distractor1.bmp,1,0,,0,1,2609197,500,,0,0,yellow,500,2,500,2,vertical,yellow,Distractor1.bmp,red,Distractor2.bmp,blue,Distractor1.bmp,purple,Distractor2.bmp,cyan,Distractor1.bmp,lime,Target1.bmp,,,,TrialProc,,TrainingTrialList,1,1,-999999,0,2609697,0,1,527,2610224,Target1.bmp,lime,1,,,,6,4,73
KW_Experiment5A,5,1,"<?xml version=""1.0""?>\n<Clock xmlns:dt=""urn:schemas-microsoft-com:datatypes""><Description dt:dt=""string"">E-Prime Primary Realtime Clock</Description><StartTime><Timestamp dt:dt=""int"">0</Timestamp><DateUtc dt:dt=""string"">2018-10-08T17:20:28Z</DateUtc></StartTime><FrequencyChanges><FrequencyChange><Frequency dt:dt=""r8"">3215244</Frequency><Timestamp dt:dt=""r8"">4635226942968</Timestamp><Current dt:dt=""r8"">0</Current><DateUtc dt:dt=""string"">2018-10-08T17:20:28Z</DateUtc></FrequencyChange></FrequencyChanges></Clock>\n",KW_Experiment5A-5-1,59.946,1.0.0.105,1,957885846,Professional,2.0.10.353,2.0.10.353,10/8/2018,10/8/2018 17:20,13:20:29,2.0.10.248,3,2,1,3,,,,,,,,TrainingProc,BlockList,26,2,Distractor2.bmp,2,0,,0,1,2611249,600,,0,0,yellow,600,3,600,2,horizontal,yellow,Distractor1.bmp,blue,Distractor2.bmp,cyan,Distractor1.bmp,purple,Distractor1.bmp,lime,Target2.bmp,red,Distractor2.bmp,,,,TrialProc,,TrainingTrialList,0,2,-999999,0,2611849,0,1,575,2612424,Target2.bmp,lime,2,,,,5,4,74
KW_Experiment5A,5,1,"<?xml version=""1.0""?>\n<Clock xmlns:dt=""urn:schemas-microsoft-com:datatypes""><Description dt:dt=""string"">E-Prime Primary Realtime Clock</Description><StartTime><Timestamp dt:dt=""int"">0</Timestamp><DateUtc dt:dt=""string"">2018-10-08T17:20:28Z</DateUtc></StartTime><FrequencyChanges><FrequencyChange><Frequency dt:dt=""r8"">3215244</Frequency><Timestamp dt:dt=""r8"">4635226942968</Timestamp><Current dt:dt=""r8"">0</Current><DateUtc dt:dt=""string"">2018-10-08T17:20:28Z</DateUtc></FrequencyChange></FrequencyChanges></Clock>\n",KW_Experiment5A-5-1,59.946,1.0.0.105,1,957885846,Professional,2.0.10.353,2.0.10.353,10/8/2018,10/8/2018 17:20,13:20:29,2.0.10.248,3,2,1,3,,,,,,,,TrainingProc,BlockList,27,1,Distractor2.bmp,2,0,,0,1,2613451,500,,0,0,purple,500,2,500,5,vertical,purple,Distractor1.bmp,red,Distractor2.bmp,lime,Target1.bmp,cyan,Distractor2.bmp,blue,Distractor2.bmp,yellow,Distractor2.bmp,,,,TrialProc,,TrainingTrialList,1,1,-999999,0,2613951,0,1,745,2614696,Target1.bmp,lime,1,,,,3,4,75
KW_Experiment5A,5,1,"<?xml version=""1.0""?>\n<Clock xmlns:dt=""urn:schemas-microsoft-com:datatypes""><Description dt:dt=""string"">E-Prime Primary Realtime Clock</Description><StartTime><Timestamp dt:dt=""int"">0</Timestamp><DateUtc dt:dt=""string"">2018-10-08T17:20:28Z</DateUtc></StartTime><FrequencyChanges><FrequencyChange><Frequency dt:dt=""r8"">3215244</Frequency><Timestamp dt:dt=""r8"">4635226942968</Timestamp><Current dt:dt=""r8"">0</Current><DateUtc dt:dt=""string"">2018-10-08T17:20:28Z</DateUtc></FrequencyChange></FrequencyChanges></Clock>\n",KW_Experiment5A-5-1,59.946,1.0.0.105,1,957885846,Professional,2.0.10.353,2.0.10.353,10/8/2018,10/8/2018 17:20,13:20:29,2.0.10.248,3,2,1,3,,,,,,,,TrainingProc,BlockList,28,1,Distractor1.bmp,1,0,,0,1,2615720,400,,0,0,cyan,400,1,400,4,vertical,lime,Target1.bmp,cyan,Distractor1.bmp,red,Distractor1.bmp,purple,Distractor2.bmp,yellow,Distractor1.bmp,blue,Distractor1.bmp,,,,TrialProc,,TrainingTrialList,1,1,-999999,0,2616120,0,1,632,2616752,Target1.bmp,lime,1,,,,1,4,76
KW_Experiment5A,5,1,"<?xml version=""1.0""?>\n<Clock xmlns:dt=""urn:schemas-microsoft-com:datatypes""><Description dt:dt=""string"">E-Prime Primary Realtime Clock</Description><StartTime><Timestamp dt:dt=""int"">0</Timestamp><DateUtc dt:dt=""string"">2018-10-08T17:20:28Z</DateUtc></StartTime><FrequencyChanges><FrequencyChange><Frequency dt:dt=""r8"">3215244</Frequency><Timestamp dt:dt=""r8"">4635226942968</Timestamp><Current dt:dt=""r8"">0</Current><DateUtc dt:dt=""string"">2018-10-08T17:20:28Z</DateUtc></FrequencyChange></FrequencyChanges></Clock>\n",KW_Experiment5A-5-1,59.946,1.0.0.105,1,957885846,Professional,2.0.10.353,2.0.10.353,10/8/2018,10/8/2018 17:20,13:20:29,2.0.10.248,3,2,1,3,,,,,,,,TrainingProc,BlockList,29,2,Distractor1.bmp,1,0,,1,0,2617771,401,,0,0,yellow,400,1,400,,horizontal,yellow,Distractor2.bmp,cyan,Distractor1.bmp,red,Target2.bmp,purple,Distractor1.bmp,blue,Distractor1.bmp,lime,Distractor1.bmp,,,,TrialProc,2,TrainingTrialList,1,2,-999999,1,2618172,0,2,732,2618904,Target2.bmp,red,2,,,,9,4,77
KW_Experiment5A,5,1,"<?xml version=""1.0""?>\n<Clock xmlns:dt=""urn:schemas-microsoft-com:datatypes""><Description dt:dt=""string"">E-Prime Primary Realtime Clock</Description><StartTime><Timestamp dt:dt=""int"">0</Timestamp><DateUtc dt:dt=""string"">2018-10-08T17:20:28Z</DateUtc></StartTime><FrequencyChanges><FrequencyChange><Frequency dt:dt=""r8"">3215244</Frequency><Timestamp dt:dt=""r8"">4635226942968</Timestamp><Current dt:dt=""r8"">0</Current><DateUtc dt:dt=""string"">2018-10-08T17:20:28Z</DateUtc></FrequencyChange></FrequencyChanges></Clock>\n",KW_Experiment5A-5-1,59.946,1.0.0.105,1,957885846,Professional,2.0.10.353,2.0.10.353,10/8/2018,10/8/2018 17:20,13:20:29,2.0.10.248,3,2,1,3,,,,,,,,TrainingProc,BlockList,30,1,Distractor2.bmp,2,0,,1,0,2619923,501,,0,0,lime,500,2,500,,vertical,lime,Distractor2.bmp,blue,Distractor1.bmp,yellow,Distractor2.bmp,cyan,Distractor2.bmp,purple,Distractor1.bmp,red,Target1.bmp,,,,TrialProc,6,TrainingTrialList,1,1,-999999,1,2620424,0,1,552,2620976,Target1.bmp,red,1,,,,12,4,78
KW_Experiment5A,5,1,"<?xml version=""1.0""?>\n<Clock xmlns:dt=""urn:schemas-microsoft-com:datatypes""><Description dt:dt=""string"">E-Prime Primary Realtime Clock</Description><StartTime><Timestamp dt:dt=""int"">0</Timestamp><DateUtc dt:dt=""string"">2018-10-08T17:20:28Z</DateUtc></StartTime><FrequencyChanges><FrequencyChange><Frequency dt:dt=""r8"">3215244</Frequency><Timestamp dt:dt=""r8"">4635226942968</Timestamp><Current dt:dt=""r8"">0</Current><DateUtc dt:dt=""string"">2018-10-08T17:20:28Z</DateUtc></FrequencyChange></FrequencyChanges></Clock>\n",KW_Experiment5A-5-1,59.946,1.0.0.105,1,957885846,Professional,2.0.10.353,2.0.10.353,10/8/2018,10/8/2018 17:20,13:20:29,2.0.10.248,3,2,1,3,,,,,,,,TrainingProc,BlockList,31,1,Distractor2.bmp,2,0,,0,1,2621992,400,,0,0,yellow,400,1,400,2,vertical,yellow,Distractor2.bmp,lime,Target1.bmp,cyan,Distractor2.bmp,red,Distractor2.bmp,blue,Distractor2.bmp,purple,Distractor1.bmp,,,,TrialProc,,TrainingTrialList,1,1,-999999,0,2622392,0,1,656,2623048,Target1.bmp,lime,1,,,,2,4,79
KW_Experiment5A,5,1,"<?xml version=""1.0""?>\n<Clock xmlns:dt=""urn:schemas-microsoft-com:datatypes""><Description dt:dt=""string"">E-Prime Primary Realtime Clock</Description><StartTime><Timestamp dt:dt=""int"">0</Timestamp><DateUtc dt:dt=""string"">2018-10-08T17:20:28Z</DateUtc></StartTime><FrequencyChanges><FrequencyChange><Frequency dt:dt=""r8"">3215244</Frequency><Timestamp dt:dt=""r8"">4635226942968</Timestamp><Current dt:dt=""r8"">0</Current><DateUtc dt:dt=""string"">2018-10-08T17:20:28Z</DateUtc></FrequencyChange></FrequencyChanges></Clock>\n",KW_Experiment5A-5-1,59.946,1.0.0.105,1,957885846,Professional,2.0.10.353,2.0.10.353,10/8/2018,10/8/2018 17:20,13:20:29,2.0.10.248,3,2,1,3,,,,,,,,TrainingProc,BlockList,32,1,Distractor1.bmp,1,0,,0,1,2624061,600,,0,0,purple,600,3,600,5,vertical,purple,Distractor2.bmp,red,Distractor2.bmp,cyan,Distractor2.bmp,blue,Distractor2.bmp,lime,Target1.bmp,yellow,Distractor1.bmp,,,,TrialProc,,TrainingTrialList,1,1,-999999,0,2624661,0,1,419,2625080,Target1.bmp,lime,1,,,,5,4,80
KW_Experiment5A,5,1,"<?xml version=""1.0""?>\n<Clock xmlns:dt=""urn:schemas-microsoft-com:datatypes""><Description dt:dt=""string"">E-Prime Primary Realtime Clock</Description><StartTime><Timestamp dt:dt=""int"">0</Timestamp><DateUtc dt:dt=""string"">2018-10-08T17:20:28Z</DateUtc></StartTime><FrequencyChanges><FrequencyChange><Frequency dt:dt=""r8"">3215244</Frequency><Timestamp dt:dt=""r8"">4635226942968</Timestamp><Current dt:dt=""r8"">0</Current><DateUtc dt:dt=""string"">2018-10-08T17:20:28Z</DateUtc></FrequencyChange></FrequencyChanges></Clock>\n",KW_Experiment5A-5-1,59.946,1.0.0.105,1,957885846,Professional,2.0.10.353,2.0.10.353,10/8/2018,10/8/2018 17:20,13:20:29,2.0.10.248,3,2,1,3,,,,,,,,TrainingProc,BlockList,33,2,Distractor1.bmp,1,0,,0,1,2626096,600,,0,0,purple,600,3,600,5,horizontal,purple,Distractor2.bmp,red,Distractor2.bmp,lime,Target2.bmp,yellow,Distractor1.bmp,blue,Distractor1.bmp,cyan,Distractor2.bmp,,,,TrialProc,,TrainingTrialList,1,2,-999999,0,2626696,0,2,704,2627400,Target2.bmp,lime,2,,,,3,4,81
KW_Experiment5A,5,1,"<?xml version=""1.0""?>\n<Clock xmlns:dt=""urn:schemas-microsoft-com:datatypes""><Description dt:dt=""string"">E-Prime Primary Realtime Clock</Description><StartTime><Timestamp dt:dt=""int"">0</Timestamp><DateUtc dt:dt=""string"">2018-10-08T17:20:28Z</DateUtc></StartTime><FrequencyChanges><FrequencyChange><Frequency dt:dt=""r8"">3215244</Frequency><Timestamp dt:dt=""r8"">4635226942968</Timestamp><Current dt:dt=""r8"">0</Current><DateUtc dt:dt=""string"">2018-10-08T17:20:28Z</DateUtc></FrequencyChange></FrequencyChanges></Clock>\n",KW_Experiment5A-5-1,59.946,1.0.0.105,1,957885846,Professional,2.0.10.353,2.0.10.353,10/8/2018,10/8/2018 17:20,13:20:29,2.0.10.248,3,2,1,3,,,,,,,,TrainingProc,BlockList,34,2,Distractor2.bmp,2,0,,0,1,2628415,500,,0,0,cyan,500,2,500,4,horizontal,cyan,Distractor2.bmp,lime,Target2.bmp,red,Distractor2.bmp,blue,Distractor1.bmp,yellow,Distractor1.bmp,purple,Distractor1.bmp,,,,TrialProc,,TrainingTrialList,1,2,-999999,0,2628915,0,2,461,2629376,Target2.bmp,lime,2,,,,2,4,82
KW_Experiment5A,5,1,"<?xml version=""1.0""?>\n<Clock xmlns:dt=""urn:schemas-microsoft-com:datatypes""><Description dt:dt=""string"">E-Prime Primary Realtime Clock</Description><StartTime><Timestamp dt:dt=""int"">0</Timestamp><DateUtc dt:dt=""string"">2018-10-08T17:20:28Z</DateUtc></StartTime><FrequencyChanges><FrequencyChange><Frequency dt:dt=""r8"">3215244</Frequency><Timestamp dt:dt=""r8"">4635226942968</Timestamp><Current dt:dt=""r8"">0</Current><DateUtc dt:dt=""string"">2018-10-08T17:20:28Z</DateUtc></FrequencyChange></FrequencyChanges></Clock>\n",KW_Experiment5A-5-1,59.946,1.0.0.105,1,957885846,Professional,2.0.10.353,2.0.10.353,10/8/2018,10/8/2018 17:20,13:20:29,2.0.10.248,3,2,1,3,,,,,,,,TrainingProc,BlockList,35,1,Distractor2.bmp,2,0,,0,1,2630400,600,,0,0,red,600,3,600,1,vertical,red,Distractor2.bmp,yellow,Distractor1.bmp,purple,Distractor1.bmp,lime,Target1.bmp,blue,Distractor2.bmp,cyan,Distractor2.bmp,,,,TrialProc,,TrainingTrialList,1,1,-999999,0,2631000,0,1,872,2631872,Target1.bmp,lime,1,,,,4,4,83
KW_Experiment5A,5,1,"<?xml version=""1.0""?>\n<Clock xmlns:dt=""urn:schemas-microsoft-com:datatypes""><Description dt:dt=""string"">E-Prime Primary Realtime Clock</Description><StartTime><Timestamp dt:dt=""int"">0</Timestamp><DateUtc dt:dt=""string"">2018-10-08T17:20:28Z</DateUtc></StartTime><FrequencyChanges><FrequencyChange><Frequency dt:dt=""r8"">3215244</Frequency><Timestamp dt:dt=""r8"">4635226942968</Timestamp><Current dt:dt=""r8"">0</Current><DateUtc dt:dt=""string"">2018-10-08T17:20:28Z</DateUtc></FrequencyChange></FrequencyChanges></Clock>\n",KW_Experiment5A-5-1,59.946,1.0.0.105,1,957885846,Professional,2.0.10.353,2.0.10.353,10/8/2018,10/8/2018 17:20,13:20:29,2.0.10.248,3,2,1,3,,,,,,,,TrainingProc,BlockList,36,1,Distractor1.bmp,1,0,,0,1,2632885,501,,0,0,cyan,500,2,500,4,vertical,cyan,Distractor1.bmp,yellow,Distractor2.bmp,blue,Distractor1.bmp,purple,Distractor1.bmp,red,Distractor1.bmp,lime,Target1.bmp,,,,TrialProc,,TrainingTrialList,1,1,-999999,1,2633386,0,1,550,2633936,Target1.bmp,lime,1,,,,6,4,84
KW_Experiment5A,5,1,"<?xml version=""1.0""?>\n<Clock xmlns:dt=""urn:schemas-microsoft-com:datatypes""><Description dt:dt=""string"">E-Prime Primary Realtime Clock</Description><StartTime><Timestamp dt:dt=""int"">0</Timestamp><DateUtc dt:dt=""string"">2018-10-08T17:20:28Z</DateUtc></StartTime><FrequencyChanges><FrequencyChange><Frequency dt:dt=""r8"">3215244</Frequency><Timestamp dt:dt=""r8"">4635226942968</Timestamp><Current dt:dt=""r8"">0</Current><DateUtc dt:dt=""string"">2018-10-08T17:20:28Z</DateUtc></FrequencyChange></FrequencyChanges></Clock>\n",KW_Experiment5A-5-1,59.946,1.0.0.105,1,957885846,Professional,2.0.10.353,2.0.10.353,10/8/2018,10/8/2018 17:20,13:20:29,2.0.10.248,3,2,1,3,,,,,,,,TrainingProc,BlockList,37,1,Distractor2.bmp,2,0,,0,1,2634954,601,,0,0,cyan,600,3,600,,vertical,cyan,Distractor1.bmp,lime,Distractor2.bmp,yellow,Distractor2.bmp,blue,Distractor1.bmp,red,Target1.bmp,purple,Distractor2.bmp,,,,TrialProc,4,TrainingTrialList,1,1,-999999,1,2635555,0,1,421,2635976,Target1.bmp,red,1,,,,11,4,85
KW_Experiment5A,5,1,"<?xml version=""1.0""?>\n<Clock xmlns:dt=""urn:schemas-microsoft-com:datatypes""><Description dt:dt=""string"">E-Prime Primary Realtime Clock</Description><StartTime><Timestamp dt:dt=""int"">0</Timestamp><DateUtc dt:dt=""string"">2018-10-08T17:20:28Z</DateUtc></StartTime><FrequencyChanges><FrequencyChange><Frequency dt:dt=""r8"">3215244</Frequency><Timestamp dt:dt=""r8"">4635226942968</Timestamp><Current dt:dt=""r8"">0</Current><DateUtc dt:dt=""string"">2018-10-08T17:20:28Z</DateUtc></FrequencyChange></FrequencyChanges></Clock>\n",KW_Experiment5A-5-1,59.946,1.0.0.105,1,957885846,Professional,2.0.10.353,2.0.10.353,10/8/2018,10/8/2018 17:20,13:20:29,2.0.10.248,3,2,1,3,,,,,,,,TrainingProc,BlockList,38,1,Distractor2.bmp,2,0,,0,1,2636989,601,,0,0,red,600,3,600,1,vertical,red,Distractor1.bmp,blue,Distractor2.bmp,cyan,Distractor1.bmp,yellow,Distractor2.bmp,lime,Target1.bmp,purple,Distractor2.bmp,,,,TrialProc,,TrainingTrialList,1,1,-999999,1,2637590,0,1,482,2638072,Target1.bmp,lime,1,,,,5,4,86
KW_Experiment5A,5,1,"<?xml version=""1.0""?>\n<Clock xmlns:dt=""urn:schemas-microsoft-com:datatypes""><Description dt:dt=""string"">E-Prime Primary Realtime Clock</Description><StartTime><Timestamp dt:dt=""int"">0</Timestamp><DateUtc dt:dt=""string"">2018-10-08T17:20:28Z</DateUtc></StartTime><FrequencyChanges><FrequencyChange><Frequency dt:dt=""r8"">3215244</Frequency><Timestamp dt:dt=""r8"">4635226942968</Timestamp><Current dt:dt=""r8"">0</Current><DateUtc dt:dt=""string"">2018-10-08T17:20:28Z</DateUtc></FrequencyChange></FrequencyChanges></Clock>\n",KW_Experiment5A-5-1,59.946,1.0.0.105,1,957885846,Professional,2.0.10.353,2.0.10.353,10/8/2018,10/8/2018 17:20,13:20:29,2.0.10.248,3,2,1,3,,,,,,,,TrainingProc,BlockList,39,1,Distractor2.bmp,2,0,,0,1,2639091,601,,0,0,blue,600,3,600,3,vertical,lime,Target1.bmp,blue,Distractor2.bmp,yellow,Distractor2.bmp,cyan,Distractor1.bmp,purple,Distractor2.bmp,red,Distractor2.bmp,,,,TrialProc,,TrainingTrialList,0,1,-999999,1,2639692,0,2,620,2640312,Target1.bmp,lime,1,,,,1,4,87
KW_Experiment5A,5,1,"<?xml version=""1.0""?>\n<Clock xmlns:dt=""urn:schemas-microsoft-com:datatypes""><Description dt:dt=""string"">E-Prime Primary Realtime Clock</Description><StartTime><Timestamp dt:dt=""int"">0</Timestamp><DateUtc dt:dt=""string"">2018-10-08T17:20:28Z</DateUtc></StartTime><FrequencyChanges><FrequencyChange><Frequency dt:dt=""r8"">3215244</Frequency><Timestamp dt:dt=""r8"">4635226942968</Timestamp><Current dt:dt=""r8"">0</Current><DateUtc dt:dt=""string"">2018-10-08T17:20:28Z</DateUtc></FrequencyChange></FrequencyChanges></Clock>\n",KW_Experiment5A-5-1,59.946,1.0.0.105,1,957885846,Professional,2.0.10.353,2.0.10.353,10/8/2018,10/8/2018 17:20,13:20:29,2.0.10.248,3,2,1,3,,,,,,,,TrainingProc,BlockList,40,1,Distractor2.bmp,2,0,,0,1,2641327,400,,0,0,yellow,400,1,400,,vertical,yellow,Distractor1.bmp,cyan,Distractor2.bmp,purple,Distractor1.bmp,red,Target1.bmp,lime,Distractor2.bmp,blue,Distractor1.bmp,,,,TrialProc,2,TrainingTrialList,1,1,-999999,0,2641727,0,1,1129,2642856,Target1.bmp,red,1,,,,10,4,88
KW_Experiment5A,5,1,"<?xml version=""1.0""?>\n<Clock xmlns:dt=""urn:schemas-microsoft-com:datatypes""><Description dt:dt=""string"">E-Prime Primary Realtime Clock</Description><StartTime><Timestamp dt:dt=""int"">0</Timestamp><DateUtc dt:dt=""string"">2018-10-08T17:20:28Z</DateUtc></StartTime><FrequencyChanges><FrequencyChange><Frequency dt:dt=""r8"">3215244</Frequency><Timestamp dt:dt=""r8"">4635226942968</Timestamp><Current dt:dt=""r8"">0</Current><DateUtc dt:dt=""string"">2018-10-08T17:20:28Z</DateUtc></FrequencyChange></FrequencyChanges></Clock>\n",KW_Experiment5A-5-1,59.946,1.0.0.105,1,957885846,Professional,2.0.10.353,2.0.10.353,10/8/2018,10/8/2018 17:20,13:20:29,2.0.10.248,3,2,1,3,,,,,,,,TrainingProc,BlockList,41,2,Distractor2.bmp,2,0,,0,1,2643879,500,,0,0,purple,500,2,500,5,horizontal,purple,Distractor2.bmp,red,Distractor2.bmp,cyan,Distractor2.bmp,lime,Target2.bmp,yellow,Distractor2.bmp,blue,Distractor1.bmp,,,,TrialProc,,TrainingTrialList,1,2,-999999,0,2644379,0,2,813,2645192,Target2.bmp,lime,2,,,,4,4,89
KW_Experiment5A,5,1,"<?xml version=""1.0""?>\n<Clock xmlns:dt=""urn:schemas-microsoft-com:datatypes""><Description dt:dt=""string"">E-Prime Primary Realtime Clock</Description><StartTime><Timestamp dt:dt=""int"">0</Timestamp><DateUtc dt:dt=""string"">2018-10-08T17:20:28Z</DateUtc></StartTime><FrequencyChanges><FrequencyChange><Frequency dt:dt=""r8"">3215244</Frequency><Timestamp dt:dt=""r8"">4635226942968</Timestamp><Current dt:dt=""r8"">0</Current><DateUtc dt:dt=""string"">2018-10-08T17:20:28Z</DateUtc></FrequencyChange></FrequencyChanges></Clock>\n",KW_Experiment5A-5-1,59.946,1.0.0.105,1,957885846,Professional,2.0.10.353,2.0.10.353,10/8/2018,10/8/2018 17:20,13:20:29,2.0.10.248,3,2,1,3,,,,,,,,TrainingProc,BlockList,42,2,Distractor1.bmp,1,0,,0,1,2646214,501,,0,0,cyan,500,2,500,4,horizontal,cyan,Distractor1.bmp,red,Distractor2.bmp,yellow,Distractor2.bmp,purple,Distractor2.bmp,blue,Distractor1.bmp,lime,Target2.bmp,,,,TrialProc,,TrainingTrialList,1,2,-999999,1,2646715,0,2,645,2647360,Target2.bmp,lime,2,,,,6,4,90
