ExperimentName,Subject,Session,Clock.Information,DataFile.Basename,Display.RefreshRate,ExperimentVersion,Group,RandomSeed,RuntimeCapabilities,RuntimeVersion,RuntimeVersionExpected,SessionDate,SessionStartDateTimeUtc,SessionTime,StudioVersion,Block,BlockList,BlockList.Cycle,BlockList.Sample,PostTestQ1.RESP,PostTestQ1CJ.RESP,PostTestQ2.RESP,PostTestQ2CJ.RESP,PostTestQ3.RESP,PostTestQ3CJ.RESP,PostTestSlide.RESP,Procedure[Block],Running[Block],Trial,CorrectResponse,Distractor,DistractorList,Fixation.ACC,Fixation.CRESP,Fixation.DurationError,Fixation.OnsetDelay,Fixation.OnsetTime,Fixation.OnsetToOnsetTime,Fixation.RESP,Fixation.RT,Fixation.RTTime,ItemColor,Jitter,JitterList,JitterTime,Lime0List,Orientation,Pos1Color,Pos1Item,Pos2Color,Pos2Item,Pos3Color,Pos3Item,Pos4Color,Pos4Item,Pos5Color,Pos5Item,Pos6Color,Pos6Item,PracticeTrialList,PracticeTrialList.Cycle,PracticeTrialList.Sample,Procedure[Trial],Red0List,Running[Trial],Stimulus.ACC,Stimulus.CRESP,Stimulus.DurationError,Stimulus.OnsetDelay,Stimulus.OnsetTime,Stimulus.OnsetToOnsetTime,Stimulus.RESP,Stimulus.RT,Stimulus.RTTime,Target,TargetColor,TargetList,TestTrialList,TestTrialList.Cycle,TestTrialList.Sample,TrainingTrialList,TrainingTrialList.Cycle,TrainingTrialList.Sample
KW_Experiment5A,32,1,"<?xml version=""1.0""?>\n<Clock xmlns:dt=""urn:schemas-microsoft-com:datatypes""><Description dt:dt=""string"">E-Prime Primary Realtime Clock</Description><StartTime><Timestamp dt:dt=""int"">0</Timestamp><DateUtc dt:dt=""string"">2018-10-18T19:45:59Z</DateUtc></StartTime><FrequencyChanges><FrequencyChange><Frequency dt:dt=""r8"">3215244</Frequency><Timestamp dt:dt=""r8"">7441218028106</Timestamp><Current dt:dt=""r8"">0</Current><DateUtc dt:dt=""string"">2018-10-18T19:45:59Z</DateUtc></FrequencyChange></FrequencyChanges></Clock>\n",KW_Experiment5A-32-1,59.944,1.0.0.105,1,-1959642652,Professional,2.0.10.353,2.0.10.353,10/18/2018,10/18/2018 19:45,15:45:59,2.0.10.248,1,1,1,1,,,,,,,,PracticeProc,BlockList,1,2,Distractor2.bmp,2,0,,0,41,103217,400,,0,0,cyan,400,1,400,4,horizontal,yellow,Distractor2.bmp,purple,Distractor1.bmp,blue,Distractor2.bmp,cyan,Distractor1.bmp,lime,Target2.bmp,red,Distractor2.bmp,5,1,1,TrialProc,,PracticeTrialList,1,2,-999999,0,103617,0,2,1255,104872,Target2.bmp,lime,2,,,,,,
KW_Experiment5A,32,1,"<?xml version=""1.0""?>\n<Clock xmlns:dt=""urn:schemas-microsoft-com:datatypes""><Description dt:dt=""string"">E-Prime Primary Realtime Clock</Description><StartTime><Timestamp dt:dt=""int"">0</Timestamp><DateUtc dt:dt=""string"">2018-10-18T19:45:59Z</DateUtc></StartTime><FrequencyChanges><FrequencyChange><Frequency dt:dt=""r8"">3215244</Frequency><Timestamp dt:dt=""r8"">7441218028106</Timestamp><Current dt:dt=""r8"">0</Current><DateUtc dt:dt=""string"">2018-10-18T19:45:59Z</DateUtc></FrequencyChange></FrequencyChanges></Clock>\n",KW_Experiment5A-32-1,59.944,1.0.0.105,1,-1959642652,Professional,2.0.10.353,2.0.10.353,10/18/2018,10/18/2018 19:45,15:45:59,2.0.10.248,1,1,1,1,,,,,,,,PracticeProc,BlockList,2,1,Distractor1.bmp,1,0,,0,1,105886,500,,0,0,blue,500,2,500,,vertical,blue,Distractor2.bmp,red,Target1.bmp,purple,Distractor1.bmp,lime,Distractor2.bmp,yellow,Distractor1.bmp,cyan,Distractor1.bmp,2,1,2,TrialProc,3,PracticeTrialList,1,1,-999999,0,106386,0,1,822,107208,Target1.bmp,red,1,,,,,,
KW_Experiment5A,32,1,"<?xml version=""1.0""?>\n<Clock xmlns:dt=""urn:schemas-microsoft-com:datatypes""><Description dt:dt=""string"">E-Prime Primary Realtime Clock</Description><StartTime><Timestamp dt:dt=""int"">0</Timestamp><DateUtc dt:dt=""string"">2018-10-18T19:45:59Z</DateUtc></StartTime><FrequencyChanges><FrequencyChange><Frequency dt:dt=""r8"">3215244</Frequency><Timestamp dt:dt=""r8"">7441218028106</Timestamp><Current dt:dt=""r8"">0</Current><DateUtc dt:dt=""string"">2018-10-18T19:45:59Z</DateUtc></FrequencyChange></FrequencyChanges></Clock>\n",KW_Experiment5A-32-1,59.944,1.0.0.105,1,-1959642652,Professional,2.0.10.353,2.0.10.353,10/18/2018,10/18/2018 19:45,15:45:59,2.0.10.248,1,1,1,1,,,,,,,,PracticeProc,BlockList,3,2,Distractor1.bmp,1,0,,0,0,108221,601,,0,0,cyan,600,3,600,,horizontal,purple,Distractor1.bmp,blue,Distractor2.bmp,cyan,Distractor2.bmp,red,Target2.bmp,yellow,Distractor1.bmp,lime,Distractor2.bmp,4,1,3,TrialProc,4,PracticeTrialList,1,2,-999999,1,108822,0,2,994,109816,Target2.bmp,red,2,,,,,,
KW_Experiment5A,32,1,"<?xml version=""1.0""?>\n<Clock xmlns:dt=""urn:schemas-microsoft-com:datatypes""><Description dt:dt=""string"">E-Prime Primary Realtime Clock</Description><StartTime><Timestamp dt:dt=""int"">0</Timestamp><DateUtc dt:dt=""string"">2018-10-18T19:45:59Z</DateUtc></StartTime><FrequencyChanges><FrequencyChange><Frequency dt:dt=""r8"">3215244</Frequency><Timestamp dt:dt=""r8"">7441218028106</Timestamp><Current dt:dt=""r8"">0</Current><DateUtc dt:dt=""string"">2018-10-18T19:45:59Z</DateUtc></FrequencyChange></FrequencyChanges></Clock>\n",KW_Experiment5A-32-1,59.944,1.0.0.105,1,-1959642652,Professional,2.0.10.353,2.0.10.353,10/18/2018,10/18/2018 19:45,15:45:59,2.0.10.248,1,1,1,1,,,,,,,,PracticeProc,BlockList,4,2,Distractor1.bmp,1,0,,0,1,110841,400,,0,0,lime,400,1,400,,horizontal,yellow,Distractor1.bmp,cyan,Distractor2.bmp,purple,Distractor2.bmp,blue,Distractor2.bmp,lime,Distractor2.bmp,red,Target2.bmp,6,1,4,TrialProc,6,PracticeTrialList,1,2,-999999,0,111241,0,2,607,111848,Target2.bmp,red,2,,,,,,
KW_Experiment5A,32,1,"<?xml version=""1.0""?>\n<Clock xmlns:dt=""urn:schemas-microsoft-com:datatypes""><Description dt:dt=""string"">E-Prime Primary Realtime Clock</Description><StartTime><Timestamp dt:dt=""int"">0</Timestamp><DateUtc dt:dt=""string"">2018-10-18T19:45:59Z</DateUtc></StartTime><FrequencyChanges><FrequencyChange><Frequency dt:dt=""r8"">3215244</Frequency><Timestamp dt:dt=""r8"">7441218028106</Timestamp><Current dt:dt=""r8"">0</Current><DateUtc dt:dt=""string"">2018-10-18T19:45:59Z</DateUtc></FrequencyChange></FrequencyChanges></Clock>\n",KW_Experiment5A-32-1,59.944,1.0.0.105,1,-1959642652,Professional,2.0.10.353,2.0.10.353,10/18/2018,10/18/2018 19:45,15:45:59,2.0.10.248,1,1,1,1,,,,,,,,PracticeProc,BlockList,5,1,Distractor2.bmp,2,0,,0,1,112859,400,,0,0,yellow,400,1,400,2,vertical,lime,Target1.bmp,purple,Distractor2.bmp,red,Distractor1.bmp,blue,Distractor2.bmp,cyan,Distractor1.bmp,yellow,Distractor2.bmp,1,1,5,TrialProc,,PracticeTrialList,1,1,-999999,0,113259,0,1,1141,114400,Target1.bmp,lime,1,,,,,,
KW_Experiment5A,32,1,"<?xml version=""1.0""?>\n<Clock xmlns:dt=""urn:schemas-microsoft-com:datatypes""><Description dt:dt=""string"">E-Prime Primary Realtime Clock</Description><StartTime><Timestamp dt:dt=""int"">0</Timestamp><DateUtc dt:dt=""string"">2018-10-18T19:45:59Z</DateUtc></StartTime><FrequencyChanges><FrequencyChange><Frequency dt:dt=""r8"">3215244</Frequency><Timestamp dt:dt=""r8"">7441218028106</Timestamp><Current dt:dt=""r8"">0</Current><DateUtc dt:dt=""string"">2018-10-18T19:45:59Z</DateUtc></FrequencyChange></FrequencyChanges></Clock>\n",KW_Experiment5A-32-1,59.944,1.0.0.105,1,-1959642652,Professional,2.0.10.353,2.0.10.353,10/18/2018,10/18/2018 19:45,15:45:59,2.0.10.248,1,1,1,1,,,,,,,,PracticeProc,BlockList,6,1,Distractor1.bmp,1,0,,0,1,115411,401,,0,0,red,400,1,400,1,vertical,purple,Distractor1.bmp,red,Distractor2.bmp,lime,Target1.bmp,cyan,Distractor1.bmp,yellow,Distractor2.bmp,blue,Distractor2.bmp,3,1,6,TrialProc,,PracticeTrialList,0,1,-999999,1,115812,0,2,836,116648,Target1.bmp,lime,1,,,,,,
KW_Experiment5A,32,1,"<?xml version=""1.0""?>\n<Clock xmlns:dt=""urn:schemas-microsoft-com:datatypes""><Description dt:dt=""string"">E-Prime Primary Realtime Clock</Description><StartTime><Timestamp dt:dt=""int"">0</Timestamp><DateUtc dt:dt=""string"">2018-10-18T19:45:59Z</DateUtc></StartTime><FrequencyChanges><FrequencyChange><Frequency dt:dt=""r8"">3215244</Frequency><Timestamp dt:dt=""r8"">7441218028106</Timestamp><Current dt:dt=""r8"">0</Current><DateUtc dt:dt=""string"">2018-10-18T19:45:59Z</DateUtc></FrequencyChange></FrequencyChanges></Clock>\n",KW_Experiment5A-32-1,59.944,1.0.0.105,1,-1959642652,Professional,2.0.10.353,2.0.10.353,10/18/2018,10/18/2018 19:45,15:45:59,2.0.10.248,2,2,1,2,,,,,,,,TrainingProc,BlockList,1,1,Distractor1.bmp,1,0,,0,22,125654,601,,0,0,lime,600,3,600,,vertical,lime,Distractor1.bmp,purple,Distractor1.bmp,red,Target1.bmp,cyan,Distractor1.bmp,blue,Distractor1.bmp,yellow,Distractor2.bmp,,,,TrialProc,6,TrainingTrialList,1,1,-999999,1,126255,0,1,969,127224,Target1.bmp,red,1,,,,9,1,1
KW_Experiment5A,32,1,"<?xml version=""1.0""?>\n<Clock xmlns:dt=""urn:schemas-microsoft-com:datatypes""><Description dt:dt=""string"">E-Prime Primary Realtime Clock</Description><StartTime><Timestamp dt:dt=""int"">0</Timestamp><DateUtc dt:dt=""string"">2018-10-18T19:45:59Z</DateUtc></StartTime><FrequencyChanges><FrequencyChange><Frequency dt:dt=""r8"">3215244</Frequency><Timestamp dt:dt=""r8"">7441218028106</Timestamp><Current dt:dt=""r8"">0</Current><DateUtc dt:dt=""string"">2018-10-18T19:45:59Z</DateUtc></FrequencyChange></FrequencyChanges></Clock>\n",KW_Experiment5A-32-1,59.944,1.0.0.105,1,-1959642652,Professional,2.0.10.353,2.0.10.353,10/18/2018,10/18/2018 19:45,15:45:59,2.0.10.248,2,2,1,2,,,,,,,,TrainingProc,BlockList,2,1,Distractor2.bmp,2,0,,0,1,128240,400,,0,0,red,400,1,400,1,vertical,red,Distractor2.bmp,blue,Distractor1.bmp,yellow,Distractor2.bmp,cyan,Distractor1.bmp,purple,Distractor1.bmp,lime,Target1.bmp,,,,TrialProc,,TrainingTrialList,1,1,-999999,0,128640,0,1,544,129184,Target1.bmp,lime,1,,,,6,1,2
KW_Experiment5A,32,1,"<?xml version=""1.0""?>\n<Clock xmlns:dt=""urn:schemas-microsoft-com:datatypes""><Description dt:dt=""string"">E-Prime Primary Realtime Clock</Description><StartTime><Timestamp dt:dt=""int"">0</Timestamp><DateUtc dt:dt=""string"">2018-10-18T19:45:59Z</DateUtc></StartTime><FrequencyChanges><FrequencyChange><Frequency dt:dt=""r8"">3215244</Frequency><Timestamp dt:dt=""r8"">7441218028106</Timestamp><Current dt:dt=""r8"">0</Current><DateUtc dt:dt=""string"">2018-10-18T19:45:59Z</DateUtc></FrequencyChange></FrequencyChanges></Clock>\n",KW_Experiment5A-32-1,59.944,1.0.0.105,1,-1959642652,Professional,2.0.10.353,2.0.10.353,10/18/2018,10/18/2018 19:45,15:45:59,2.0.10.248,2,2,1,2,,,,,,,,TrainingProc,BlockList,3,2,Distractor1.bmp,1,0,,0,1,130208,401,,0,0,purple,400,1,400,5,horizontal,purple,Distractor1.bmp,red,Distractor1.bmp,blue,Distractor2.bmp,cyan,Distractor1.bmp,lime,Target2.bmp,yellow,Distractor1.bmp,,,,TrialProc,,TrainingTrialList,1,2,-999999,1,130609,0,2,495,131104,Target2.bmp,lime,2,,,,5,1,3
KW_Experiment5A,32,1,"<?xml version=""1.0""?>\n<Clock xmlns:dt=""urn:schemas-microsoft-com:datatypes""><Description dt:dt=""string"">E-Prime Primary Realtime Clock</Description><StartTime><Timestamp dt:dt=""int"">0</Timestamp><DateUtc dt:dt=""string"">2018-10-18T19:45:59Z</DateUtc></StartTime><FrequencyChanges><FrequencyChange><Frequency dt:dt=""r8"">3215244</Frequency><Timestamp dt:dt=""r8"">7441218028106</Timestamp><Current dt:dt=""r8"">0</Current><DateUtc dt:dt=""string"">2018-10-18T19:45:59Z</DateUtc></FrequencyChange></FrequencyChanges></Clock>\n",KW_Experiment5A-32-1,59.944,1.0.0.105,1,-1959642652,Professional,2.0.10.353,2.0.10.353,10/18/2018,10/18/2018 19:45,15:45:59,2.0.10.248,2,2,1,2,,,,,,,,TrainingProc,BlockList,4,1,Distractor2.bmp,2,0,,0,1,132127,400,,0,0,red,400,1,400,1,vertical,red,Distractor2.bmp,yellow,Distractor2.bmp,lime,Target1.bmp,cyan,Distractor2.bmp,purple,Distractor1.bmp,blue,Distractor2.bmp,,,,TrialProc,,TrainingTrialList,1,1,-999999,0,132527,0,1,833,133360,Target1.bmp,lime,1,,,,3,1,4
KW_Experiment5A,32,1,"<?xml version=""1.0""?>\n<Clock xmlns:dt=""urn:schemas-microsoft-com:datatypes""><Description dt:dt=""string"">E-Prime Primary Realtime Clock</Description><StartTime><Timestamp dt:dt=""int"">0</Timestamp><DateUtc dt:dt=""string"">2018-10-18T19:45:59Z</DateUtc></StartTime><FrequencyChanges><FrequencyChange><Frequency dt:dt=""r8"">3215244</Frequency><Timestamp dt:dt=""r8"">7441218028106</Timestamp><Current dt:dt=""r8"">0</Current><DateUtc dt:dt=""string"">2018-10-18T19:45:59Z</DateUtc></FrequencyChange></FrequencyChanges></Clock>\n",KW_Experiment5A-32-1,59.944,1.0.0.105,1,-1959642652,Professional,2.0.10.353,2.0.10.353,10/18/2018,10/18/2018 19:45,15:45:59,2.0.10.248,2,2,1,2,,,,,,,,TrainingProc,BlockList,5,2,Distractor1.bmp,1,0,,0,1,134379,600,,0,0,cyan,600,3,600,4,horizontal,cyan,Distractor2.bmp,yellow,Distractor1.bmp,lime,Target2.bmp,blue,Distractor1.bmp,purple,Distractor1.bmp,red,Distractor1.bmp,,,,TrialProc,,TrainingTrialList,1,2,-999999,0,134979,0,2,517,135496,Target2.bmp,lime,2,,,,3,1,5
KW_Experiment5A,32,1,"<?xml version=""1.0""?>\n<Clock xmlns:dt=""urn:schemas-microsoft-com:datatypes""><Description dt:dt=""string"">E-Prime Primary Realtime Clock</Description><StartTime><Timestamp dt:dt=""int"">0</Timestamp><DateUtc dt:dt=""string"">2018-10-18T19:45:59Z</DateUtc></StartTime><FrequencyChanges><FrequencyChange><Frequency dt:dt=""r8"">3215244</Frequency><Timestamp dt:dt=""r8"">7441218028106</Timestamp><Current dt:dt=""r8"">0</Current><DateUtc dt:dt=""string"">2018-10-18T19:45:59Z</DateUtc></FrequencyChange></FrequencyChanges></Clock>\n",KW_Experiment5A-32-1,59.944,1.0.0.105,1,-1959642652,Professional,2.0.10.353,2.0.10.353,10/18/2018,10/18/2018 19:45,15:45:59,2.0.10.248,2,2,1,2,,,,,,,,TrainingProc,BlockList,6,1,Distractor1.bmp,1,0,,0,1,136514,401,,0,0,purple,400,1,400,5,vertical,purple,Distractor2.bmp,red,Distractor1.bmp,yellow,Distractor1.bmp,cyan,Distractor2.bmp,lime,Target1.bmp,blue,Distractor1.bmp,,,,TrialProc,,TrainingTrialList,1,1,-999999,1,136915,0,1,445,137360,Target1.bmp,lime,1,,,,5,1,6
KW_Experiment5A,32,1,"<?xml version=""1.0""?>\n<Clock xmlns:dt=""urn:schemas-microsoft-com:datatypes""><Description dt:dt=""string"">E-Prime Primary Realtime Clock</Description><StartTime><Timestamp dt:dt=""int"">0</Timestamp><DateUtc dt:dt=""string"">2018-10-18T19:45:59Z</DateUtc></StartTime><FrequencyChanges><FrequencyChange><Frequency dt:dt=""r8"">3215244</Frequency><Timestamp dt:dt=""r8"">7441218028106</Timestamp><Current dt:dt=""r8"">0</Current><DateUtc dt:dt=""string"">2018-10-18T19:45:59Z</DateUtc></FrequencyChange></FrequencyChanges></Clock>\n",KW_Experiment5A-32-1,59.944,1.0.0.105,1,-1959642652,Professional,2.0.10.353,2.0.10.353,10/18/2018,10/18/2018 19:45,15:45:59,2.0.10.248,2,2,1,2,,,,,,,,TrainingProc,BlockList,7,2,Distractor2.bmp,2,0,,0,1,138383,500,,0,0,yellow,500,2,500,2,horizontal,yellow,Distractor1.bmp,lime,Target2.bmp,red,Distractor2.bmp,blue,Distractor1.bmp,cyan,Distractor2.bmp,purple,Distractor1.bmp,,,,TrialProc,,TrainingTrialList,1,2,-999999,0,138883,0,2,685,139568,Target2.bmp,lime,2,,,,2,1,7
KW_Experiment5A,32,1,"<?xml version=""1.0""?>\n<Clock xmlns:dt=""urn:schemas-microsoft-com:datatypes""><Description dt:dt=""string"">E-Prime Primary Realtime Clock</Description><StartTime><Timestamp dt:dt=""int"">0</Timestamp><DateUtc dt:dt=""string"">2018-10-18T19:45:59Z</DateUtc></StartTime><FrequencyChanges><FrequencyChange><Frequency dt:dt=""r8"">3215244</Frequency><Timestamp dt:dt=""r8"">7441218028106</Timestamp><Current dt:dt=""r8"">0</Current><DateUtc dt:dt=""string"">2018-10-18T19:45:59Z</DateUtc></FrequencyChange></FrequencyChanges></Clock>\n",KW_Experiment5A-32-1,59.944,1.0.0.105,1,-1959642652,Professional,2.0.10.353,2.0.10.353,10/18/2018,10/18/2018 19:45,15:45:59,2.0.10.248,2,2,1,2,,,,,,,,TrainingProc,BlockList,8,1,Distractor1.bmp,1,0,,0,1,140585,400,,0,0,blue,400,1,400,3,vertical,lime,Target1.bmp,blue,Distractor1.bmp,cyan,Distractor1.bmp,red,Distractor1.bmp,yellow,Distractor2.bmp,purple,Distractor2.bmp,,,,TrialProc,,TrainingTrialList,1,1,-999999,0,140985,0,1,527,141512,Target1.bmp,lime,1,,,,1,1,8
KW_Experiment5A,32,1,"<?xml version=""1.0""?>\n<Clock xmlns:dt=""urn:schemas-microsoft-com:datatypes""><Description dt:dt=""string"">E-Prime Primary Realtime Clock</Description><StartTime><Timestamp dt:dt=""int"">0</Timestamp><DateUtc dt:dt=""string"">2018-10-18T19:45:59Z</DateUtc></StartTime><FrequencyChanges><FrequencyChange><Frequency dt:dt=""r8"">3215244</Frequency><Timestamp dt:dt=""r8"">7441218028106</Timestamp><Current dt:dt=""r8"">0</Current><DateUtc dt:dt=""string"">2018-10-18T19:45:59Z</DateUtc></FrequencyChange></FrequencyChanges></Clock>\n",KW_Experiment5A-32-1,59.944,1.0.0.105,1,-1959642652,Professional,2.0.10.353,2.0.10.353,10/18/2018,10/18/2018 19:45,15:45:59,2.0.10.248,2,2,1,2,,,,,,,,TrainingProc,BlockList,9,2,Distractor1.bmp,1,0,,0,1,142536,401,,0,0,yellow,400,1,400,2,horizontal,lime,Target2.bmp,yellow,Distractor1.bmp,cyan,Distractor1.bmp,purple,Distractor1.bmp,blue,Distractor2.bmp,red,Distractor2.bmp,,,,TrialProc,,TrainingTrialList,0,2,-999999,1,142937,0,1,575,143512,Target2.bmp,lime,2,,,,1,1,9
KW_Experiment5A,32,1,"<?xml version=""1.0""?>\n<Clock xmlns:dt=""urn:schemas-microsoft-com:datatypes""><Description dt:dt=""string"">E-Prime Primary Realtime Clock</Description><StartTime><Timestamp dt:dt=""int"">0</Timestamp><DateUtc dt:dt=""string"">2018-10-18T19:45:59Z</DateUtc></StartTime><FrequencyChanges><FrequencyChange><Frequency dt:dt=""r8"">3215244</Frequency><Timestamp dt:dt=""r8"">7441218028106</Timestamp><Current dt:dt=""r8"">0</Current><DateUtc dt:dt=""string"">2018-10-18T19:45:59Z</DateUtc></FrequencyChange></FrequencyChanges></Clock>\n",KW_Experiment5A-32-1,59.944,1.0.0.105,1,-1959642652,Professional,2.0.10.353,2.0.10.353,10/18/2018,10/18/2018 19:45,15:45:59,2.0.10.248,2,2,1,2,,,,,,,,TrainingProc,BlockList,10,1,Distractor2.bmp,2,0,,0,1,144538,401,,0,0,purple,400,1,400,,vertical,purple,Distractor1.bmp,blue,Distractor2.bmp,lime,Distractor1.bmp,yellow,Distractor1.bmp,red,Target1.bmp,cyan,Distractor2.bmp,,,,TrialProc,5,TrainingTrialList,0,1,-999999,1,144939,0,2,973,145912,Target1.bmp,red,1,,,,11,1,10
KW_Experiment5A,32,1,"<?xml version=""1.0""?>\n<Clock xmlns:dt=""urn:schemas-microsoft-com:datatypes""><Description dt:dt=""string"">E-Prime Primary Realtime Clock</Description><StartTime><Timestamp dt:dt=""int"">0</Timestamp><DateUtc dt:dt=""string"">2018-10-18T19:45:59Z</DateUtc></StartTime><FrequencyChanges><FrequencyChange><Frequency dt:dt=""r8"">3215244</Frequency><Timestamp dt:dt=""r8"">7441218028106</Timestamp><Current dt:dt=""r8"">0</Current><DateUtc dt:dt=""string"">2018-10-18T19:45:59Z</DateUtc></FrequencyChange></FrequencyChanges></Clock>\n",KW_Experiment5A-32-1,59.944,1.0.0.105,1,-1959642652,Professional,2.0.10.353,2.0.10.353,10/18/2018,10/18/2018 19:45,15:45:59,2.0.10.248,2,2,1,2,,,,,,,,TrainingProc,BlockList,11,1,Distractor2.bmp,2,0,,0,1,146924,600,,0,0,blue,600,3,600,3,vertical,lime,Target1.bmp,blue,Distractor2.bmp,red,Distractor2.bmp,cyan,Distractor1.bmp,yellow,Distractor2.bmp,purple,Distractor2.bmp,,,,TrialProc,,TrainingTrialList,1,1,-999999,0,147524,0,1,588,148112,Target1.bmp,lime,1,,,,1,1,11
KW_Experiment5A,32,1,"<?xml version=""1.0""?>\n<Clock xmlns:dt=""urn:schemas-microsoft-com:datatypes""><Description dt:dt=""string"">E-Prime Primary Realtime Clock</Description><StartTime><Timestamp dt:dt=""int"">0</Timestamp><DateUtc dt:dt=""string"">2018-10-18T19:45:59Z</DateUtc></StartTime><FrequencyChanges><FrequencyChange><Frequency dt:dt=""r8"">3215244</Frequency><Timestamp dt:dt=""r8"">7441218028106</Timestamp><Current dt:dt=""r8"">0</Current><DateUtc dt:dt=""string"">2018-10-18T19:45:59Z</DateUtc></FrequencyChange></FrequencyChanges></Clock>\n",KW_Experiment5A-32-1,59.944,1.0.0.105,1,-1959642652,Professional,2.0.10.353,2.0.10.353,10/18/2018,10/18/2018 19:45,15:45:59,2.0.10.248,2,2,1,2,,,,,,,,TrainingProc,BlockList,12,2,Distractor2.bmp,2,0,,0,1,149126,500,,0,0,yellow,500,2,500,,horizontal,yellow,Distractor1.bmp,purple,Distractor1.bmp,cyan,Distractor2.bmp,red,Target2.bmp,blue,Distractor2.bmp,lime,Distractor1.bmp,,,,TrialProc,2,TrainingTrialList,1,2,-999999,0,149626,0,2,766,150392,Target2.bmp,red,2,,,,10,1,12
KW_Experiment5A,32,1,"<?xml version=""1.0""?>\n<Clock xmlns:dt=""urn:schemas-microsoft-com:datatypes""><Description dt:dt=""string"">E-Prime Primary Realtime Clock</Description><StartTime><Timestamp dt:dt=""int"">0</Timestamp><DateUtc dt:dt=""string"">2018-10-18T19:45:59Z</DateUtc></StartTime><FrequencyChanges><FrequencyChange><Frequency dt:dt=""r8"">3215244</Frequency><Timestamp dt:dt=""r8"">7441218028106</Timestamp><Current dt:dt=""r8"">0</Current><DateUtc dt:dt=""string"">2018-10-18T19:45:59Z</DateUtc></FrequencyChange></FrequencyChanges></Clock>\n",KW_Experiment5A-32-1,59.944,1.0.0.105,1,-1959642652,Professional,2.0.10.353,2.0.10.353,10/18/2018,10/18/2018 19:45,15:45:59,2.0.10.248,2,2,1,2,,,,,,,,TrainingProc,BlockList,13,1,Distractor1.bmp,1,0,,0,1,151411,601,,0,0,yellow,600,3,600,2,vertical,yellow,Distractor1.bmp,purple,Distractor2.bmp,red,Distractor1.bmp,blue,Distractor2.bmp,cyan,Distractor2.bmp,lime,Target1.bmp,,,,TrialProc,,TrainingTrialList,1,1,-999999,1,152012,0,1,684,152696,Target1.bmp,lime,1,,,,6,1,13
KW_Experiment5A,32,1,"<?xml version=""1.0""?>\n<Clock xmlns:dt=""urn:schemas-microsoft-com:datatypes""><Description dt:dt=""string"">E-Prime Primary Realtime Clock</Description><StartTime><Timestamp dt:dt=""int"">0</Timestamp><DateUtc dt:dt=""string"">2018-10-18T19:45:59Z</DateUtc></StartTime><FrequencyChanges><FrequencyChange><Frequency dt:dt=""r8"">3215244</Frequency><Timestamp dt:dt=""r8"">7441218028106</Timestamp><Current dt:dt=""r8"">0</Current><DateUtc dt:dt=""string"">2018-10-18T19:45:59Z</DateUtc></FrequencyChange></FrequencyChanges></Clock>\n",KW_Experiment5A-32-1,59.944,1.0.0.105,1,-1959642652,Professional,2.0.10.353,2.0.10.353,10/18/2018,10/18/2018 19:45,15:45:59,2.0.10.248,2,2,1,2,,,,,,,,TrainingProc,BlockList,14,2,Distractor1.bmp,1,0,,0,1,153713,401,,0,0,cyan,400,1,400,4,horizontal,cyan,Distractor2.bmp,lime,Target2.bmp,purple,Distractor1.bmp,yellow,Distractor1.bmp,red,Distractor2.bmp,blue,Distractor1.bmp,,,,TrialProc,,TrainingTrialList,1,2,-999999,1,154114,0,2,814,154928,Target2.bmp,lime,2,,,,2,1,14
KW_Experiment5A,32,1,"<?xml version=""1.0""?>\n<Clock xmlns:dt=""urn:schemas-microsoft-com:datatypes""><Description dt:dt=""string"">E-Prime Primary Realtime Clock</Description><StartTime><Timestamp dt:dt=""int"">0</Timestamp><DateUtc dt:dt=""string"">2018-10-18T19:45:59Z</DateUtc></StartTime><FrequencyChanges><FrequencyChange><Frequency dt:dt=""r8"">3215244</Frequency><Timestamp dt:dt=""r8"">7441218028106</Timestamp><Current dt:dt=""r8"">0</Current><DateUtc dt:dt=""string"">2018-10-18T19:45:59Z</DateUtc></FrequencyChange></FrequencyChanges></Clock>\n",KW_Experiment5A-32-1,59.944,1.0.0.105,1,-1959642652,Professional,2.0.10.353,2.0.10.353,10/18/2018,10/18/2018 19:45,15:45:59,2.0.10.248,2,2,1,2,,,,,,,,TrainingProc,BlockList,15,2,Distractor2.bmp,2,0,,0,1,155949,600,,0,0,purple,600,3,600,,horizontal,purple,Distractor2.bmp,blue,Distractor1.bmp,yellow,Distractor1.bmp,lime,Distractor2.bmp,cyan,Distractor1.bmp,red,Target2.bmp,,,,TrialProc,5,TrainingTrialList,1,2,-999999,0,156549,0,2,635,157184,Target2.bmp,red,2,,,,12,1,15
KW_Experiment5A,32,1,"<?xml version=""1.0""?>\n<Clock xmlns:dt=""urn:schemas-microsoft-com:datatypes""><Description dt:dt=""string"">E-Prime Primary Realtime Clock</Description><StartTime><Timestamp dt:dt=""int"">0</Timestamp><DateUtc dt:dt=""string"">2018-10-18T19:45:59Z</DateUtc></StartTime><FrequencyChanges><FrequencyChange><Frequency dt:dt=""r8"">3215244</Frequency><Timestamp dt:dt=""r8"">7441218028106</Timestamp><Current dt:dt=""r8"">0</Current><DateUtc dt:dt=""string"">2018-10-18T19:45:59Z</DateUtc></FrequencyChange></FrequencyChanges></Clock>\n",KW_Experiment5A-32-1,59.944,1.0.0.105,1,-1959642652,Professional,2.0.10.353,2.0.10.353,10/18/2018,10/18/2018 19:45,15:45:59,2.0.10.248,2,2,1,2,,,,,,,,TrainingProc,BlockList,16,2,Distractor1.bmp,1,0,,0,1,158201,500,,0,0,red,500,2,500,1,horizontal,red,Distractor1.bmp,cyan,Distractor2.bmp,purple,Distractor1.bmp,yellow,Distractor1.bmp,blue,Distractor2.bmp,lime,Target2.bmp,,,,TrialProc,,TrainingTrialList,1,2,-999999,0,158701,0,2,619,159320,Target2.bmp,lime,2,,,,6,1,16
KW_Experiment5A,32,1,"<?xml version=""1.0""?>\n<Clock xmlns:dt=""urn:schemas-microsoft-com:datatypes""><Description dt:dt=""string"">E-Prime Primary Realtime Clock</Description><StartTime><Timestamp dt:dt=""int"">0</Timestamp><DateUtc dt:dt=""string"">2018-10-18T19:45:59Z</DateUtc></StartTime><FrequencyChanges><FrequencyChange><Frequency dt:dt=""r8"">3215244</Frequency><Timestamp dt:dt=""r8"">7441218028106</Timestamp><Current dt:dt=""r8"">0</Current><DateUtc dt:dt=""string"">2018-10-18T19:45:59Z</DateUtc></FrequencyChange></FrequencyChanges></Clock>\n",KW_Experiment5A-32-1,59.944,1.0.0.105,1,-1959642652,Professional,2.0.10.353,2.0.10.353,10/18/2018,10/18/2018 19:45,15:45:59,2.0.10.248,2,2,1,2,,,,,,,,TrainingProc,BlockList,17,1,Distractor2.bmp,2,0,,0,1,160336,501,,0,0,red,500,2,500,1,vertical,red,Distractor1.bmp,lime,Target1.bmp,purple,Distractor2.bmp,yellow,Distractor1.bmp,cyan,Distractor2.bmp,blue,Distractor2.bmp,,,,TrialProc,,TrainingTrialList,1,1,-999999,1,160837,0,1,635,161472,Target1.bmp,lime,1,,,,2,1,17
KW_Experiment5A,32,1,"<?xml version=""1.0""?>\n<Clock xmlns:dt=""urn:schemas-microsoft-com:datatypes""><Description dt:dt=""string"">E-Prime Primary Realtime Clock</Description><StartTime><Timestamp dt:dt=""int"">0</Timestamp><DateUtc dt:dt=""string"">2018-10-18T19:45:59Z</DateUtc></StartTime><FrequencyChanges><FrequencyChange><Frequency dt:dt=""r8"">3215244</Frequency><Timestamp dt:dt=""r8"">7441218028106</Timestamp><Current dt:dt=""r8"">0</Current><DateUtc dt:dt=""string"">2018-10-18T19:45:59Z</DateUtc></FrequencyChange></FrequencyChanges></Clock>\n",KW_Experiment5A-32-1,59.944,1.0.0.105,1,-1959642652,Professional,2.0.10.353,2.0.10.353,10/18/2018,10/18/2018 19:45,15:45:59,2.0.10.248,2,2,1,2,,,,,,,,TrainingProc,BlockList,18,1,Distractor1.bmp,1,0,,0,1,162488,601,,0,0,yellow,600,3,600,2,vertical,yellow,Distractor1.bmp,blue,Distractor2.bmp,red,Distractor1.bmp,lime,Target1.bmp,purple,Distractor1.bmp,cyan,Distractor2.bmp,,,,TrialProc,,TrainingTrialList,1,1,-999999,1,163089,0,1,855,163944,Target1.bmp,lime,1,,,,4,1,18
KW_Experiment5A,32,1,"<?xml version=""1.0""?>\n<Clock xmlns:dt=""urn:schemas-microsoft-com:datatypes""><Description dt:dt=""string"">E-Prime Primary Realtime Clock</Description><StartTime><Timestamp dt:dt=""int"">0</Timestamp><DateUtc dt:dt=""string"">2018-10-18T19:45:59Z</DateUtc></StartTime><FrequencyChanges><FrequencyChange><Frequency dt:dt=""r8"">3215244</Frequency><Timestamp dt:dt=""r8"">7441218028106</Timestamp><Current dt:dt=""r8"">0</Current><DateUtc dt:dt=""string"">2018-10-18T19:45:59Z</DateUtc></FrequencyChange></FrequencyChanges></Clock>\n",KW_Experiment5A-32-1,59.944,1.0.0.105,1,-1959642652,Professional,2.0.10.353,2.0.10.353,10/18/2018,10/18/2018 19:45,15:45:59,2.0.10.248,2,2,1,2,,,,,,,,TrainingProc,BlockList,19,2,Distractor2.bmp,2,0,,0,1,164957,601,,0,0,lime,600,3,600,,horizontal,red,Target2.bmp,cyan,Distractor2.bmp,yellow,Distractor1.bmp,blue,Distractor2.bmp,purple,Distractor2.bmp,lime,Distractor2.bmp,,,,TrialProc,6,TrainingTrialList,1,2,-999999,1,165558,0,2,682,166240,Target2.bmp,red,2,,,,7,1,19
KW_Experiment5A,32,1,"<?xml version=""1.0""?>\n<Clock xmlns:dt=""urn:schemas-microsoft-com:datatypes""><Description dt:dt=""string"">E-Prime Primary Realtime Clock</Description><StartTime><Timestamp dt:dt=""int"">0</Timestamp><DateUtc dt:dt=""string"">2018-10-18T19:45:59Z</DateUtc></StartTime><FrequencyChanges><FrequencyChange><Frequency dt:dt=""r8"">3215244</Frequency><Timestamp dt:dt=""r8"">7441218028106</Timestamp><Current dt:dt=""r8"">0</Current><DateUtc dt:dt=""string"">2018-10-18T19:45:59Z</DateUtc></FrequencyChange></FrequencyChanges></Clock>\n",KW_Experiment5A-32-1,59.944,1.0.0.105,1,-1959642652,Professional,2.0.10.353,2.0.10.353,10/18/2018,10/18/2018 19:45,15:45:59,2.0.10.248,2,2,1,2,,,,,,,,TrainingProc,BlockList,20,2,Distractor1.bmp,1,0,,0,1,167259,601,,0,0,purple,600,3,600,,horizontal,purple,Distractor1.bmp,red,Target2.bmp,cyan,Distractor1.bmp,lime,Distractor1.bmp,blue,Distractor1.bmp,yellow,Distractor1.bmp,,,,TrialProc,5,TrainingTrialList,1,2,-999999,1,167860,0,2,700,168560,Target2.bmp,red,2,,,,8,1,20
KW_Experiment5A,32,1,"<?xml version=""1.0""?>\n<Clock xmlns:dt=""urn:schemas-microsoft-com:datatypes""><Description dt:dt=""string"">E-Prime Primary Realtime Clock</Description><StartTime><Timestamp dt:dt=""int"">0</Timestamp><DateUtc dt:dt=""string"">2018-10-18T19:45:59Z</DateUtc></StartTime><FrequencyChanges><FrequencyChange><Frequency dt:dt=""r8"">3215244</Frequency><Timestamp dt:dt=""r8"">7441218028106</Timestamp><Current dt:dt=""r8"">0</Current><DateUtc dt:dt=""string"">2018-10-18T19:45:59Z</DateUtc></FrequencyChange></FrequencyChanges></Clock>\n",KW_Experiment5A-32-1,59.944,1.0.0.105,1,-1959642652,Professional,2.0.10.353,2.0.10.353,10/18/2018,10/18/2018 19:45,15:45:59,2.0.10.248,2,2,1,2,,,,,,,,TrainingProc,BlockList,21,1,Distractor2.bmp,2,0,,0,1,169578,601,,0,0,cyan,600,3,600,4,vertical,cyan,Distractor2.bmp,red,Distractor1.bmp,lime,Target1.bmp,blue,Distractor2.bmp,yellow,Distractor2.bmp,purple,Distractor1.bmp,,,,TrialProc,,TrainingTrialList,1,1,-999999,1,170179,0,1,837,171016,Target1.bmp,lime,1,,,,3,1,21
KW_Experiment5A,32,1,"<?xml version=""1.0""?>\n<Clock xmlns:dt=""urn:schemas-microsoft-com:datatypes""><Description dt:dt=""string"">E-Prime Primary Realtime Clock</Description><StartTime><Timestamp dt:dt=""int"">0</Timestamp><DateUtc dt:dt=""string"">2018-10-18T19:45:59Z</DateUtc></StartTime><FrequencyChanges><FrequencyChange><Frequency dt:dt=""r8"">3215244</Frequency><Timestamp dt:dt=""r8"">7441218028106</Timestamp><Current dt:dt=""r8"">0</Current><DateUtc dt:dt=""string"">2018-10-18T19:45:59Z</DateUtc></FrequencyChange></FrequencyChanges></Clock>\n",KW_Experiment5A-32-1,59.944,1.0.0.105,1,-1959642652,Professional,2.0.10.353,2.0.10.353,10/18/2018,10/18/2018 19:45,15:45:59,2.0.10.248,2,2,1,2,,,,,,,,TrainingProc,BlockList,22,1,Distractor2.bmp,2,0,,0,1,172030,401,,0,0,purple,400,1,400,5,vertical,purple,Distractor1.bmp,cyan,Distractor2.bmp,blue,Distractor1.bmp,lime,Target1.bmp,red,Distractor2.bmp,yellow,Distractor1.bmp,,,,TrialProc,,TrainingTrialList,1,1,-999999,1,172431,0,1,665,173096,Target1.bmp,lime,1,,,,4,1,22
KW_Experiment5A,32,1,"<?xml version=""1.0""?>\n<Clock xmlns:dt=""urn:schemas-microsoft-com:datatypes""><Description dt:dt=""string"">E-Prime Primary Realtime Clock</Description><StartTime><Timestamp dt:dt=""int"">0</Timestamp><DateUtc dt:dt=""string"">2018-10-18T19:45:59Z</DateUtc></StartTime><FrequencyChanges><FrequencyChange><Frequency dt:dt=""r8"">3215244</Frequency><Timestamp dt:dt=""r8"">7441218028106</Timestamp><Current dt:dt=""r8"">0</Current><DateUtc dt:dt=""string"">2018-10-18T19:45:59Z</DateUtc></FrequencyChange></FrequencyChanges></Clock>\n",KW_Experiment5A-32-1,59.944,1.0.0.105,1,-1959642652,Professional,2.0.10.353,2.0.10.353,10/18/2018,10/18/2018 19:45,15:45:59,2.0.10.248,2,2,1,2,,,,,,,,TrainingProc,BlockList,23,2,Distractor1.bmp,1,0,,1,0,174115,401,,0,0,cyan,400,1,400,4,horizontal,cyan,Distractor2.bmp,blue,Distractor2.bmp,purple,Distractor2.bmp,yellow,Distractor2.bmp,lime,Target2.bmp,red,Distractor1.bmp,,,,TrialProc,,TrainingTrialList,1,2,-999999,1,174516,0,2,844,175360,Target2.bmp,lime,2,,,,5,1,23
KW_Experiment5A,32,1,"<?xml version=""1.0""?>\n<Clock xmlns:dt=""urn:schemas-microsoft-com:datatypes""><Description dt:dt=""string"">E-Prime Primary Realtime Clock</Description><StartTime><Timestamp dt:dt=""int"">0</Timestamp><DateUtc dt:dt=""string"">2018-10-18T19:45:59Z</DateUtc></StartTime><FrequencyChanges><FrequencyChange><Frequency dt:dt=""r8"">3215244</Frequency><Timestamp dt:dt=""r8"">7441218028106</Timestamp><Current dt:dt=""r8"">0</Current><DateUtc dt:dt=""string"">2018-10-18T19:45:59Z</DateUtc></FrequencyChange></FrequencyChanges></Clock>\n",KW_Experiment5A-32-1,59.944,1.0.0.105,1,-1959642652,Professional,2.0.10.353,2.0.10.353,10/18/2018,10/18/2018 19:45,15:45:59,2.0.10.248,2,2,1,2,,,,,,,,TrainingProc,BlockList,24,2,Distractor2.bmp,2,0,,0,1,176384,501,,0,0,purple,500,2,500,5,horizontal,purple,Distractor2.bmp,blue,Distractor2.bmp,cyan,Distractor2.bmp,lime,Target2.bmp,red,Distractor2.bmp,yellow,Distractor2.bmp,,,,TrialProc,,TrainingTrialList,1,2,-999999,1,176885,0,2,851,177736,Target2.bmp,lime,2,,,,4,1,24
KW_Experiment5A,32,1,"<?xml version=""1.0""?>\n<Clock xmlns:dt=""urn:schemas-microsoft-com:datatypes""><Description dt:dt=""string"">E-Prime Primary Realtime Clock</Description><StartTime><Timestamp dt:dt=""int"">0</Timestamp><DateUtc dt:dt=""string"">2018-10-18T19:45:59Z</DateUtc></StartTime><FrequencyChanges><FrequencyChange><Frequency dt:dt=""r8"">3215244</Frequency><Timestamp dt:dt=""r8"">7441218028106</Timestamp><Current dt:dt=""r8"">0</Current><DateUtc dt:dt=""string"">2018-10-18T19:45:59Z</DateUtc></FrequencyChange></FrequencyChanges></Clock>\n",KW_Experiment5A-32-1,59.944,1.0.0.105,1,-1959642652,Professional,2.0.10.353,2.0.10.353,10/18/2018,10/18/2018 19:45,15:45:59,2.0.10.248,2,2,1,2,,,,,,,,TrainingProc,BlockList,25,1,Distractor2.bmp,2,0,,0,1,178753,601,,0,0,blue,600,3,600,,vertical,blue,Distractor2.bmp,lime,Distractor1.bmp,yellow,Distractor1.bmp,red,Target1.bmp,purple,Distractor2.bmp,cyan,Distractor2.bmp,,,,TrialProc,3,TrainingTrialList,1,1,-999999,1,179354,0,1,726,180080,Target1.bmp,red,1,,,,10,2,25
KW_Experiment5A,32,1,"<?xml version=""1.0""?>\n<Clock xmlns:dt=""urn:schemas-microsoft-com:datatypes""><Description dt:dt=""string"">E-Prime Primary Realtime Clock</Description><StartTime><Timestamp dt:dt=""int"">0</Timestamp><DateUtc dt:dt=""string"">2018-10-18T19:45:59Z</DateUtc></StartTime><FrequencyChanges><FrequencyChange><Frequency dt:dt=""r8"">3215244</Frequency><Timestamp dt:dt=""r8"">7441218028106</Timestamp><Current dt:dt=""r8"">0</Current><DateUtc dt:dt=""string"">2018-10-18T19:45:59Z</DateUtc></FrequencyChange></FrequencyChanges></Clock>\n",KW_Experiment5A-32-1,59.944,1.0.0.105,1,-1959642652,Professional,2.0.10.353,2.0.10.353,10/18/2018,10/18/2018 19:45,15:45:59,2.0.10.248,2,2,1,2,,,,,,,,TrainingProc,BlockList,26,2,Distractor1.bmp,1,0,,0,1,181089,400,,0,0,red,400,1,400,1,horizontal,red,Distractor1.bmp,purple,Distractor1.bmp,yellow,Distractor2.bmp,lime,Target2.bmp,cyan,Distractor1.bmp,blue,Distractor1.bmp,,,,TrialProc,,TrainingTrialList,1,2,-999999,0,181489,0,2,750,182239,Target2.bmp,lime,2,,,,4,2,26
KW_Experiment5A,32,1,"<?xml version=""1.0""?>\n<Clock xmlns:dt=""urn:schemas-microsoft-com:datatypes""><Description dt:dt=""string"">E-Prime Primary Realtime Clock</Description><StartTime><Timestamp dt:dt=""int"">0</Timestamp><DateUtc dt:dt=""string"">2018-10-18T19:45:59Z</DateUtc></StartTime><FrequencyChanges><FrequencyChange><Frequency dt:dt=""r8"">3215244</Frequency><Timestamp dt:dt=""r8"">7441218028106</Timestamp><Current dt:dt=""r8"">0</Current><DateUtc dt:dt=""string"">2018-10-18T19:45:59Z</DateUtc></FrequencyChange></FrequencyChanges></Clock>\n",KW_Experiment5A-32-1,59.944,1.0.0.105,1,-1959642652,Professional,2.0.10.353,2.0.10.353,10/18/2018,10/18/2018 19:45,15:45:59,2.0.10.248,2,2,1,2,,,,,,,,TrainingProc,BlockList,27,1,Distractor2.bmp,2,0,,0,1,183257,401,,0,0,purple,400,1,400,5,vertical,purple,Distractor1.bmp,lime,Target1.bmp,yellow,Distractor2.bmp,red,Distractor1.bmp,cyan,Distractor1.bmp,blue,Distractor2.bmp,,,,TrialProc,,TrainingTrialList,1,1,-999999,1,183658,0,1,670,184328,Target1.bmp,lime,1,,,,2,2,27
KW_Experiment5A,32,1,"<?xml version=""1.0""?>\n<Clock xmlns:dt=""urn:schemas-microsoft-com:datatypes""><Description dt:dt=""string"">E-Prime Primary Realtime Clock</Description><StartTime><Timestamp dt:dt=""int"">0</Timestamp><DateUtc dt:dt=""string"">2018-10-18T19:45:59Z</DateUtc></StartTime><FrequencyChanges><FrequencyChange><Frequency dt:dt=""r8"">3215244</Frequency><Timestamp dt:dt=""r8"">7441218028106</Timestamp><Current dt:dt=""r8"">0</Current><DateUtc dt:dt=""string"">2018-10-18T19:45:59Z</DateUtc></FrequencyChange></FrequencyChanges></Clock>\n",KW_Experiment5A-32-1,59.944,1.0.0.105,1,-1959642652,Professional,2.0.10.353,2.0.10.353,10/18/2018,10/18/2018 19:45,15:45:59,2.0.10.248,2,2,1,2,,,,,,,,TrainingProc,BlockList,28,2,Distractor2.bmp,2,0,,0,1,185343,600,,0,0,cyan,600,3,600,,horizontal,cyan,Distractor1.bmp,lime,Distractor1.bmp,red,Target2.bmp,purple,Distractor2.bmp,blue,Distractor1.bmp,yellow,Distractor2.bmp,,,,TrialProc,4,TrainingTrialList,1,2,-999999,0,185943,0,2,568,186511,Target2.bmp,red,2,,,,9,2,28
KW_Experiment5A,32,1,"<?xml version=""1.0""?>\n<Clock xmlns:dt=""urn:schemas-microsoft-com:datatypes""><Description dt:dt=""string"">E-Prime Primary Realtime Clock</Description><StartTime><Timestamp dt:dt=""int"">0</Timestamp><DateUtc dt:dt=""string"">2018-10-18T19:45:59Z</DateUtc></StartTime><FrequencyChanges><FrequencyChange><Frequency dt:dt=""r8"">3215244</Frequency><Timestamp dt:dt=""r8"">7441218028106</Timestamp><Current dt:dt=""r8"">0</Current><DateUtc dt:dt=""string"">2018-10-18T19:45:59Z</DateUtc></FrequencyChange></FrequencyChanges></Clock>\n",KW_Experiment5A-32-1,59.944,1.0.0.105,1,-1959642652,Professional,2.0.10.353,2.0.10.353,10/18/2018,10/18/2018 19:45,15:45:59,2.0.10.248,2,2,1,2,,,,,,,,TrainingProc,BlockList,29,2,Distractor1.bmp,1,0,,0,1,187528,600,,0,0,red,600,3,600,1,horizontal,red,Distractor1.bmp,lime,Target2.bmp,blue,Distractor1.bmp,yellow,Distractor2.bmp,purple,Distractor2.bmp,cyan,Distractor2.bmp,,,,TrialProc,,TrainingTrialList,1,2,-999999,0,188128,0,2,607,188735,Target2.bmp,lime,2,,,,2,2,29
KW_Experiment5A,32,1,"<?xml version=""1.0""?>\n<Clock xmlns:dt=""urn:schemas-microsoft-com:datatypes""><Description dt:dt=""string"">E-Prime Primary Realtime Clock</Description><StartTime><Timestamp dt:dt=""int"">0</Timestamp><DateUtc dt:dt=""string"">2018-10-18T19:45:59Z</DateUtc></StartTime><FrequencyChanges><FrequencyChange><Frequency dt:dt=""r8"">3215244</Frequency><Timestamp dt:dt=""r8"">7441218028106</Timestamp><Current dt:dt=""r8"">0</Current><DateUtc dt:dt=""string"">2018-10-18T19:45:59Z</DateUtc></FrequencyChange></FrequencyChanges></Clock>\n",KW_Experiment5A-32-1,59.944,1.0.0.105,1,-1959642652,Professional,2.0.10.353,2.0.10.353,10/18/2018,10/18/2018 19:45,15:45:59,2.0.10.248,2,2,1,2,,,,,,,,TrainingProc,BlockList,30,2,Distractor1.bmp,1,0,,0,1,189747,400,,0,0,purple,400,1,400,,horizontal,purple,Distractor1.bmp,blue,Distractor2.bmp,yellow,Distractor1.bmp,cyan,Distractor1.bmp,red,Target2.bmp,lime,Distractor1.bmp,,,,TrialProc,5,TrainingTrialList,1,2,-999999,0,190147,0,2,564,190711,Target2.bmp,red,2,,,,11,2,30
KW_Experiment5A,32,1,"<?xml version=""1.0""?>\n<Clock xmlns:dt=""urn:schemas-microsoft-com:datatypes""><Description dt:dt=""string"">E-Prime Primary Realtime Clock</Description><StartTime><Timestamp dt:dt=""int"">0</Timestamp><DateUtc dt:dt=""string"">2018-10-18T19:45:59Z</DateUtc></StartTime><FrequencyChanges><FrequencyChange><Frequency dt:dt=""r8"">3215244</Frequency><Timestamp dt:dt=""r8"">7441218028106</Timestamp><Current dt:dt=""r8"">0</Current><DateUtc dt:dt=""string"">2018-10-18T19:45:59Z</DateUtc></FrequencyChange></FrequencyChanges></Clock>\n",KW_Experiment5A-32-1,59.944,1.0.0.105,1,-1959642652,Professional,2.0.10.353,2.0.10.353,10/18/2018,10/18/2018 19:45,15:45:59,2.0.10.248,2,2,1,2,,,,,,,,TrainingProc,BlockList,31,1,Distractor1.bmp,1,0,,0,1,191732,600,,0,0,cyan,600,3,600,4,vertical,cyan,Distractor1.bmp,yellow,Distractor2.bmp,red,Distractor1.bmp,purple,Distractor1.bmp,lime,Target1.bmp,blue,Distractor1.bmp,,,,TrialProc,,TrainingTrialList,1,1,-999999,0,192332,0,1,483,192815,Target1.bmp,lime,1,,,,5,2,31
KW_Experiment5A,32,1,"<?xml version=""1.0""?>\n<Clock xmlns:dt=""urn:schemas-microsoft-com:datatypes""><Description dt:dt=""string"">E-Prime Primary Realtime Clock</Description><StartTime><Timestamp dt:dt=""int"">0</Timestamp><DateUtc dt:dt=""string"">2018-10-18T19:45:59Z</DateUtc></StartTime><FrequencyChanges><FrequencyChange><Frequency dt:dt=""r8"">3215244</Frequency><Timestamp dt:dt=""r8"">7441218028106</Timestamp><Current dt:dt=""r8"">0</Current><DateUtc dt:dt=""string"">2018-10-18T19:45:59Z</DateUtc></FrequencyChange></FrequencyChanges></Clock>\n",KW_Experiment5A-32-1,59.944,1.0.0.105,1,-1959642652,Professional,2.0.10.353,2.0.10.353,10/18/2018,10/18/2018 19:45,15:45:59,2.0.10.248,2,2,1,2,,,,,,,,TrainingProc,BlockList,32,2,Distractor2.bmp,2,0,,0,1,193834,500,,0,0,red,500,2,500,1,horizontal,red,Distractor2.bmp,cyan,Distractor2.bmp,yellow,Distractor2.bmp,blue,Distractor2.bmp,purple,Distractor2.bmp,lime,Target2.bmp,,,,TrialProc,,TrainingTrialList,1,2,-999999,0,194334,0,2,1105,195439,Target2.bmp,lime,2,,,,6,2,32
KW_Experiment5A,32,1,"<?xml version=""1.0""?>\n<Clock xmlns:dt=""urn:schemas-microsoft-com:datatypes""><Description dt:dt=""string"">E-Prime Primary Realtime Clock</Description><StartTime><Timestamp dt:dt=""int"">0</Timestamp><DateUtc dt:dt=""string"">2018-10-18T19:45:59Z</DateUtc></StartTime><FrequencyChanges><FrequencyChange><Frequency dt:dt=""r8"">3215244</Frequency><Timestamp dt:dt=""r8"">7441218028106</Timestamp><Current dt:dt=""r8"">0</Current><DateUtc dt:dt=""string"">2018-10-18T19:45:59Z</DateUtc></FrequencyChange></FrequencyChanges></Clock>\n",KW_Experiment5A-32-1,59.944,1.0.0.105,1,-1959642652,Professional,2.0.10.353,2.0.10.353,10/18/2018,10/18/2018 19:45,15:45:59,2.0.10.248,2,2,1,2,,,,,,,,TrainingProc,BlockList,33,2,Distractor2.bmp,2,0,,0,1,196453,400,,0,0,purple,400,1,400,5,horizontal,purple,Distractor1.bmp,cyan,Distractor1.bmp,yellow,Distractor1.bmp,lime,Target2.bmp,blue,Distractor2.bmp,red,Distractor2.bmp,,,,TrialProc,,TrainingTrialList,1,2,-999999,0,196853,0,2,770,197623,Target2.bmp,lime,2,,,,4,2,33
KW_Experiment5A,32,1,"<?xml version=""1.0""?>\n<Clock xmlns:dt=""urn:schemas-microsoft-com:datatypes""><Description dt:dt=""string"">E-Prime Primary Realtime Clock</Description><StartTime><Timestamp dt:dt=""int"">0</Timestamp><DateUtc dt:dt=""string"">2018-10-18T19:45:59Z</DateUtc></StartTime><FrequencyChanges><FrequencyChange><Frequency dt:dt=""r8"">3215244</Frequency><Timestamp dt:dt=""r8"">7441218028106</Timestamp><Current dt:dt=""r8"">0</Current><DateUtc dt:dt=""string"">2018-10-18T19:45:59Z</DateUtc></FrequencyChange></FrequencyChanges></Clock>\n",KW_Experiment5A-32-1,59.944,1.0.0.105,1,-1959642652,Professional,2.0.10.353,2.0.10.353,10/18/2018,10/18/2018 19:45,15:45:59,2.0.10.248,2,2,1,2,,,,,,,,TrainingProc,BlockList,34,2,Distractor1.bmp,1,0,,0,1,198638,601,,0,0,purple,600,3,600,5,horizontal,purple,Distractor2.bmp,red,Distractor1.bmp,blue,Distractor2.bmp,lime,Target2.bmp,yellow,Distractor1.bmp,cyan,Distractor2.bmp,,,,TrialProc,,TrainingTrialList,1,2,-999999,1,199239,0,2,480,199719,Target2.bmp,lime,2,,,,4,2,34
KW_Experiment5A,32,1,"<?xml version=""1.0""?>\n<Clock xmlns:dt=""urn:schemas-microsoft-com:datatypes""><Description dt:dt=""string"">E-Prime Primary Realtime Clock</Description><StartTime><Timestamp dt:dt=""int"">0</Timestamp><DateUtc dt:dt=""string"">2018-10-18T19:45:59Z</DateUtc></StartTime><FrequencyChanges><FrequencyChange><Frequency dt:dt=""r8"">3215244</Frequency><Timestamp dt:dt=""r8"">7441218028106</Timestamp><Current dt:dt=""r8"">0</Current><DateUtc dt:dt=""string"">2018-10-18T19:45:59Z</DateUtc></FrequencyChange></FrequencyChanges></Clock>\n",KW_Experiment5A-32-1,59.944,1.0.0.105,1,-1959642652,Professional,2.0.10.353,2.0.10.353,10/18/2018,10/18/2018 19:45,15:45:59,2.0.10.248,2,2,1,2,,,,,,,,TrainingProc,BlockList,35,2,Distractor1.bmp,1,0,,0,1,200740,601,,0,0,blue,600,3,600,3,horizontal,blue,Distractor2.bmp,purple,Distractor1.bmp,red,Distractor2.bmp,yellow,Distractor2.bmp,lime,Target2.bmp,cyan,Distractor1.bmp,,,,TrialProc,,TrainingTrialList,1,2,-999999,1,201341,0,2,562,201903,Target2.bmp,lime,2,,,,5,2,35
KW_Experiment5A,32,1,"<?xml version=""1.0""?>\n<Clock xmlns:dt=""urn:schemas-microsoft-com:datatypes""><Description dt:dt=""string"">E-Prime Primary Realtime Clock</Description><StartTime><Timestamp dt:dt=""int"">0</Timestamp><DateUtc dt:dt=""string"">2018-10-18T19:45:59Z</DateUtc></StartTime><FrequencyChanges><FrequencyChange><Frequency dt:dt=""r8"">3215244</Frequency><Timestamp dt:dt=""r8"">7441218028106</Timestamp><Current dt:dt=""r8"">0</Current><DateUtc dt:dt=""string"">2018-10-18T19:45:59Z</DateUtc></FrequencyChange></FrequencyChanges></Clock>\n",KW_Experiment5A-32-1,59.944,1.0.0.105,1,-1959642652,Professional,2.0.10.353,2.0.10.353,10/18/2018,10/18/2018 19:45,15:45:59,2.0.10.248,2,2,1,2,,,,,,,,TrainingProc,BlockList,36,1,Distractor2.bmp,2,0,,0,0,202925,601,,0,0,cyan,600,3,600,4,vertical,cyan,Distractor1.bmp,blue,Distractor2.bmp,lime,Target1.bmp,yellow,Distractor2.bmp,purple,Distractor1.bmp,red,Distractor1.bmp,,,,TrialProc,,TrainingTrialList,1,1,-999999,1,203526,0,1,817,204343,Target1.bmp,lime,1,,,,3,2,36
KW_Experiment5A,32,1,"<?xml version=""1.0""?>\n<Clock xmlns:dt=""urn:schemas-microsoft-com:datatypes""><Description dt:dt=""string"">E-Prime Primary Realtime Clock</Description><StartTime><Timestamp dt:dt=""int"">0</Timestamp><DateUtc dt:dt=""string"">2018-10-18T19:45:59Z</DateUtc></StartTime><FrequencyChanges><FrequencyChange><Frequency dt:dt=""r8"">3215244</Frequency><Timestamp dt:dt=""r8"">7441218028106</Timestamp><Current dt:dt=""r8"">0</Current><DateUtc dt:dt=""string"">2018-10-18T19:45:59Z</DateUtc></FrequencyChange></FrequencyChanges></Clock>\n",KW_Experiment5A-32-1,59.944,1.0.0.105,1,-1959642652,Professional,2.0.10.353,2.0.10.353,10/18/2018,10/18/2018 19:45,15:45:59,2.0.10.248,2,2,1,2,,,,,,,,TrainingProc,BlockList,37,1,Distractor1.bmp,1,0,,0,1,205361,500,,0,0,blue,500,2,500,,vertical,blue,Distractor1.bmp,purple,Distractor2.bmp,cyan,Distractor1.bmp,yellow,Distractor2.bmp,lime,Distractor1.bmp,red,Target1.bmp,,,,TrialProc,3,TrainingTrialList,1,1,-999999,0,205861,0,1,1490,207351,Target1.bmp,red,1,,,,12,2,37
KW_Experiment5A,32,1,"<?xml version=""1.0""?>\n<Clock xmlns:dt=""urn:schemas-microsoft-com:datatypes""><Description dt:dt=""string"">E-Prime Primary Realtime Clock</Description><StartTime><Timestamp dt:dt=""int"">0</Timestamp><DateUtc dt:dt=""string"">2018-10-18T19:45:59Z</DateUtc></StartTime><FrequencyChanges><FrequencyChange><Frequency dt:dt=""r8"">3215244</Frequency><Timestamp dt:dt=""r8"">7441218028106</Timestamp><Current dt:dt=""r8"">0</Current><DateUtc dt:dt=""string"">2018-10-18T19:45:59Z</DateUtc></FrequencyChange></FrequencyChanges></Clock>\n",KW_Experiment5A-32-1,59.944,1.0.0.105,1,-1959642652,Professional,2.0.10.353,2.0.10.353,10/18/2018,10/18/2018 19:45,15:45:59,2.0.10.248,2,2,1,2,,,,,,,,TrainingProc,BlockList,38,1,Distractor1.bmp,1,0,,0,1,208364,600,,0,0,red,600,3,600,1,vertical,red,Distractor2.bmp,lime,Target1.bmp,purple,Distractor1.bmp,cyan,Distractor2.bmp,yellow,Distractor1.bmp,blue,Distractor1.bmp,,,,TrialProc,,TrainingTrialList,1,1,-999999,0,208964,0,1,627,209591,Target1.bmp,lime,1,,,,2,2,38
KW_Experiment5A,32,1,"<?xml version=""1.0""?>\n<Clock xmlns:dt=""urn:schemas-microsoft-com:datatypes""><Description dt:dt=""string"">E-Prime Primary Realtime Clock</Description><StartTime><Timestamp dt:dt=""int"">0</Timestamp><DateUtc dt:dt=""string"">2018-10-18T19:45:59Z</DateUtc></StartTime><FrequencyChanges><FrequencyChange><Frequency dt:dt=""r8"">3215244</Frequency><Timestamp dt:dt=""r8"">7441218028106</Timestamp><Current dt:dt=""r8"">0</Current><DateUtc dt:dt=""string"">2018-10-18T19:45:59Z</DateUtc></FrequencyChange></FrequencyChanges></Clock>\n",KW_Experiment5A-32-1,59.944,1.0.0.105,1,-1959642652,Professional,2.0.10.353,2.0.10.353,10/18/2018,10/18/2018 19:45,15:45:59,2.0.10.248,2,2,1,2,,,,,,,,TrainingProc,BlockList,39,1,Distractor1.bmp,1,0,,0,1,210616,500,,0,0,cyan,500,2,500,,vertical,cyan,Distractor2.bmp,red,Target1.bmp,lime,Distractor1.bmp,yellow,Distractor2.bmp,blue,Distractor1.bmp,purple,Distractor1.bmp,,,,TrialProc,4,TrainingTrialList,1,1,-999999,0,211116,0,1,603,211719,Target1.bmp,red,1,,,,8,2,39
KW_Experiment5A,32,1,"<?xml version=""1.0""?>\n<Clock xmlns:dt=""urn:schemas-microsoft-com:datatypes""><Description dt:dt=""string"">E-Prime Primary Realtime Clock</Description><StartTime><Timestamp dt:dt=""int"">0</Timestamp><DateUtc dt:dt=""string"">2018-10-18T19:45:59Z</DateUtc></StartTime><FrequencyChanges><FrequencyChange><Frequency dt:dt=""r8"">3215244</Frequency><Timestamp dt:dt=""r8"">7441218028106</Timestamp><Current dt:dt=""r8"">0</Current><DateUtc dt:dt=""string"">2018-10-18T19:45:59Z</DateUtc></FrequencyChange></FrequencyChanges></Clock>\n",KW_Experiment5A-32-1,59.944,1.0.0.105,1,-1959642652,Professional,2.0.10.353,2.0.10.353,10/18/2018,10/18/2018 19:45,15:45:59,2.0.10.248,2,2,1,2,,,,,,,,TrainingProc,BlockList,40,2,Distractor2.bmp,2,0,,1,1,212734,501,,0,0,yellow,500,2,500,2,horizontal,yellow,Distractor2.bmp,purple,Distractor2.bmp,lime,Target2.bmp,cyan,Distractor2.bmp,blue,Distractor1.bmp,red,Distractor1.bmp,,,,TrialProc,,TrainingTrialList,1,2,-999999,1,213235,0,2,588,213823,Target2.bmp,lime,2,,,,3,2,40
KW_Experiment5A,32,1,"<?xml version=""1.0""?>\n<Clock xmlns:dt=""urn:schemas-microsoft-com:datatypes""><Description dt:dt=""string"">E-Prime Primary Realtime Clock</Description><StartTime><Timestamp dt:dt=""int"">0</Timestamp><DateUtc dt:dt=""string"">2018-10-18T19:45:59Z</DateUtc></StartTime><FrequencyChanges><FrequencyChange><Frequency dt:dt=""r8"">3215244</Frequency><Timestamp dt:dt=""r8"">7441218028106</Timestamp><Current dt:dt=""r8"">0</Current><DateUtc dt:dt=""string"">2018-10-18T19:45:59Z</DateUtc></FrequencyChange></FrequencyChanges></Clock>\n",KW_Experiment5A-32-1,59.944,1.0.0.105,1,-1959642652,Professional,2.0.10.353,2.0.10.353,10/18/2018,10/18/2018 19:45,15:45:59,2.0.10.248,2,2,1,2,,,,,,,,TrainingProc,BlockList,41,2,Distractor2.bmp,2,0,,0,1,214836,401,,0,0,yellow,400,1,400,2,horizontal,lime,Target2.bmp,yellow,Distractor2.bmp,purple,Distractor1.bmp,blue,Distractor2.bmp,red,Distractor2.bmp,cyan,Distractor2.bmp,,,,TrialProc,,TrainingTrialList,1,2,-999999,1,215237,0,2,634,215871,Target2.bmp,lime,2,,,,1,2,41
KW_Experiment5A,32,1,"<?xml version=""1.0""?>\n<Clock xmlns:dt=""urn:schemas-microsoft-com:datatypes""><Description dt:dt=""string"">E-Prime Primary Realtime Clock</Description><StartTime><Timestamp dt:dt=""int"">0</Timestamp><DateUtc dt:dt=""string"">2018-10-18T19:45:59Z</DateUtc></StartTime><FrequencyChanges><FrequencyChange><Frequency dt:dt=""r8"">3215244</Frequency><Timestamp dt:dt=""r8"">7441218028106</Timestamp><Current dt:dt=""r8"">0</Current><DateUtc dt:dt=""string"">2018-10-18T19:45:59Z</DateUtc></FrequencyChange></FrequencyChanges></Clock>\n",KW_Experiment5A-32-1,59.944,1.0.0.105,1,-1959642652,Professional,2.0.10.353,2.0.10.353,10/18/2018,10/18/2018 19:45,15:45:59,2.0.10.248,2,2,1,2,,,,,,,,TrainingProc,BlockList,42,1,Distractor1.bmp,1,0,,0,1,216888,601,,0,0,yellow,600,3,600,,vertical,red,Target1.bmp,blue,Distractor1.bmp,purple,Distractor1.bmp,lime,Distractor2.bmp,cyan,Distractor2.bmp,yellow,Distractor1.bmp,,,,TrialProc,2,TrainingTrialList,1,1,-999999,1,217489,0,1,1430,218919,Target1.bmp,red,1,,,,7,2,42
KW_Experiment5A,32,1,"<?xml version=""1.0""?>\n<Clock xmlns:dt=""urn:schemas-microsoft-com:datatypes""><Description dt:dt=""string"">E-Prime Primary Realtime Clock</Description><StartTime><Timestamp dt:dt=""int"">0</Timestamp><DateUtc dt:dt=""string"">2018-10-18T19:45:59Z</DateUtc></StartTime><FrequencyChanges><FrequencyChange><Frequency dt:dt=""r8"">3215244</Frequency><Timestamp dt:dt=""r8"">7441218028106</Timestamp><Current dt:dt=""r8"">0</Current><DateUtc dt:dt=""string"">2018-10-18T19:45:59Z</DateUtc></FrequencyChange></FrequencyChanges></Clock>\n",KW_Experiment5A-32-1,59.944,1.0.0.105,1,-1959642652,Professional,2.0.10.353,2.0.10.353,10/18/2018,10/18/2018 19:45,15:45:59,2.0.10.248,2,2,1,2,,,,,,,,TrainingProc,BlockList,43,2,Distractor1.bmp,1,0,,0,1,219941,501,,0,0,cyan,500,2,500,4,horizontal,cyan,Distractor1.bmp,purple,Distractor2.bmp,red,Distractor1.bmp,blue,Distractor1.bmp,lime,Target2.bmp,yellow,Distractor1.bmp,,,,TrialProc,,TrainingTrialList,1,2,-999999,1,220442,0,2,773,221215,Target2.bmp,lime,2,,,,5,2,43
KW_Experiment5A,32,1,"<?xml version=""1.0""?>\n<Clock xmlns:dt=""urn:schemas-microsoft-com:datatypes""><Description dt:dt=""string"">E-Prime Primary Realtime Clock</Description><StartTime><Timestamp dt:dt=""int"">0</Timestamp><DateUtc dt:dt=""string"">2018-10-18T19:45:59Z</DateUtc></StartTime><FrequencyChanges><FrequencyChange><Frequency dt:dt=""r8"">3215244</Frequency><Timestamp dt:dt=""r8"">7441218028106</Timestamp><Current dt:dt=""r8"">0</Current><DateUtc dt:dt=""string"">2018-10-18T19:45:59Z</DateUtc></FrequencyChange></FrequencyChanges></Clock>\n",KW_Experiment5A-32-1,59.944,1.0.0.105,1,-1959642652,Professional,2.0.10.353,2.0.10.353,10/18/2018,10/18/2018 19:45,15:45:59,2.0.10.248,2,2,1,2,,,,,,,,TrainingProc,BlockList,44,2,Distractor2.bmp,2,0,,0,1,222227,600,,0,0,purple,600,3,600,5,horizontal,purple,Distractor2.bmp,blue,Distractor1.bmp,yellow,Distractor1.bmp,red,Distractor2.bmp,cyan,Distractor1.bmp,lime,Target2.bmp,,,,TrialProc,,TrainingTrialList,0,2,-999999,0,222827,0,1,644,223471,Target2.bmp,lime,2,,,,6,2,44
KW_Experiment5A,32,1,"<?xml version=""1.0""?>\n<Clock xmlns:dt=""urn:schemas-microsoft-com:datatypes""><Description dt:dt=""string"">E-Prime Primary Realtime Clock</Description><StartTime><Timestamp dt:dt=""int"">0</Timestamp><DateUtc dt:dt=""string"">2018-10-18T19:45:59Z</DateUtc></StartTime><FrequencyChanges><FrequencyChange><Frequency dt:dt=""r8"">3215244</Frequency><Timestamp dt:dt=""r8"">7441218028106</Timestamp><Current dt:dt=""r8"">0</Current><DateUtc dt:dt=""string"">2018-10-18T19:45:59Z</DateUtc></FrequencyChange></FrequencyChanges></Clock>\n",KW_Experiment5A-32-1,59.944,1.0.0.105,1,-1959642652,Professional,2.0.10.353,2.0.10.353,10/18/2018,10/18/2018 19:45,15:45:59,2.0.10.248,2,2,1,2,,,,,,,,TrainingProc,BlockList,45,1,Distractor1.bmp,1,0,,0,1,224495,601,,0,0,purple,600,3,600,5,vertical,lime,Target1.bmp,purple,Distractor1.bmp,cyan,Distractor1.bmp,red,Distractor2.bmp,blue,Distractor2.bmp,yellow,Distractor2.bmp,,,,TrialProc,,TrainingTrialList,1,1,-999999,1,225096,0,1,719,225815,Target1.bmp,lime,1,,,,1,2,45
KW_Experiment5A,32,1,"<?xml version=""1.0""?>\n<Clock xmlns:dt=""urn:schemas-microsoft-com:datatypes""><Description dt:dt=""string"">E-Prime Primary Realtime Clock</Description><StartTime><Timestamp dt:dt=""int"">0</Timestamp><DateUtc dt:dt=""string"">2018-10-18T19:45:59Z</DateUtc></StartTime><FrequencyChanges><FrequencyChange><Frequency dt:dt=""r8"">3215244</Frequency><Timestamp dt:dt=""r8"">7441218028106</Timestamp><Current dt:dt=""r8"">0</Current><DateUtc dt:dt=""string"">2018-10-18T19:45:59Z</DateUtc></FrequencyChange></FrequencyChanges></Clock>\n",KW_Experiment5A-32-1,59.944,1.0.0.105,1,-1959642652,Professional,2.0.10.353,2.0.10.353,10/18/2018,10/18/2018 19:45,15:45:59,2.0.10.248,2,2,1,2,,,,,,,,TrainingProc,BlockList,46,2,Distractor1.bmp,1,0,,0,1,226831,600,,0,0,purple,600,3,600,5,horizontal,lime,Target2.bmp,purple,Distractor1.bmp,yellow,Distractor1.bmp,blue,Distractor1.bmp,red,Distractor1.bmp,cyan,Distractor1.bmp,,,,TrialProc,,TrainingTrialList,0,2,-999999,0,227431,0,1,680,228111,Target2.bmp,lime,2,,,,1,2,46
KW_Experiment5A,32,1,"<?xml version=""1.0""?>\n<Clock xmlns:dt=""urn:schemas-microsoft-com:datatypes""><Description dt:dt=""string"">E-Prime Primary Realtime Clock</Description><StartTime><Timestamp dt:dt=""int"">0</Timestamp><DateUtc dt:dt=""string"">2018-10-18T19:45:59Z</DateUtc></StartTime><FrequencyChanges><FrequencyChange><Frequency dt:dt=""r8"">3215244</Frequency><Timestamp dt:dt=""r8"">7441218028106</Timestamp><Current dt:dt=""r8"">0</Current><DateUtc dt:dt=""string"">2018-10-18T19:45:59Z</DateUtc></FrequencyChange></FrequencyChanges></Clock>\n",KW_Experiment5A-32-1,59.944,1.0.0.105,1,-1959642652,Professional,2.0.10.353,2.0.10.353,10/18/2018,10/18/2018 19:45,15:45:59,2.0.10.248,2,2,1,2,,,,,,,,TrainingProc,BlockList,47,2,Distractor2.bmp,2,0,,0,1,229133,400,,0,0,red,400,1,400,1,horizontal,red,Distractor2.bmp,blue,Distractor1.bmp,cyan,Distractor1.bmp,purple,Distractor2.bmp,yellow,Distractor1.bmp,lime,Target2.bmp,,,,TrialProc,,TrainingTrialList,1,2,-999999,0,229533,0,2,698,230231,Target2.bmp,lime,2,,,,6,2,47
KW_Experiment5A,32,1,"<?xml version=""1.0""?>\n<Clock xmlns:dt=""urn:schemas-microsoft-com:datatypes""><Description dt:dt=""string"">E-Prime Primary Realtime Clock</Description><StartTime><Timestamp dt:dt=""int"">0</Timestamp><DateUtc dt:dt=""string"">2018-10-18T19:45:59Z</DateUtc></StartTime><FrequencyChanges><FrequencyChange><Frequency dt:dt=""r8"">3215244</Frequency><Timestamp dt:dt=""r8"">7441218028106</Timestamp><Current dt:dt=""r8"">0</Current><DateUtc dt:dt=""string"">2018-10-18T19:45:59Z</DateUtc></FrequencyChange></FrequencyChanges></Clock>\n",KW_Experiment5A-32-1,59.944,1.0.0.105,1,-1959642652,Professional,2.0.10.353,2.0.10.353,10/18/2018,10/18/2018 19:45,15:45:59,2.0.10.248,2,2,1,2,,,,,,,,TrainingProc,BlockList,48,1,Distractor2.bmp,2,0,,1,0,231251,601,,0,0,yellow,600,3,600,2,vertical,yellow,Distractor1.bmp,cyan,Distractor1.bmp,lime,Target1.bmp,blue,Distractor2.bmp,purple,Distractor1.bmp,red,Distractor1.bmp,,,,TrialProc,,TrainingTrialList,1,1,-999999,1,231852,0,1,723,232575,Target1.bmp,lime,1,,,,3,2,48
KW_Experiment5A,32,1,"<?xml version=""1.0""?>\n<Clock xmlns:dt=""urn:schemas-microsoft-com:datatypes""><Description dt:dt=""string"">E-Prime Primary Realtime Clock</Description><StartTime><Timestamp dt:dt=""int"">0</Timestamp><DateUtc dt:dt=""string"">2018-10-18T19:45:59Z</DateUtc></StartTime><FrequencyChanges><FrequencyChange><Frequency dt:dt=""r8"">3215244</Frequency><Timestamp dt:dt=""r8"">7441218028106</Timestamp><Current dt:dt=""r8"">0</Current><DateUtc dt:dt=""string"">2018-10-18T19:45:59Z</DateUtc></FrequencyChange></FrequencyChanges></Clock>\n",KW_Experiment5A-32-1,59.944,1.0.0.105,1,-1959642652,Professional,2.0.10.353,2.0.10.353,10/18/2018,10/18/2018 19:45,15:45:59,2.0.10.248,3,2,1,3,,,,,,,,TrainingProc,BlockList,1,2,Distractor1.bmp,1,0,,0,15,235822,401,,0,0,purple,400,1,400,5,horizontal,purple,Distractor1.bmp,cyan,Distractor2.bmp,red,Distractor1.bmp,blue,Distractor2.bmp,yellow,Distractor2.bmp,lime,Target2.bmp,,,,TrialProc,,TrainingTrialList,0,2,-999999,1,236223,0,1,792,237015,Target2.bmp,lime,2,,,,6,3,49
KW_Experiment5A,32,1,"<?xml version=""1.0""?>\n<Clock xmlns:dt=""urn:schemas-microsoft-com:datatypes""><Description dt:dt=""string"">E-Prime Primary Realtime Clock</Description><StartTime><Timestamp dt:dt=""int"">0</Timestamp><DateUtc dt:dt=""string"">2018-10-18T19:45:59Z</DateUtc></StartTime><FrequencyChanges><FrequencyChange><Frequency dt:dt=""r8"">3215244</Frequency><Timestamp dt:dt=""r8"">7441218028106</Timestamp><Current dt:dt=""r8"">0</Current><DateUtc dt:dt=""string"">2018-10-18T19:45:59Z</DateUtc></FrequencyChange></FrequencyChanges></Clock>\n",KW_Experiment5A-32-1,59.944,1.0.0.105,1,-1959642652,Professional,2.0.10.353,2.0.10.353,10/18/2018,10/18/2018 19:45,15:45:59,2.0.10.248,3,2,1,3,,,,,,,,TrainingProc,BlockList,2,1,Distractor1.bmp,1,0,,0,1,238041,501,,0,0,yellow,500,2,500,2,vertical,yellow,Distractor2.bmp,lime,Target1.bmp,blue,Distractor1.bmp,purple,Distractor1.bmp,cyan,Distractor1.bmp,red,Distractor2.bmp,,,,TrialProc,,TrainingTrialList,1,1,-999999,1,238542,0,1,801,239343,Target1.bmp,lime,1,,,,2,3,50
KW_Experiment5A,32,1,"<?xml version=""1.0""?>\n<Clock xmlns:dt=""urn:schemas-microsoft-com:datatypes""><Description dt:dt=""string"">E-Prime Primary Realtime Clock</Description><StartTime><Timestamp dt:dt=""int"">0</Timestamp><DateUtc dt:dt=""string"">2018-10-18T19:45:59Z</DateUtc></StartTime><FrequencyChanges><FrequencyChange><Frequency dt:dt=""r8"">3215244</Frequency><Timestamp dt:dt=""r8"">7441218028106</Timestamp><Current dt:dt=""r8"">0</Current><DateUtc dt:dt=""string"">2018-10-18T19:45:59Z</DateUtc></FrequencyChange></FrequencyChanges></Clock>\n",KW_Experiment5A-32-1,59.944,1.0.0.105,1,-1959642652,Professional,2.0.10.353,2.0.10.353,10/18/2018,10/18/2018 19:45,15:45:59,2.0.10.248,3,2,1,3,,,,,,,,TrainingProc,BlockList,3,1,Distractor1.bmp,1,0,,0,1,240360,500,,0,0,purple,500,2,500,,vertical,purple,Distractor1.bmp,lime,Distractor2.bmp,yellow,Distractor2.bmp,cyan,Distractor2.bmp,blue,Distractor1.bmp,red,Target1.bmp,,,,TrialProc,5,TrainingTrialList,1,1,-999999,0,240860,0,1,715,241575,Target1.bmp,red,1,,,,12,3,51
KW_Experiment5A,32,1,"<?xml version=""1.0""?>\n<Clock xmlns:dt=""urn:schemas-microsoft-com:datatypes""><Description dt:dt=""string"">E-Prime Primary Realtime Clock</Description><StartTime><Timestamp dt:dt=""int"">0</Timestamp><DateUtc dt:dt=""string"">2018-10-18T19:45:59Z</DateUtc></StartTime><FrequencyChanges><FrequencyChange><Frequency dt:dt=""r8"">3215244</Frequency><Timestamp dt:dt=""r8"">7441218028106</Timestamp><Current dt:dt=""r8"">0</Current><DateUtc dt:dt=""string"">2018-10-18T19:45:59Z</DateUtc></FrequencyChange></FrequencyChanges></Clock>\n",KW_Experiment5A-32-1,59.944,1.0.0.105,1,-1959642652,Professional,2.0.10.353,2.0.10.353,10/18/2018,10/18/2018 19:45,15:45:59,2.0.10.248,3,2,1,3,,,,,,,,TrainingProc,BlockList,4,2,Distractor1.bmp,1,0,,0,1,242595,401,,0,0,cyan,400,1,400,4,horizontal,cyan,Distractor2.bmp,red,Distractor2.bmp,lime,Target2.bmp,blue,Distractor1.bmp,yellow,Distractor2.bmp,purple,Distractor2.bmp,,,,TrialProc,,TrainingTrialList,1,2,-999999,1,242996,0,2,499,243495,Target2.bmp,lime,2,,,,3,3,52
KW_Experiment5A,32,1,"<?xml version=""1.0""?>\n<Clock xmlns:dt=""urn:schemas-microsoft-com:datatypes""><Description dt:dt=""string"">E-Prime Primary Realtime Clock</Description><StartTime><Timestamp dt:dt=""int"">0</Timestamp><DateUtc dt:dt=""string"">2018-10-18T19:45:59Z</DateUtc></StartTime><FrequencyChanges><FrequencyChange><Frequency dt:dt=""r8"">3215244</Frequency><Timestamp dt:dt=""r8"">7441218028106</Timestamp><Current dt:dt=""r8"">0</Current><DateUtc dt:dt=""string"">2018-10-18T19:45:59Z</DateUtc></FrequencyChange></FrequencyChanges></Clock>\n",KW_Experiment5A-32-1,59.944,1.0.0.105,1,-1959642652,Professional,2.0.10.353,2.0.10.353,10/18/2018,10/18/2018 19:45,15:45:59,2.0.10.248,3,2,1,3,,,,,,,,TrainingProc,BlockList,5,1,Distractor1.bmp,1,0,,0,1,244514,400,,0,0,red,400,1,400,1,vertical,red,Distractor2.bmp,lime,Target1.bmp,cyan,Distractor1.bmp,purple,Distractor1.bmp,yellow,Distractor1.bmp,blue,Distractor2.bmp,,,,TrialProc,,TrainingTrialList,1,1,-999999,0,244914,0,1,725,245639,Target1.bmp,lime,1,,,,2,3,53
KW_Experiment5A,32,1,"<?xml version=""1.0""?>\n<Clock xmlns:dt=""urn:schemas-microsoft-com:datatypes""><Description dt:dt=""string"">E-Prime Primary Realtime Clock</Description><StartTime><Timestamp dt:dt=""int"">0</Timestamp><DateUtc dt:dt=""string"">2018-10-18T19:45:59Z</DateUtc></StartTime><FrequencyChanges><FrequencyChange><Frequency dt:dt=""r8"">3215244</Frequency><Timestamp dt:dt=""r8"">7441218028106</Timestamp><Current dt:dt=""r8"">0</Current><DateUtc dt:dt=""string"">2018-10-18T19:45:59Z</DateUtc></FrequencyChange></FrequencyChanges></Clock>\n",KW_Experiment5A-32-1,59.944,1.0.0.105,1,-1959642652,Professional,2.0.10.353,2.0.10.353,10/18/2018,10/18/2018 19:45,15:45:59,2.0.10.248,3,2,1,3,,,,,,,,TrainingProc,BlockList,6,2,Distractor2.bmp,2,0,,0,1,246649,400,,0,0,blue,400,1,400,3,horizontal,blue,Distractor1.bmp,lime,Target2.bmp,purple,Distractor2.bmp,yellow,Distractor2.bmp,cyan,Distractor1.bmp,red,Distractor2.bmp,,,,TrialProc,,TrainingTrialList,1,2,-999999,0,247049,0,2,534,247583,Target2.bmp,lime,2,,,,2,3,54
KW_Experiment5A,32,1,"<?xml version=""1.0""?>\n<Clock xmlns:dt=""urn:schemas-microsoft-com:datatypes""><Description dt:dt=""string"">E-Prime Primary Realtime Clock</Description><StartTime><Timestamp dt:dt=""int"">0</Timestamp><DateUtc dt:dt=""string"">2018-10-18T19:45:59Z</DateUtc></StartTime><FrequencyChanges><FrequencyChange><Frequency dt:dt=""r8"">3215244</Frequency><Timestamp dt:dt=""r8"">7441218028106</Timestamp><Current dt:dt=""r8"">0</Current><DateUtc dt:dt=""string"">2018-10-18T19:45:59Z</DateUtc></FrequencyChange></FrequencyChanges></Clock>\n",KW_Experiment5A-32-1,59.944,1.0.0.105,1,-1959642652,Professional,2.0.10.353,2.0.10.353,10/18/2018,10/18/2018 19:45,15:45:59,2.0.10.248,3,2,1,3,,,,,,,,TrainingProc,BlockList,7,2,Distractor2.bmp,2,0,,0,1,248601,600,,0,0,yellow,600,3,600,,horizontal,red,Target2.bmp,purple,Distractor2.bmp,lime,Distractor1.bmp,blue,Distractor2.bmp,cyan,Distractor1.bmp,yellow,Distractor2.bmp,,,,TrialProc,2,TrainingTrialList,1,2,-999999,0,249201,0,2,718,249919,Target2.bmp,red,2,,,,7,3,55
KW_Experiment5A,32,1,"<?xml version=""1.0""?>\n<Clock xmlns:dt=""urn:schemas-microsoft-com:datatypes""><Description dt:dt=""string"">E-Prime Primary Realtime Clock</Description><StartTime><Timestamp dt:dt=""int"">0</Timestamp><DateUtc dt:dt=""string"">2018-10-18T19:45:59Z</DateUtc></StartTime><FrequencyChanges><FrequencyChange><Frequency dt:dt=""r8"">3215244</Frequency><Timestamp dt:dt=""r8"">7441218028106</Timestamp><Current dt:dt=""r8"">0</Current><DateUtc dt:dt=""string"">2018-10-18T19:45:59Z</DateUtc></FrequencyChange></FrequencyChanges></Clock>\n",KW_Experiment5A-32-1,59.944,1.0.0.105,1,-1959642652,Professional,2.0.10.353,2.0.10.353,10/18/2018,10/18/2018 19:45,15:45:59,2.0.10.248,3,2,1,3,,,,,,,,TrainingProc,BlockList,8,2,Distractor1.bmp,1,0,,0,1,250936,501,,0,0,red,500,2,500,1,horizontal,red,Distractor1.bmp,blue,Distractor1.bmp,cyan,Distractor1.bmp,yellow,Distractor1.bmp,lime,Target2.bmp,purple,Distractor1.bmp,,,,TrialProc,,TrainingTrialList,0,2,-999999,1,251437,0,1,490,251927,Target2.bmp,lime,2,,,,5,3,56
KW_Experiment5A,32,1,"<?xml version=""1.0""?>\n<Clock xmlns:dt=""urn:schemas-microsoft-com:datatypes""><Description dt:dt=""string"">E-Prime Primary Realtime Clock</Description><StartTime><Timestamp dt:dt=""int"">0</Timestamp><DateUtc dt:dt=""string"">2018-10-18T19:45:59Z</DateUtc></StartTime><FrequencyChanges><FrequencyChange><Frequency dt:dt=""r8"">3215244</Frequency><Timestamp dt:dt=""r8"">7441218028106</Timestamp><Current dt:dt=""r8"">0</Current><DateUtc dt:dt=""string"">2018-10-18T19:45:59Z</DateUtc></FrequencyChange></FrequencyChanges></Clock>\n",KW_Experiment5A-32-1,59.944,1.0.0.105,1,-1959642652,Professional,2.0.10.353,2.0.10.353,10/18/2018,10/18/2018 19:45,15:45:59,2.0.10.248,3,2,1,3,,,,,,,,TrainingProc,BlockList,9,1,Distractor1.bmp,1,0,,0,1,252938,401,,0,0,yellow,400,1,400,2,vertical,lime,Target1.bmp,yellow,Distractor1.bmp,cyan,Distractor2.bmp,purple,Distractor2.bmp,blue,Distractor2.bmp,red,Distractor2.bmp,,,,TrialProc,,TrainingTrialList,1,1,-999999,1,253339,0,1,604,253943,Target1.bmp,lime,1,,,,1,3,57
KW_Experiment5A,32,1,"<?xml version=""1.0""?>\n<Clock xmlns:dt=""urn:schemas-microsoft-com:datatypes""><Description dt:dt=""string"">E-Prime Primary Realtime Clock</Description><StartTime><Timestamp dt:dt=""int"">0</Timestamp><DateUtc dt:dt=""string"">2018-10-18T19:45:59Z</DateUtc></StartTime><FrequencyChanges><FrequencyChange><Frequency dt:dt=""r8"">3215244</Frequency><Timestamp dt:dt=""r8"">7441218028106</Timestamp><Current dt:dt=""r8"">0</Current><DateUtc dt:dt=""string"">2018-10-18T19:45:59Z</DateUtc></FrequencyChange></FrequencyChanges></Clock>\n",KW_Experiment5A-32-1,59.944,1.0.0.105,1,-1959642652,Professional,2.0.10.353,2.0.10.353,10/18/2018,10/18/2018 19:45,15:45:59,2.0.10.248,3,2,1,3,,,,,,,,TrainingProc,BlockList,10,1,Distractor2.bmp,2,0,,0,1,254957,400,,0,0,cyan,400,1,400,,vertical,cyan,Distractor1.bmp,purple,Distractor2.bmp,yellow,Distractor2.bmp,blue,Distractor1.bmp,red,Target1.bmp,lime,Distractor2.bmp,,,,TrialProc,4,TrainingTrialList,1,1,-999999,0,255357,0,1,826,256183,Target1.bmp,red,1,,,,11,3,58
KW_Experiment5A,32,1,"<?xml version=""1.0""?>\n<Clock xmlns:dt=""urn:schemas-microsoft-com:datatypes""><Description dt:dt=""string"">E-Prime Primary Realtime Clock</Description><StartTime><Timestamp dt:dt=""int"">0</Timestamp><DateUtc dt:dt=""string"">2018-10-18T19:45:59Z</DateUtc></StartTime><FrequencyChanges><FrequencyChange><Frequency dt:dt=""r8"">3215244</Frequency><Timestamp dt:dt=""r8"">7441218028106</Timestamp><Current dt:dt=""r8"">0</Current><DateUtc dt:dt=""string"">2018-10-18T19:45:59Z</DateUtc></FrequencyChange></FrequencyChanges></Clock>\n",KW_Experiment5A-32-1,59.944,1.0.0.105,1,-1959642652,Professional,2.0.10.353,2.0.10.353,10/18/2018,10/18/2018 19:45,15:45:59,2.0.10.248,3,2,1,3,,,,,,,,TrainingProc,BlockList,11,1,Distractor1.bmp,1,0,,0,1,257192,400,,0,0,blue,400,1,400,3,vertical,blue,Distractor1.bmp,yellow,Distractor1.bmp,red,Distractor2.bmp,lime,Target1.bmp,purple,Distractor1.bmp,cyan,Distractor2.bmp,,,,TrialProc,,TrainingTrialList,1,1,-999999,0,257592,0,1,655,258247,Target1.bmp,lime,1,,,,4,3,59
KW_Experiment5A,32,1,"<?xml version=""1.0""?>\n<Clock xmlns:dt=""urn:schemas-microsoft-com:datatypes""><Description dt:dt=""string"">E-Prime Primary Realtime Clock</Description><StartTime><Timestamp dt:dt=""int"">0</Timestamp><DateUtc dt:dt=""string"">2018-10-18T19:45:59Z</DateUtc></StartTime><FrequencyChanges><FrequencyChange><Frequency dt:dt=""r8"">3215244</Frequency><Timestamp dt:dt=""r8"">7441218028106</Timestamp><Current dt:dt=""r8"">0</Current><DateUtc dt:dt=""string"">2018-10-18T19:45:59Z</DateUtc></FrequencyChange></FrequencyChanges></Clock>\n",KW_Experiment5A-32-1,59.944,1.0.0.105,1,-1959642652,Professional,2.0.10.353,2.0.10.353,10/18/2018,10/18/2018 19:45,15:45:59,2.0.10.248,3,2,1,3,,,,,,,,TrainingProc,BlockList,12,1,Distractor2.bmp,2,0,,0,1,259261,500,,0,0,cyan,500,2,500,,vertical,cyan,Distractor2.bmp,purple,Distractor2.bmp,red,Target1.bmp,lime,Distractor2.bmp,blue,Distractor2.bmp,yellow,Distractor2.bmp,,,,TrialProc,4,TrainingTrialList,1,1,-999999,0,259761,0,1,630,260391,Target1.bmp,red,1,,,,9,3,60
KW_Experiment5A,32,1,"<?xml version=""1.0""?>\n<Clock xmlns:dt=""urn:schemas-microsoft-com:datatypes""><Description dt:dt=""string"">E-Prime Primary Realtime Clock</Description><StartTime><Timestamp dt:dt=""int"">0</Timestamp><DateUtc dt:dt=""string"">2018-10-18T19:45:59Z</DateUtc></StartTime><FrequencyChanges><FrequencyChange><Frequency dt:dt=""r8"">3215244</Frequency><Timestamp dt:dt=""r8"">7441218028106</Timestamp><Current dt:dt=""r8"">0</Current><DateUtc dt:dt=""string"">2018-10-18T19:45:59Z</DateUtc></FrequencyChange></FrequencyChanges></Clock>\n",KW_Experiment5A-32-1,59.944,1.0.0.105,1,-1959642652,Professional,2.0.10.353,2.0.10.353,10/18/2018,10/18/2018 19:45,15:45:59,2.0.10.248,3,2,1,3,,,,,,,,TrainingProc,BlockList,13,2,Distractor1.bmp,1,0,,0,1,261413,400,,0,0,purple,400,1,400,5,horizontal,purple,Distractor1.bmp,red,Distractor2.bmp,cyan,Distractor1.bmp,yellow,Distractor2.bmp,lime,Target2.bmp,blue,Distractor1.bmp,,,,TrialProc,,TrainingTrialList,1,2,-999999,0,261813,0,2,530,262343,Target2.bmp,lime,2,,,,5,3,61
KW_Experiment5A,32,1,"<?xml version=""1.0""?>\n<Clock xmlns:dt=""urn:schemas-microsoft-com:datatypes""><Description dt:dt=""string"">E-Prime Primary Realtime Clock</Description><StartTime><Timestamp dt:dt=""int"">0</Timestamp><DateUtc dt:dt=""string"">2018-10-18T19:45:59Z</DateUtc></StartTime><FrequencyChanges><FrequencyChange><Frequency dt:dt=""r8"">3215244</Frequency><Timestamp dt:dt=""r8"">7441218028106</Timestamp><Current dt:dt=""r8"">0</Current><DateUtc dt:dt=""string"">2018-10-18T19:45:59Z</DateUtc></FrequencyChange></FrequencyChanges></Clock>\n",KW_Experiment5A-32-1,59.944,1.0.0.105,1,-1959642652,Professional,2.0.10.353,2.0.10.353,10/18/2018,10/18/2018 19:45,15:45:59,2.0.10.248,3,2,1,3,,,,,,,,TrainingProc,BlockList,14,2,Distractor1.bmp,1,0,,1,0,263364,601,,0,0,yellow,600,3,600,,horizontal,yellow,Distractor1.bmp,red,Target2.bmp,lime,Distractor1.bmp,purple,Distractor2.bmp,blue,Distractor2.bmp,cyan,Distractor2.bmp,,,,TrialProc,2,TrainingTrialList,1,2,-999999,1,263965,0,2,666,264631,Target2.bmp,red,2,,,,8,3,62
KW_Experiment5A,32,1,"<?xml version=""1.0""?>\n<Clock xmlns:dt=""urn:schemas-microsoft-com:datatypes""><Description dt:dt=""string"">E-Prime Primary Realtime Clock</Description><StartTime><Timestamp dt:dt=""int"">0</Timestamp><DateUtc dt:dt=""string"">2018-10-18T19:45:59Z</DateUtc></StartTime><FrequencyChanges><FrequencyChange><Frequency dt:dt=""r8"">3215244</Frequency><Timestamp dt:dt=""r8"">7441218028106</Timestamp><Current dt:dt=""r8"">0</Current><DateUtc dt:dt=""string"">2018-10-18T19:45:59Z</DateUtc></FrequencyChange></FrequencyChanges></Clock>\n",KW_Experiment5A-32-1,59.944,1.0.0.105,1,-1959642652,Professional,2.0.10.353,2.0.10.353,10/18/2018,10/18/2018 19:45,15:45:59,2.0.10.248,3,2,1,3,,,,,,,,TrainingProc,BlockList,15,1,Distractor2.bmp,2,0,,0,1,265650,500,,0,0,cyan,500,2,500,4,vertical,cyan,Distractor1.bmp,yellow,Distractor1.bmp,blue,Distractor2.bmp,lime,Target1.bmp,purple,Distractor2.bmp,red,Distractor2.bmp,,,,TrialProc,,TrainingTrialList,1,1,-999999,0,266150,0,1,1113,267263,Target1.bmp,lime,1,,,,4,3,63
KW_Experiment5A,32,1,"<?xml version=""1.0""?>\n<Clock xmlns:dt=""urn:schemas-microsoft-com:datatypes""><Description dt:dt=""string"">E-Prime Primary Realtime Clock</Description><StartTime><Timestamp dt:dt=""int"">0</Timestamp><DateUtc dt:dt=""string"">2018-10-18T19:45:59Z</DateUtc></StartTime><FrequencyChanges><FrequencyChange><Frequency dt:dt=""r8"">3215244</Frequency><Timestamp dt:dt=""r8"">7441218028106</Timestamp><Current dt:dt=""r8"">0</Current><DateUtc dt:dt=""string"">2018-10-18T19:45:59Z</DateUtc></FrequencyChange></FrequencyChanges></Clock>\n",KW_Experiment5A-32-1,59.944,1.0.0.105,1,-1959642652,Professional,2.0.10.353,2.0.10.353,10/18/2018,10/18/2018 19:45,15:45:59,2.0.10.248,3,2,1,3,,,,,,,,TrainingProc,BlockList,16,2,Distractor1.bmp,1,0,,0,1,268286,400,,0,0,cyan,400,1,400,4,horizontal,cyan,Distractor1.bmp,purple,Distractor1.bmp,yellow,Distractor2.bmp,lime,Target2.bmp,red,Distractor1.bmp,blue,Distractor1.bmp,,,,TrialProc,,TrainingTrialList,1,2,-999999,0,268686,0,2,681,269367,Target2.bmp,lime,2,,,,4,3,64
KW_Experiment5A,32,1,"<?xml version=""1.0""?>\n<Clock xmlns:dt=""urn:schemas-microsoft-com:datatypes""><Description dt:dt=""string"">E-Prime Primary Realtime Clock</Description><StartTime><Timestamp dt:dt=""int"">0</Timestamp><DateUtc dt:dt=""string"">2018-10-18T19:45:59Z</DateUtc></StartTime><FrequencyChanges><FrequencyChange><Frequency dt:dt=""r8"">3215244</Frequency><Timestamp dt:dt=""r8"">7441218028106</Timestamp><Current dt:dt=""r8"">0</Current><DateUtc dt:dt=""string"">2018-10-18T19:45:59Z</DateUtc></FrequencyChange></FrequencyChanges></Clock>\n",KW_Experiment5A-32-1,59.944,1.0.0.105,1,-1959642652,Professional,2.0.10.353,2.0.10.353,10/18/2018,10/18/2018 19:45,15:45:59,2.0.10.248,3,2,1,3,,,,,,,,TrainingProc,BlockList,17,1,Distractor1.bmp,1,0,,0,1,270388,500,,0,0,red,500,2,500,1,vertical,red,Distractor1.bmp,yellow,Distractor1.bmp,lime,Target1.bmp,purple,Distractor1.bmp,blue,Distractor1.bmp,cyan,Distractor2.bmp,,,,TrialProc,,TrainingTrialList,1,1,-999999,0,270888,0,1,847,271735,Target1.bmp,lime,1,,,,3,3,65
KW_Experiment5A,32,1,"<?xml version=""1.0""?>\n<Clock xmlns:dt=""urn:schemas-microsoft-com:datatypes""><Description dt:dt=""string"">E-Prime Primary Realtime Clock</Description><StartTime><Timestamp dt:dt=""int"">0</Timestamp><DateUtc dt:dt=""string"">2018-10-18T19:45:59Z</DateUtc></StartTime><FrequencyChanges><FrequencyChange><Frequency dt:dt=""r8"">3215244</Frequency><Timestamp dt:dt=""r8"">7441218028106</Timestamp><Current dt:dt=""r8"">0</Current><DateUtc dt:dt=""string"">2018-10-18T19:45:59Z</DateUtc></FrequencyChange></FrequencyChanges></Clock>\n",KW_Experiment5A-32-1,59.944,1.0.0.105,1,-1959642652,Professional,2.0.10.353,2.0.10.353,10/18/2018,10/18/2018 19:45,15:45:59,2.0.10.248,3,2,1,3,,,,,,,,TrainingProc,BlockList,18,2,Distractor2.bmp,2,0,,1,0,272756,401,,0,0,purple,400,1,400,5,horizontal,lime,Target2.bmp,purple,Distractor2.bmp,red,Distractor2.bmp,blue,Distractor1.bmp,cyan,Distractor1.bmp,yellow,Distractor1.bmp,,,,TrialProc,,TrainingTrialList,1,2,-999999,1,273157,0,2,578,273735,Target2.bmp,lime,2,,,,1,3,66
KW_Experiment5A,32,1,"<?xml version=""1.0""?>\n<Clock xmlns:dt=""urn:schemas-microsoft-com:datatypes""><Description dt:dt=""string"">E-Prime Primary Realtime Clock</Description><StartTime><Timestamp dt:dt=""int"">0</Timestamp><DateUtc dt:dt=""string"">2018-10-18T19:45:59Z</DateUtc></StartTime><FrequencyChanges><FrequencyChange><Frequency dt:dt=""r8"">3215244</Frequency><Timestamp dt:dt=""r8"">7441218028106</Timestamp><Current dt:dt=""r8"">0</Current><DateUtc dt:dt=""string"">2018-10-18T19:45:59Z</DateUtc></FrequencyChange></FrequencyChanges></Clock>\n",KW_Experiment5A-32-1,59.944,1.0.0.105,1,-1959642652,Professional,2.0.10.353,2.0.10.353,10/18/2018,10/18/2018 19:45,15:45:59,2.0.10.248,3,2,1,3,,,,,,,,TrainingProc,BlockList,19,1,Distractor1.bmp,1,0,,0,1,274758,401,,0,0,cyan,400,1,400,4,vertical,cyan,Distractor1.bmp,purple,Distractor2.bmp,lime,Target1.bmp,yellow,Distractor1.bmp,blue,Distractor1.bmp,red,Distractor1.bmp,,,,TrialProc,,TrainingTrialList,1,1,-999999,1,275159,0,1,816,275975,Target1.bmp,lime,1,,,,3,3,67
KW_Experiment5A,32,1,"<?xml version=""1.0""?>\n<Clock xmlns:dt=""urn:schemas-microsoft-com:datatypes""><Description dt:dt=""string"">E-Prime Primary Realtime Clock</Description><StartTime><Timestamp dt:dt=""int"">0</Timestamp><DateUtc dt:dt=""string"">2018-10-18T19:45:59Z</DateUtc></StartTime><FrequencyChanges><FrequencyChange><Frequency dt:dt=""r8"">3215244</Frequency><Timestamp dt:dt=""r8"">7441218028106</Timestamp><Current dt:dt=""r8"">0</Current><DateUtc dt:dt=""string"">2018-10-18T19:45:59Z</DateUtc></FrequencyChange></FrequencyChanges></Clock>\n",KW_Experiment5A-32-1,59.944,1.0.0.105,1,-1959642652,Professional,2.0.10.353,2.0.10.353,10/18/2018,10/18/2018 19:45,15:45:59,2.0.10.248,3,2,1,3,,,,,,,,TrainingProc,BlockList,20,1,Distractor2.bmp,2,0,,0,1,276994,400,,0,0,purple,400,1,400,5,vertical,purple,Distractor2.bmp,red,Distractor1.bmp,yellow,Distractor1.bmp,cyan,Distractor1.bmp,blue,Distractor1.bmp,lime,Target1.bmp,,,,TrialProc,,TrainingTrialList,1,1,-999999,0,277394,0,1,613,278007,Target1.bmp,lime,1,,,,6,3,68
KW_Experiment5A,32,1,"<?xml version=""1.0""?>\n<Clock xmlns:dt=""urn:schemas-microsoft-com:datatypes""><Description dt:dt=""string"">E-Prime Primary Realtime Clock</Description><StartTime><Timestamp dt:dt=""int"">0</Timestamp><DateUtc dt:dt=""string"">2018-10-18T19:45:59Z</DateUtc></StartTime><FrequencyChanges><FrequencyChange><Frequency dt:dt=""r8"">3215244</Frequency><Timestamp dt:dt=""r8"">7441218028106</Timestamp><Current dt:dt=""r8"">0</Current><DateUtc dt:dt=""string"">2018-10-18T19:45:59Z</DateUtc></FrequencyChange></FrequencyChanges></Clock>\n",KW_Experiment5A-32-1,59.944,1.0.0.105,1,-1959642652,Professional,2.0.10.353,2.0.10.353,10/18/2018,10/18/2018 19:45,15:45:59,2.0.10.248,3,2,1,3,,,,,,,,TrainingProc,BlockList,21,1,Distractor1.bmp,1,0,,0,1,279029,400,,0,0,yellow,400,1,400,2,vertical,yellow,Distractor1.bmp,blue,Distractor2.bmp,red,Distractor1.bmp,purple,Distractor1.bmp,cyan,Distractor1.bmp,lime,Target1.bmp,,,,TrialProc,,TrainingTrialList,1,1,-999999,0,279429,0,1,602,280031,Target1.bmp,lime,1,,,,6,3,69
KW_Experiment5A,32,1,"<?xml version=""1.0""?>\n<Clock xmlns:dt=""urn:schemas-microsoft-com:datatypes""><Description dt:dt=""string"">E-Prime Primary Realtime Clock</Description><StartTime><Timestamp dt:dt=""int"">0</Timestamp><DateUtc dt:dt=""string"">2018-10-18T19:45:59Z</DateUtc></StartTime><FrequencyChanges><FrequencyChange><Frequency dt:dt=""r8"">3215244</Frequency><Timestamp dt:dt=""r8"">7441218028106</Timestamp><Current dt:dt=""r8"">0</Current><DateUtc dt:dt=""string"">2018-10-18T19:45:59Z</DateUtc></FrequencyChange></FrequencyChanges></Clock>\n",KW_Experiment5A-32-1,59.944,1.0.0.105,1,-1959642652,Professional,2.0.10.353,2.0.10.353,10/18/2018,10/18/2018 19:45,15:45:59,2.0.10.248,3,2,1,3,,,,,,,,TrainingProc,BlockList,22,2,Distractor2.bmp,2,0,,1,0,281047,501,,0,0,red,500,2,500,1,horizontal,lime,Target2.bmp,red,Distractor2.bmp,yellow,Distractor1.bmp,blue,Distractor2.bmp,cyan,Distractor1.bmp,purple,Distractor2.bmp,,,,TrialProc,,TrainingTrialList,1,2,-999999,1,281548,0,2,571,282119,Target2.bmp,lime,2,,,,1,3,70
KW_Experiment5A,32,1,"<?xml version=""1.0""?>\n<Clock xmlns:dt=""urn:schemas-microsoft-com:datatypes""><Description dt:dt=""string"">E-Prime Primary Realtime Clock</Description><StartTime><Timestamp dt:dt=""int"">0</Timestamp><DateUtc dt:dt=""string"">2018-10-18T19:45:59Z</DateUtc></StartTime><FrequencyChanges><FrequencyChange><Frequency dt:dt=""r8"">3215244</Frequency><Timestamp dt:dt=""r8"">7441218028106</Timestamp><Current dt:dt=""r8"">0</Current><DateUtc dt:dt=""string"">2018-10-18T19:45:59Z</DateUtc></FrequencyChange></FrequencyChanges></Clock>\n",KW_Experiment5A-32-1,59.944,1.0.0.105,1,-1959642652,Professional,2.0.10.353,2.0.10.353,10/18/2018,10/18/2018 19:45,15:45:59,2.0.10.248,3,2,1,3,,,,,,,,TrainingProc,BlockList,23,2,Distractor1.bmp,1,0,,0,1,283133,500,,0,0,yellow,500,2,500,2,horizontal,yellow,Distractor2.bmp,purple,Distractor2.bmp,red,Distractor2.bmp,blue,Distractor1.bmp,lime,Target2.bmp,cyan,Distractor1.bmp,,,,TrialProc,,TrainingTrialList,1,2,-999999,0,283633,0,2,582,284215,Target2.bmp,lime,2,,,,5,3,71
KW_Experiment5A,32,1,"<?xml version=""1.0""?>\n<Clock xmlns:dt=""urn:schemas-microsoft-com:datatypes""><Description dt:dt=""string"">E-Prime Primary Realtime Clock</Description><StartTime><Timestamp dt:dt=""int"">0</Timestamp><DateUtc dt:dt=""string"">2018-10-18T19:45:59Z</DateUtc></StartTime><FrequencyChanges><FrequencyChange><Frequency dt:dt=""r8"">3215244</Frequency><Timestamp dt:dt=""r8"">7441218028106</Timestamp><Current dt:dt=""r8"">0</Current><DateUtc dt:dt=""string"">2018-10-18T19:45:59Z</DateUtc></FrequencyChange></FrequencyChanges></Clock>\n",KW_Experiment5A-32-1,59.944,1.0.0.105,1,-1959642652,Professional,2.0.10.353,2.0.10.353,10/18/2018,10/18/2018 19:45,15:45:59,2.0.10.248,3,2,1,3,,,,,,,,TrainingProc,BlockList,24,1,Distractor1.bmp,1,0,,0,1,285235,400,,0,0,purple,400,1,400,,vertical,purple,Distractor2.bmp,blue,Distractor1.bmp,cyan,Distractor1.bmp,red,Target1.bmp,lime,Distractor1.bmp,yellow,Distractor2.bmp,,,,TrialProc,5,TrainingTrialList,1,1,-999999,0,285635,0,1,780,286415,Target1.bmp,red,1,,,,10,3,72
KW_Experiment5A,32,1,"<?xml version=""1.0""?>\n<Clock xmlns:dt=""urn:schemas-microsoft-com:datatypes""><Description dt:dt=""string"">E-Prime Primary Realtime Clock</Description><StartTime><Timestamp dt:dt=""int"">0</Timestamp><DateUtc dt:dt=""string"">2018-10-18T19:45:59Z</DateUtc></StartTime><FrequencyChanges><FrequencyChange><Frequency dt:dt=""r8"">3215244</Frequency><Timestamp dt:dt=""r8"">7441218028106</Timestamp><Current dt:dt=""r8"">0</Current><DateUtc dt:dt=""string"">2018-10-18T19:45:59Z</DateUtc></FrequencyChange></FrequencyChanges></Clock>\n",KW_Experiment5A-32-1,59.944,1.0.0.105,1,-1959642652,Professional,2.0.10.353,2.0.10.353,10/18/2018,10/18/2018 19:45,15:45:59,2.0.10.248,3,2,1,3,,,,,,,,TrainingProc,BlockList,25,1,Distractor2.bmp,2,0,,0,1,287437,500,,0,0,red,500,2,500,1,vertical,red,Distractor2.bmp,purple,Distractor2.bmp,blue,Distractor1.bmp,lime,Target1.bmp,yellow,Distractor2.bmp,cyan,Distractor1.bmp,,,,TrialProc,,TrainingTrialList,1,1,-999999,0,287937,0,1,622,288559,Target1.bmp,lime,1,,,,4,4,73
KW_Experiment5A,32,1,"<?xml version=""1.0""?>\n<Clock xmlns:dt=""urn:schemas-microsoft-com:datatypes""><Description dt:dt=""string"">E-Prime Primary Realtime Clock</Description><StartTime><Timestamp dt:dt=""int"">0</Timestamp><DateUtc dt:dt=""string"">2018-10-18T19:45:59Z</DateUtc></StartTime><FrequencyChanges><FrequencyChange><Frequency dt:dt=""r8"">3215244</Frequency><Timestamp dt:dt=""r8"">7441218028106</Timestamp><Current dt:dt=""r8"">0</Current><DateUtc dt:dt=""string"">2018-10-18T19:45:59Z</DateUtc></FrequencyChange></FrequencyChanges></Clock>\n",KW_Experiment5A-32-1,59.944,1.0.0.105,1,-1959642652,Professional,2.0.10.353,2.0.10.353,10/18/2018,10/18/2018 19:45,15:45:59,2.0.10.248,3,2,1,3,,,,,,,,TrainingProc,BlockList,26,2,Distractor2.bmp,2,0,,0,1,289572,500,,0,0,purple,500,2,500,5,horizontal,purple,Distractor1.bmp,lime,Target2.bmp,blue,Distractor2.bmp,yellow,Distractor2.bmp,red,Distractor1.bmp,cyan,Distractor2.bmp,,,,TrialProc,,TrainingTrialList,1,2,-999999,0,290072,0,2,487,290559,Target2.bmp,lime,2,,,,2,4,74
KW_Experiment5A,32,1,"<?xml version=""1.0""?>\n<Clock xmlns:dt=""urn:schemas-microsoft-com:datatypes""><Description dt:dt=""string"">E-Prime Primary Realtime Clock</Description><StartTime><Timestamp dt:dt=""int"">0</Timestamp><DateUtc dt:dt=""string"">2018-10-18T19:45:59Z</DateUtc></StartTime><FrequencyChanges><FrequencyChange><Frequency dt:dt=""r8"">3215244</Frequency><Timestamp dt:dt=""r8"">7441218028106</Timestamp><Current dt:dt=""r8"">0</Current><DateUtc dt:dt=""string"">2018-10-18T19:45:59Z</DateUtc></FrequencyChange></FrequencyChanges></Clock>\n",KW_Experiment5A-32-1,59.944,1.0.0.105,1,-1959642652,Professional,2.0.10.353,2.0.10.353,10/18/2018,10/18/2018 19:45,15:45:59,2.0.10.248,3,2,1,3,,,,,,,,TrainingProc,BlockList,27,1,Distractor2.bmp,2,0,,0,1,291574,400,,0,0,red,400,1,400,1,vertical,red,Distractor2.bmp,cyan,Distractor2.bmp,purple,Distractor1.bmp,blue,Distractor1.bmp,lime,Target1.bmp,yellow,Distractor2.bmp,,,,TrialProc,,TrainingTrialList,1,1,-999999,0,291974,0,1,600,292574,Target1.bmp,lime,1,,,,5,4,75
KW_Experiment5A,32,1,"<?xml version=""1.0""?>\n<Clock xmlns:dt=""urn:schemas-microsoft-com:datatypes""><Description dt:dt=""string"">E-Prime Primary Realtime Clock</Description><StartTime><Timestamp dt:dt=""int"">0</Timestamp><DateUtc dt:dt=""string"">2018-10-18T19:45:59Z</DateUtc></StartTime><FrequencyChanges><FrequencyChange><Frequency dt:dt=""r8"">3215244</Frequency><Timestamp dt:dt=""r8"">7441218028106</Timestamp><Current dt:dt=""r8"">0</Current><DateUtc dt:dt=""string"">2018-10-18T19:45:59Z</DateUtc></FrequencyChange></FrequencyChanges></Clock>\n",KW_Experiment5A-32-1,59.944,1.0.0.105,1,-1959642652,Professional,2.0.10.353,2.0.10.353,10/18/2018,10/18/2018 19:45,15:45:59,2.0.10.248,3,2,1,3,,,,,,,,TrainingProc,BlockList,28,1,Distractor2.bmp,2,0,,0,1,293592,401,,0,0,yellow,400,1,400,2,vertical,yellow,Distractor2.bmp,lime,Target1.bmp,cyan,Distractor2.bmp,purple,Distractor2.bmp,blue,Distractor2.bmp,red,Distractor1.bmp,,,,TrialProc,,TrainingTrialList,0,1,-999999,1,293993,0,2,525,294518,Target1.bmp,lime,1,,,,2,4,76
KW_Experiment5A,32,1,"<?xml version=""1.0""?>\n<Clock xmlns:dt=""urn:schemas-microsoft-com:datatypes""><Description dt:dt=""string"">E-Prime Primary Realtime Clock</Description><StartTime><Timestamp dt:dt=""int"">0</Timestamp><DateUtc dt:dt=""string"">2018-10-18T19:45:59Z</DateUtc></StartTime><FrequencyChanges><FrequencyChange><Frequency dt:dt=""r8"">3215244</Frequency><Timestamp dt:dt=""r8"">7441218028106</Timestamp><Current dt:dt=""r8"">0</Current><DateUtc dt:dt=""string"">2018-10-18T19:45:59Z</DateUtc></FrequencyChange></FrequencyChanges></Clock>\n",KW_Experiment5A-32-1,59.944,1.0.0.105,1,-1959642652,Professional,2.0.10.353,2.0.10.353,10/18/2018,10/18/2018 19:45,15:45:59,2.0.10.248,3,2,1,3,,,,,,,,TrainingProc,BlockList,29,2,Distractor2.bmp,2,0,,0,1,295544,401,,0,0,yellow,400,1,400,2,horizontal,lime,Target2.bmp,yellow,Distractor2.bmp,red,Distractor1.bmp,cyan,Distractor1.bmp,blue,Distractor2.bmp,purple,Distractor2.bmp,,,,TrialProc,,TrainingTrialList,1,2,-999999,1,295945,0,2,781,296726,Target2.bmp,lime,2,,,,1,4,77
KW_Experiment5A,32,1,"<?xml version=""1.0""?>\n<Clock xmlns:dt=""urn:schemas-microsoft-com:datatypes""><Description dt:dt=""string"">E-Prime Primary Realtime Clock</Description><StartTime><Timestamp dt:dt=""int"">0</Timestamp><DateUtc dt:dt=""string"">2018-10-18T19:45:59Z</DateUtc></StartTime><FrequencyChanges><FrequencyChange><Frequency dt:dt=""r8"">3215244</Frequency><Timestamp dt:dt=""r8"">7441218028106</Timestamp><Current dt:dt=""r8"">0</Current><DateUtc dt:dt=""string"">2018-10-18T19:45:59Z</DateUtc></FrequencyChange></FrequencyChanges></Clock>\n",KW_Experiment5A-32-1,59.944,1.0.0.105,1,-1959642652,Professional,2.0.10.353,2.0.10.353,10/18/2018,10/18/2018 19:45,15:45:59,2.0.10.248,3,2,1,3,,,,,,,,TrainingProc,BlockList,30,2,Distractor2.bmp,2,0,,0,1,297746,501,,0,0,yellow,500,2,500,2,horizontal,yellow,Distractor1.bmp,purple,Distractor1.bmp,red,Distractor1.bmp,lime,Target2.bmp,blue,Distractor2.bmp,cyan,Distractor2.bmp,,,,TrialProc,,TrainingTrialList,0,2,-999999,1,298247,0,1,559,298806,Target2.bmp,lime,2,,,,4,4,78
KW_Experiment5A,32,1,"<?xml version=""1.0""?>\n<Clock xmlns:dt=""urn:schemas-microsoft-com:datatypes""><Description dt:dt=""string"">E-Prime Primary Realtime Clock</Description><StartTime><Timestamp dt:dt=""int"">0</Timestamp><DateUtc dt:dt=""string"">2018-10-18T19:45:59Z</DateUtc></StartTime><FrequencyChanges><FrequencyChange><Frequency dt:dt=""r8"">3215244</Frequency><Timestamp dt:dt=""r8"">7441218028106</Timestamp><Current dt:dt=""r8"">0</Current><DateUtc dt:dt=""string"">2018-10-18T19:45:59Z</DateUtc></FrequencyChange></FrequencyChanges></Clock>\n",KW_Experiment5A-32-1,59.944,1.0.0.105,1,-1959642652,Professional,2.0.10.353,2.0.10.353,10/18/2018,10/18/2018 19:45,15:45:59,2.0.10.248,3,2,1,3,,,,,,,,TrainingProc,BlockList,31,2,Distractor2.bmp,2,0,,0,1,299831,401,,0,0,cyan,400,1,400,4,horizontal,cyan,Distractor1.bmp,yellow,Distractor1.bmp,lime,Target2.bmp,purple,Distractor2.bmp,blue,Distractor1.bmp,red,Distractor1.bmp,,,,TrialProc,,TrainingTrialList,1,2,-999999,1,300232,0,2,726,300958,Target2.bmp,lime,2,,,,3,4,79
KW_Experiment5A,32,1,"<?xml version=""1.0""?>\n<Clock xmlns:dt=""urn:schemas-microsoft-com:datatypes""><Description dt:dt=""string"">E-Prime Primary Realtime Clock</Description><StartTime><Timestamp dt:dt=""int"">0</Timestamp><DateUtc dt:dt=""string"">2018-10-18T19:45:59Z</DateUtc></StartTime><FrequencyChanges><FrequencyChange><Frequency dt:dt=""r8"">3215244</Frequency><Timestamp dt:dt=""r8"">7441218028106</Timestamp><Current dt:dt=""r8"">0</Current><DateUtc dt:dt=""string"">2018-10-18T19:45:59Z</DateUtc></FrequencyChange></FrequencyChanges></Clock>\n",KW_Experiment5A-32-1,59.944,1.0.0.105,1,-1959642652,Professional,2.0.10.353,2.0.10.353,10/18/2018,10/18/2018 19:45,15:45:59,2.0.10.248,3,2,1,3,,,,,,,,TrainingProc,BlockList,32,2,Distractor1.bmp,1,0,,0,1,301983,501,,0,0,cyan,500,2,500,4,horizontal,cyan,Distractor1.bmp,purple,Distractor2.bmp,lime,Target2.bmp,blue,Distractor1.bmp,red,Distractor2.bmp,yellow,Distractor2.bmp,,,,TrialProc,,TrainingTrialList,1,2,-999999,1,302484,0,2,490,302974,Target2.bmp,lime,2,,,,3,4,80
KW_Experiment5A,32,1,"<?xml version=""1.0""?>\n<Clock xmlns:dt=""urn:schemas-microsoft-com:datatypes""><Description dt:dt=""string"">E-Prime Primary Realtime Clock</Description><StartTime><Timestamp dt:dt=""int"">0</Timestamp><DateUtc dt:dt=""string"">2018-10-18T19:45:59Z</DateUtc></StartTime><FrequencyChanges><FrequencyChange><Frequency dt:dt=""r8"">3215244</Frequency><Timestamp dt:dt=""r8"">7441218028106</Timestamp><Current dt:dt=""r8"">0</Current><DateUtc dt:dt=""string"">2018-10-18T19:45:59Z</DateUtc></FrequencyChange></FrequencyChanges></Clock>\n",KW_Experiment5A-32-1,59.944,1.0.0.105,1,-1959642652,Professional,2.0.10.353,2.0.10.353,10/18/2018,10/18/2018 19:45,15:45:59,2.0.10.248,3,2,1,3,,,,,,,,TrainingProc,BlockList,33,2,Distractor1.bmp,1,0,,0,1,303985,501,,0,0,red,500,2,500,1,horizontal,red,Distractor1.bmp,blue,Distractor2.bmp,yellow,Distractor1.bmp,cyan,Distractor1.bmp,purple,Distractor1.bmp,lime,Target2.bmp,,,,TrialProc,,TrainingTrialList,1,2,-999999,1,304486,0,2,520,305006,Target2.bmp,lime,2,,,,6,4,81
KW_Experiment5A,32,1,"<?xml version=""1.0""?>\n<Clock xmlns:dt=""urn:schemas-microsoft-com:datatypes""><Description dt:dt=""string"">E-Prime Primary Realtime Clock</Description><StartTime><Timestamp dt:dt=""int"">0</Timestamp><DateUtc dt:dt=""string"">2018-10-18T19:45:59Z</DateUtc></StartTime><FrequencyChanges><FrequencyChange><Frequency dt:dt=""r8"">3215244</Frequency><Timestamp dt:dt=""r8"">7441218028106</Timestamp><Current dt:dt=""r8"">0</Current><DateUtc dt:dt=""string"">2018-10-18T19:45:59Z</DateUtc></FrequencyChange></FrequencyChanges></Clock>\n",KW_Experiment5A-32-1,59.944,1.0.0.105,1,-1959642652,Professional,2.0.10.353,2.0.10.353,10/18/2018,10/18/2018 19:45,15:45:59,2.0.10.248,3,2,1,3,,,,,,,,TrainingProc,BlockList,34,1,Distractor2.bmp,2,0,,1,0,306020,501,,0,0,red,500,2,500,1,vertical,red,Distractor2.bmp,yellow,Distractor2.bmp,blue,Distractor1.bmp,lime,Target1.bmp,purple,Distractor2.bmp,cyan,Distractor2.bmp,,,,TrialProc,,TrainingTrialList,1,1,-999999,1,306521,0,1,957,307478,Target1.bmp,lime,1,,,,4,4,82
KW_Experiment5A,32,1,"<?xml version=""1.0""?>\n<Clock xmlns:dt=""urn:schemas-microsoft-com:datatypes""><Description dt:dt=""string"">E-Prime Primary Realtime Clock</Description><StartTime><Timestamp dt:dt=""int"">0</Timestamp><DateUtc dt:dt=""string"">2018-10-18T19:45:59Z</DateUtc></StartTime><FrequencyChanges><FrequencyChange><Frequency dt:dt=""r8"">3215244</Frequency><Timestamp dt:dt=""r8"">7441218028106</Timestamp><Current dt:dt=""r8"">0</Current><DateUtc dt:dt=""string"">2018-10-18T19:45:59Z</DateUtc></FrequencyChange></FrequencyChanges></Clock>\n",KW_Experiment5A-32-1,59.944,1.0.0.105,1,-1959642652,Professional,2.0.10.353,2.0.10.353,10/18/2018,10/18/2018 19:45,15:45:59,2.0.10.248,3,2,1,3,,,,,,,,TrainingProc,BlockList,35,2,Distractor2.bmp,2,0,,0,1,308489,501,,0,0,yellow,500,2,500,2,horizontal,yellow,Distractor2.bmp,red,Distractor1.bmp,blue,Distractor2.bmp,purple,Distractor1.bmp,lime,Target2.bmp,cyan,Distractor2.bmp,,,,TrialProc,,TrainingTrialList,1,2,-999999,1,308990,0,2,608,309598,Target2.bmp,lime,2,,,,5,4,83
KW_Experiment5A,32,1,"<?xml version=""1.0""?>\n<Clock xmlns:dt=""urn:schemas-microsoft-com:datatypes""><Description dt:dt=""string"">E-Prime Primary Realtime Clock</Description><StartTime><Timestamp dt:dt=""int"">0</Timestamp><DateUtc dt:dt=""string"">2018-10-18T19:45:59Z</DateUtc></StartTime><FrequencyChanges><FrequencyChange><Frequency dt:dt=""r8"">3215244</Frequency><Timestamp dt:dt=""r8"">7441218028106</Timestamp><Current dt:dt=""r8"">0</Current><DateUtc dt:dt=""string"">2018-10-18T19:45:59Z</DateUtc></FrequencyChange></FrequencyChanges></Clock>\n",KW_Experiment5A-32-1,59.944,1.0.0.105,1,-1959642652,Professional,2.0.10.353,2.0.10.353,10/18/2018,10/18/2018 19:45,15:45:59,2.0.10.248,3,2,1,3,,,,,,,,TrainingProc,BlockList,36,1,Distractor1.bmp,1,0,,0,1,310608,500,,0,0,purple,500,2,500,5,vertical,purple,Distractor1.bmp,blue,Distractor2.bmp,red,Distractor2.bmp,yellow,Distractor2.bmp,cyan,Distractor2.bmp,lime,Target1.bmp,,,,TrialProc,,TrainingTrialList,1,1,-999999,0,311108,0,1,546,311654,Target1.bmp,lime,1,,,,6,4,84
KW_Experiment5A,32,1,"<?xml version=""1.0""?>\n<Clock xmlns:dt=""urn:schemas-microsoft-com:datatypes""><Description dt:dt=""string"">E-Prime Primary Realtime Clock</Description><StartTime><Timestamp dt:dt=""int"">0</Timestamp><DateUtc dt:dt=""string"">2018-10-18T19:45:59Z</DateUtc></StartTime><FrequencyChanges><FrequencyChange><Frequency dt:dt=""r8"">3215244</Frequency><Timestamp dt:dt=""r8"">7441218028106</Timestamp><Current dt:dt=""r8"">0</Current><DateUtc dt:dt=""string"">2018-10-18T19:45:59Z</DateUtc></FrequencyChange></FrequencyChanges></Clock>\n",KW_Experiment5A-32-1,59.944,1.0.0.105,1,-1959642652,Professional,2.0.10.353,2.0.10.353,10/18/2018,10/18/2018 19:45,15:45:59,2.0.10.248,3,2,1,3,,,,,,,,TrainingProc,BlockList,37,2,Distractor2.bmp,2,0,,0,1,312677,400,,0,0,purple,400,1,400,5,horizontal,purple,Distractor1.bmp,blue,Distractor2.bmp,lime,Target2.bmp,cyan,Distractor2.bmp,red,Distractor1.bmp,yellow,Distractor2.bmp,,,,TrialProc,,TrainingTrialList,1,2,-999999,0,313077,0,2,833,313910,Target2.bmp,lime,2,,,,3,4,85
KW_Experiment5A,32,1,"<?xml version=""1.0""?>\n<Clock xmlns:dt=""urn:schemas-microsoft-com:datatypes""><Description dt:dt=""string"">E-Prime Primary Realtime Clock</Description><StartTime><Timestamp dt:dt=""int"">0</Timestamp><DateUtc dt:dt=""string"">2018-10-18T19:45:59Z</DateUtc></StartTime><FrequencyChanges><FrequencyChange><Frequency dt:dt=""r8"">3215244</Frequency><Timestamp dt:dt=""r8"">7441218028106</Timestamp><Current dt:dt=""r8"">0</Current><DateUtc dt:dt=""string"">2018-10-18T19:45:59Z</DateUtc></FrequencyChange></FrequencyChanges></Clock>\n",KW_Experiment5A-32-1,59.944,1.0.0.105,1,-1959642652,Professional,2.0.10.353,2.0.10.353,10/18/2018,10/18/2018 19:45,15:45:59,2.0.10.248,3,2,1,3,,,,,,,,TrainingProc,BlockList,38,1,Distractor2.bmp,2,0,,0,1,314929,600,,0,0,blue,600,3,600,,vertical,blue,Distractor2.bmp,cyan,Distractor1.bmp,lime,Distractor2.bmp,red,Target1.bmp,purple,Distractor2.bmp,yellow,Distractor2.bmp,,,,TrialProc,3,TrainingTrialList,1,1,-999999,0,315529,0,1,709,316238,Target1.bmp,red,1,,,,10,4,86
KW_Experiment5A,32,1,"<?xml version=""1.0""?>\n<Clock xmlns:dt=""urn:schemas-microsoft-com:datatypes""><Description dt:dt=""string"">E-Prime Primary Realtime Clock</Description><StartTime><Timestamp dt:dt=""int"">0</Timestamp><DateUtc dt:dt=""string"">2018-10-18T19:45:59Z</DateUtc></StartTime><FrequencyChanges><FrequencyChange><Frequency dt:dt=""r8"">3215244</Frequency><Timestamp dt:dt=""r8"">7441218028106</Timestamp><Current dt:dt=""r8"">0</Current><DateUtc dt:dt=""string"">2018-10-18T19:45:59Z</DateUtc></FrequencyChange></FrequencyChanges></Clock>\n",KW_Experiment5A-32-1,59.944,1.0.0.105,1,-1959642652,Professional,2.0.10.353,2.0.10.353,10/18/2018,10/18/2018 19:45,15:45:59,2.0.10.248,3,2,1,3,,,,,,,,TrainingProc,BlockList,39,2,Distractor2.bmp,2,0,,1,0,317247,401,,0,0,lime,400,1,400,,horizontal,lime,Distractor2.bmp,red,Target2.bmp,blue,Distractor2.bmp,purple,Distractor1.bmp,yellow,Distractor1.bmp,cyan,Distractor2.bmp,,,,TrialProc,6,TrainingTrialList,1,2,-999999,1,317648,0,2,638,318286,Target2.bmp,red,2,,,,8,4,87
KW_Experiment5A,32,1,"<?xml version=""1.0""?>\n<Clock xmlns:dt=""urn:schemas-microsoft-com:datatypes""><Description dt:dt=""string"">E-Prime Primary Realtime Clock</Description><StartTime><Timestamp dt:dt=""int"">0</Timestamp><DateUtc dt:dt=""string"">2018-10-18T19:45:59Z</DateUtc></StartTime><FrequencyChanges><FrequencyChange><Frequency dt:dt=""r8"">3215244</Frequency><Timestamp dt:dt=""r8"">7441218028106</Timestamp><Current dt:dt=""r8"">0</Current><DateUtc dt:dt=""string"">2018-10-18T19:45:59Z</DateUtc></FrequencyChange></FrequencyChanges></Clock>\n",KW_Experiment5A-32-1,59.944,1.0.0.105,1,-1959642652,Professional,2.0.10.353,2.0.10.353,10/18/2018,10/18/2018 19:45,15:45:59,2.0.10.248,3,2,1,3,,,,,,,,TrainingProc,BlockList,40,2,Distractor1.bmp,1,0,,0,1,319299,501,,0,0,red,500,2,500,1,horizontal,red,Distractor1.bmp,cyan,Distractor1.bmp,yellow,Distractor1.bmp,blue,Distractor1.bmp,lime,Target2.bmp,purple,Distractor1.bmp,,,,TrialProc,,TrainingTrialList,1,2,-999999,1,319800,0,2,550,320350,Target2.bmp,lime,2,,,,5,4,88
KW_Experiment5A,32,1,"<?xml version=""1.0""?>\n<Clock xmlns:dt=""urn:schemas-microsoft-com:datatypes""><Description dt:dt=""string"">E-Prime Primary Realtime Clock</Description><StartTime><Timestamp dt:dt=""int"">0</Timestamp><DateUtc dt:dt=""string"">2018-10-18T19:45:59Z</DateUtc></StartTime><FrequencyChanges><FrequencyChange><Frequency dt:dt=""r8"">3215244</Frequency><Timestamp dt:dt=""r8"">7441218028106</Timestamp><Current dt:dt=""r8"">0</Current><DateUtc dt:dt=""string"">2018-10-18T19:45:59Z</DateUtc></FrequencyChange></FrequencyChanges></Clock>\n",KW_Experiment5A-32-1,59.944,1.0.0.105,1,-1959642652,Professional,2.0.10.353,2.0.10.353,10/18/2018,10/18/2018 19:45,15:45:59,2.0.10.248,3,2,1,3,,,,,,,,TrainingProc,BlockList,41,2,Distractor2.bmp,2,0,,0,1,321368,601,,0,0,yellow,600,3,600,2,horizontal,lime,Target2.bmp,yellow,Distractor2.bmp,purple,Distractor1.bmp,red,Distractor2.bmp,cyan,Distractor2.bmp,blue,Distractor1.bmp,,,,TrialProc,,TrainingTrialList,1,2,-999999,1,321969,0,2,541,322510,Target2.bmp,lime,2,,,,1,4,89
KW_Experiment5A,32,1,"<?xml version=""1.0""?>\n<Clock xmlns:dt=""urn:schemas-microsoft-com:datatypes""><Description dt:dt=""string"">E-Prime Primary Realtime Clock</Description><StartTime><Timestamp dt:dt=""int"">0</Timestamp><DateUtc dt:dt=""string"">2018-10-18T19:45:59Z</DateUtc></StartTime><FrequencyChanges><FrequencyChange><Frequency dt:dt=""r8"">3215244</Frequency><Timestamp dt:dt=""r8"">7441218028106</Timestamp><Current dt:dt=""r8"">0</Current><DateUtc dt:dt=""string"">2018-10-18T19:45:59Z</DateUtc></FrequencyChange></FrequencyChanges></Clock>\n",KW_Experiment5A-32-1,59.944,1.0.0.105,1,-1959642652,Professional,2.0.10.353,2.0.10.353,10/18/2018,10/18/2018 19:45,15:45:59,2.0.10.248,3,2,1,3,,,,,,,,TrainingProc,BlockList,42,1,Distractor2.bmp,2,0,,0,1,323520,400,,0,0,yellow,400,1,400,,vertical,yellow,Distractor1.bmp,purple,Distractor1.bmp,cyan,Distractor2.bmp,lime,Distractor1.bmp,red,Target1.bmp,blue,Distractor2.bmp,,,,TrialProc,2,TrainingTrialList,1,1,-999999,0,323920,0,1,478,324398,Target1.bmp,red,1,,,,11,4,90
