ExperimentName,Subject,Session,Clock.Information,DataFile.Basename,Display.RefreshRate,ExperimentVersion,Group,RandomSeed,RuntimeCapabilities,RuntimeVersion,RuntimeVersionExpected,SessionDate,SessionStartDateTimeUtc,SessionTime,StudioVersion,Block,BlockList,BlockList.Cycle,BlockList.Sample,PostTestQ1.RESP,PostTestQ1CJ.RESP,PostTestQ2.RESP,PostTestQ2CJ.RESP,PostTestQ3.RESP,PostTestQ3CJ.RESP,PostTestSlide.RESP,Procedure[Block],Running[Block],Trial,CorrectResponse,Distractor,DistractorList,Fixation.ACC,Fixation.CRESP,Fixation.DurationError,Fixation.OnsetDelay,Fixation.OnsetTime,Fixation.OnsetToOnsetTime,Fixation.RESP,Fixation.RT,Fixation.RTTime,ItemColor,Jitter,JitterList,JitterTime,Lime0List,Orientation,Pos1Color,Pos1Item,Pos2Color,Pos2Item,Pos3Color,Pos3Item,Pos4Color,Pos4Item,Pos5Color,Pos5Item,Pos6Color,Pos6Item,PracticeTrialList,PracticeTrialList.Cycle,PracticeTrialList.Sample,Procedure[Trial],Red0List,Running[Trial],Stimulus.ACC,Stimulus.CRESP,Stimulus.DurationError,Stimulus.OnsetDelay,Stimulus.OnsetTime,Stimulus.OnsetToOnsetTime,Stimulus.RESP,Stimulus.RT,Stimulus.RTTime,Target,TargetColor,TargetList,TestTrialList,TestTrialList.Cycle,TestTrialList.Sample,TrainingTrialList,TrainingTrialList.Cycle,TrainingTrialList.Sample
KW_Experiment5A,47,1,"<?xml version=""1.0""?>\n<Clock xmlns:dt=""urn:schemas-microsoft-com:datatypes""><Description dt:dt=""string"">E-Prime Primary Realtime Clock</Description><StartTime><Timestamp dt:dt=""int"">0</Timestamp><DateUtc dt:dt=""string"">2018-10-25T20:23:46Z</DateUtc></StartTime><FrequencyChanges><FrequencyChange><Frequency dt:dt=""r8"">3215292</Frequency><Timestamp dt:dt=""r8"">1614305785783</Timestamp><Current dt:dt=""r8"">0</Current><DateUtc dt:dt=""string"">2018-10-25T20:23:46Z</DateUtc></FrequencyChange></FrequencyChanges></Clock>\n",KW_Experiment5A-47-1,59.945,1.0.0.105,2,-601304168,Professional,2.0.10.353,2.0.10.353,10/25/2018,10/25/2018 20:23,16:23:46,2.0.10.248,1,1,1,1,,,,,,,,PracticeProc,BlockList,1,2,Distractor2.bmp,2,0,,0,35,126487,500,,0,0,cyan,500,2,500,4,horizontal,red,Distractor1.bmp,yellow,Distractor2.bmp,purple,Distractor1.bmp,cyan,Distractor1.bmp,lime,Target2.bmp,blue,Distractor2.bmp,5,1,1,TrialProc,,PracticeTrialList,1,2,-999999,0,126987,0,2,2313,129300,Target2.bmp,lime,2,,,,,,
KW_Experiment5A,47,1,"<?xml version=""1.0""?>\n<Clock xmlns:dt=""urn:schemas-microsoft-com:datatypes""><Description dt:dt=""string"">E-Prime Primary Realtime Clock</Description><StartTime><Timestamp dt:dt=""int"">0</Timestamp><DateUtc dt:dt=""string"">2018-10-25T20:23:46Z</DateUtc></StartTime><FrequencyChanges><FrequencyChange><Frequency dt:dt=""r8"">3215292</Frequency><Timestamp dt:dt=""r8"">1614305785783</Timestamp><Current dt:dt=""r8"">0</Current><DateUtc dt:dt=""string"">2018-10-25T20:23:46Z</DateUtc></FrequencyChange></FrequencyChanges></Clock>\n",KW_Experiment5A-47-1,59.945,1.0.0.105,2,-601304168,Professional,2.0.10.353,2.0.10.353,10/25/2018,10/25/2018 20:23,16:23:46,2.0.10.248,1,1,1,1,,,,,,,,PracticeProc,BlockList,2,1,Distractor1.bmp,1,0,,0,1,130324,500,,0,0,lime,500,2,500,,vertical,purple,Distractor1.bmp,cyan,Distractor2.bmp,yellow,Distractor2.bmp,blue,Distractor2.bmp,lime,Distractor1.bmp,red,Target1.bmp,6,1,2,TrialProc,6,PracticeTrialList,1,1,-999999,0,130824,0,1,1012,131836,Target1.bmp,red,1,,,,,,
KW_Experiment5A,47,1,"<?xml version=""1.0""?>\n<Clock xmlns:dt=""urn:schemas-microsoft-com:datatypes""><Description dt:dt=""string"">E-Prime Primary Realtime Clock</Description><StartTime><Timestamp dt:dt=""int"">0</Timestamp><DateUtc dt:dt=""string"">2018-10-25T20:23:46Z</DateUtc></StartTime><FrequencyChanges><FrequencyChange><Frequency dt:dt=""r8"">3215292</Frequency><Timestamp dt:dt=""r8"">1614305785783</Timestamp><Current dt:dt=""r8"">0</Current><DateUtc dt:dt=""string"">2018-10-25T20:23:46Z</DateUtc></FrequencyChange></FrequencyChanges></Clock>\n",KW_Experiment5A-47-1,59.945,1.0.0.105,2,-601304168,Professional,2.0.10.353,2.0.10.353,10/25/2018,10/25/2018 20:23,16:23:46,2.0.10.248,1,1,1,1,,,,,,,,PracticeProc,BlockList,3,1,Distractor2.bmp,2,0,,0,1,132859,601,,0,0,cyan,600,3,600,,vertical,cyan,Distractor2.bmp,red,Target1.bmp,purple,Distractor2.bmp,yellow,Distractor2.bmp,blue,Distractor2.bmp,lime,Distractor1.bmp,2,1,3,TrialProc,4,PracticeTrialList,0,1,-999999,1,133460,0,2,784,134244,Target1.bmp,red,1,,,,,,
KW_Experiment5A,47,1,"<?xml version=""1.0""?>\n<Clock xmlns:dt=""urn:schemas-microsoft-com:datatypes""><Description dt:dt=""string"">E-Prime Primary Realtime Clock</Description><StartTime><Timestamp dt:dt=""int"">0</Timestamp><DateUtc dt:dt=""string"">2018-10-25T20:23:46Z</DateUtc></StartTime><FrequencyChanges><FrequencyChange><Frequency dt:dt=""r8"">3215292</Frequency><Timestamp dt:dt=""r8"">1614305785783</Timestamp><Current dt:dt=""r8"">0</Current><DateUtc dt:dt=""string"">2018-10-25T20:23:46Z</DateUtc></FrequencyChange></FrequencyChanges></Clock>\n",KW_Experiment5A-47-1,59.945,1.0.0.105,2,-601304168,Professional,2.0.10.353,2.0.10.353,10/25/2018,10/25/2018 20:23,16:23:46,2.0.10.248,1,1,1,1,,,,,,,,PracticeProc,BlockList,4,1,Distractor2.bmp,2,0,,0,0,135261,501,,0,0,cyan,500,2,500,,vertical,lime,Distractor2.bmp,purple,Distractor1.bmp,cyan,Distractor1.bmp,red,Target1.bmp,yellow,Distractor2.bmp,blue,Distractor2.bmp,4,1,4,TrialProc,4,PracticeTrialList,1,1,-999999,1,135762,0,1,953,136715,Target1.bmp,red,1,,,,,,
KW_Experiment5A,47,1,"<?xml version=""1.0""?>\n<Clock xmlns:dt=""urn:schemas-microsoft-com:datatypes""><Description dt:dt=""string"">E-Prime Primary Realtime Clock</Description><StartTime><Timestamp dt:dt=""int"">0</Timestamp><DateUtc dt:dt=""string"">2018-10-25T20:23:46Z</DateUtc></StartTime><FrequencyChanges><FrequencyChange><Frequency dt:dt=""r8"">3215292</Frequency><Timestamp dt:dt=""r8"">1614305785783</Timestamp><Current dt:dt=""r8"">0</Current><DateUtc dt:dt=""string"">2018-10-25T20:23:46Z</DateUtc></FrequencyChange></FrequencyChanges></Clock>\n",KW_Experiment5A-47-1,59.945,1.0.0.105,2,-601304168,Professional,2.0.10.353,2.0.10.353,10/25/2018,10/25/2018 20:23,16:23:46,2.0.10.248,1,1,1,1,,,,,,,,PracticeProc,BlockList,5,1,Distractor2.bmp,2,0,,0,1,137730,601,,0,0,blue,600,3,600,3,vertical,lime,Target1.bmp,purple,Distractor2.bmp,cyan,Distractor1.bmp,yellow,Distractor2.bmp,red,Distractor1.bmp,blue,Distractor1.bmp,1,1,5,TrialProc,,PracticeTrialList,0,1,-999999,1,138331,0,2,880,139211,Target1.bmp,lime,1,,,,,,
KW_Experiment5A,47,1,"<?xml version=""1.0""?>\n<Clock xmlns:dt=""urn:schemas-microsoft-com:datatypes""><Description dt:dt=""string"">E-Prime Primary Realtime Clock</Description><StartTime><Timestamp dt:dt=""int"">0</Timestamp><DateUtc dt:dt=""string"">2018-10-25T20:23:46Z</DateUtc></StartTime><FrequencyChanges><FrequencyChange><Frequency dt:dt=""r8"">3215292</Frequency><Timestamp dt:dt=""r8"">1614305785783</Timestamp><Current dt:dt=""r8"">0</Current><DateUtc dt:dt=""string"">2018-10-25T20:23:46Z</DateUtc></FrequencyChange></FrequencyChanges></Clock>\n",KW_Experiment5A-47-1,59.945,1.0.0.105,2,-601304168,Professional,2.0.10.353,2.0.10.353,10/25/2018,10/25/2018 20:23,16:23:46,2.0.10.248,1,1,1,1,,,,,,,,PracticeProc,BlockList,6,2,Distractor1.bmp,1,0,,0,1,140233,500,,0,0,red,500,2,500,1,horizontal,yellow,Distractor1.bmp,red,Distractor1.bmp,lime,Target2.bmp,purple,Distractor1.bmp,blue,Distractor1.bmp,cyan,Distractor2.bmp,3,1,6,TrialProc,,PracticeTrialList,1,2,-999999,0,140733,0,2,2094,142827,Target2.bmp,lime,2,,,,,,
KW_Experiment5A,47,1,"<?xml version=""1.0""?>\n<Clock xmlns:dt=""urn:schemas-microsoft-com:datatypes""><Description dt:dt=""string"">E-Prime Primary Realtime Clock</Description><StartTime><Timestamp dt:dt=""int"">0</Timestamp><DateUtc dt:dt=""string"">2018-10-25T20:23:46Z</DateUtc></StartTime><FrequencyChanges><FrequencyChange><Frequency dt:dt=""r8"">3215292</Frequency><Timestamp dt:dt=""r8"">1614305785783</Timestamp><Current dt:dt=""r8"">0</Current><DateUtc dt:dt=""string"">2018-10-25T20:23:46Z</DateUtc></FrequencyChange></FrequencyChanges></Clock>\n",KW_Experiment5A-47-1,59.945,1.0.0.105,2,-601304168,Professional,2.0.10.353,2.0.10.353,10/25/2018,10/25/2018 20:23,16:23:46,2.0.10.248,2,2,1,2,,,,,,,,TrainingProc,BlockList,1,1,Distractor2.bmp,2,0,,0,35,157198,601,,0,0,purple,600,3,600,5,vertical,purple,Distractor2.bmp,blue,Distractor2.bmp,red,Distractor1.bmp,yellow,Distractor1.bmp,cyan,Distractor1.bmp,lime,Target1.bmp,,,,TrialProc,,TrainingTrialList,1,1,-999999,1,157799,0,1,1052,158851,Target1.bmp,lime,1,,,,6,2,1
KW_Experiment5A,47,1,"<?xml version=""1.0""?>\n<Clock xmlns:dt=""urn:schemas-microsoft-com:datatypes""><Description dt:dt=""string"">E-Prime Primary Realtime Clock</Description><StartTime><Timestamp dt:dt=""int"">0</Timestamp><DateUtc dt:dt=""string"">2018-10-25T20:23:46Z</DateUtc></StartTime><FrequencyChanges><FrequencyChange><Frequency dt:dt=""r8"">3215292</Frequency><Timestamp dt:dt=""r8"">1614305785783</Timestamp><Current dt:dt=""r8"">0</Current><DateUtc dt:dt=""string"">2018-10-25T20:23:46Z</DateUtc></FrequencyChange></FrequencyChanges></Clock>\n",KW_Experiment5A-47-1,59.945,1.0.0.105,2,-601304168,Professional,2.0.10.353,2.0.10.353,10/25/2018,10/25/2018 20:23,16:23:46,2.0.10.248,2,2,1,2,,,,,,,,TrainingProc,BlockList,2,2,Distractor2.bmp,2,0,,0,1,159867,601,,0,0,yellow,600,3,600,,horizontal,yellow,Distractor2.bmp,blue,Distractor1.bmp,purple,Distractor2.bmp,cyan,Distractor1.bmp,lime,Distractor2.bmp,red,Target2.bmp,,,,TrialProc,2,TrainingTrialList,1,2,-999999,1,160468,0,2,711,161179,Target2.bmp,red,2,,,,12,2,2
KW_Experiment5A,47,1,"<?xml version=""1.0""?>\n<Clock xmlns:dt=""urn:schemas-microsoft-com:datatypes""><Description dt:dt=""string"">E-Prime Primary Realtime Clock</Description><StartTime><Timestamp dt:dt=""int"">0</Timestamp><DateUtc dt:dt=""string"">2018-10-25T20:23:46Z</DateUtc></StartTime><FrequencyChanges><FrequencyChange><Frequency dt:dt=""r8"">3215292</Frequency><Timestamp dt:dt=""r8"">1614305785783</Timestamp><Current dt:dt=""r8"">0</Current><DateUtc dt:dt=""string"">2018-10-25T20:23:46Z</DateUtc></FrequencyChange></FrequencyChanges></Clock>\n",KW_Experiment5A-47-1,59.945,1.0.0.105,2,-601304168,Professional,2.0.10.353,2.0.10.353,10/25/2018,10/25/2018 20:23,16:23:46,2.0.10.248,2,2,1,2,,,,,,,,TrainingProc,BlockList,3,1,Distractor1.bmp,1,0,,1,0,162202,401,,0,0,blue,400,1,400,3,vertical,blue,Distractor1.bmp,yellow,Distractor2.bmp,lime,Target1.bmp,red,Distractor1.bmp,purple,Distractor1.bmp,cyan,Distractor2.bmp,,,,TrialProc,,TrainingTrialList,1,1,-999999,1,162603,0,1,720,163323,Target1.bmp,lime,1,,,,3,2,3
KW_Experiment5A,47,1,"<?xml version=""1.0""?>\n<Clock xmlns:dt=""urn:schemas-microsoft-com:datatypes""><Description dt:dt=""string"">E-Prime Primary Realtime Clock</Description><StartTime><Timestamp dt:dt=""int"">0</Timestamp><DateUtc dt:dt=""string"">2018-10-25T20:23:46Z</DateUtc></StartTime><FrequencyChanges><FrequencyChange><Frequency dt:dt=""r8"">3215292</Frequency><Timestamp dt:dt=""r8"">1614305785783</Timestamp><Current dt:dt=""r8"">0</Current><DateUtc dt:dt=""string"">2018-10-25T20:23:46Z</DateUtc></FrequencyChange></FrequencyChanges></Clock>\n",KW_Experiment5A-47-1,59.945,1.0.0.105,2,-601304168,Professional,2.0.10.353,2.0.10.353,10/25/2018,10/25/2018 20:23,16:23:46,2.0.10.248,2,2,1,2,,,,,,,,TrainingProc,BlockList,4,2,Distractor1.bmp,1,0,,0,1,164338,500,,0,0,yellow,500,2,500,,horizontal,yellow,Distractor1.bmp,blue,Distractor1.bmp,red,Target2.bmp,lime,Distractor1.bmp,cyan,Distractor2.bmp,purple,Distractor1.bmp,,,,TrialProc,2,TrainingTrialList,1,2,-999999,0,164838,0,2,557,165395,Target2.bmp,red,2,,,,9,2,4
KW_Experiment5A,47,1,"<?xml version=""1.0""?>\n<Clock xmlns:dt=""urn:schemas-microsoft-com:datatypes""><Description dt:dt=""string"">E-Prime Primary Realtime Clock</Description><StartTime><Timestamp dt:dt=""int"">0</Timestamp><DateUtc dt:dt=""string"">2018-10-25T20:23:46Z</DateUtc></StartTime><FrequencyChanges><FrequencyChange><Frequency dt:dt=""r8"">3215292</Frequency><Timestamp dt:dt=""r8"">1614305785783</Timestamp><Current dt:dt=""r8"">0</Current><DateUtc dt:dt=""string"">2018-10-25T20:23:46Z</DateUtc></FrequencyChange></FrequencyChanges></Clock>\n",KW_Experiment5A-47-1,59.945,1.0.0.105,2,-601304168,Professional,2.0.10.353,2.0.10.353,10/25/2018,10/25/2018 20:23,16:23:46,2.0.10.248,2,2,1,2,,,,,,,,TrainingProc,BlockList,5,2,Distractor1.bmp,1,0,,0,1,166406,501,,0,0,purple,500,2,500,,horizontal,purple,Distractor2.bmp,red,Target2.bmp,yellow,Distractor1.bmp,lime,Distractor2.bmp,cyan,Distractor2.bmp,blue,Distractor1.bmp,,,,TrialProc,5,TrainingTrialList,0,2,-999999,1,166907,0,1,552,167459,Target2.bmp,red,2,,,,8,2,5
KW_Experiment5A,47,1,"<?xml version=""1.0""?>\n<Clock xmlns:dt=""urn:schemas-microsoft-com:datatypes""><Description dt:dt=""string"">E-Prime Primary Realtime Clock</Description><StartTime><Timestamp dt:dt=""int"">0</Timestamp><DateUtc dt:dt=""string"">2018-10-25T20:23:46Z</DateUtc></StartTime><FrequencyChanges><FrequencyChange><Frequency dt:dt=""r8"">3215292</Frequency><Timestamp dt:dt=""r8"">1614305785783</Timestamp><Current dt:dt=""r8"">0</Current><DateUtc dt:dt=""string"">2018-10-25T20:23:46Z</DateUtc></FrequencyChange></FrequencyChanges></Clock>\n",KW_Experiment5A-47-1,59.945,1.0.0.105,2,-601304168,Professional,2.0.10.353,2.0.10.353,10/25/2018,10/25/2018 20:23,16:23:46,2.0.10.248,2,2,1,2,,,,,,,,TrainingProc,BlockList,6,1,Distractor1.bmp,1,0,,0,1,168475,400,,0,0,purple,400,1,400,,vertical,purple,Distractor1.bmp,blue,Distractor2.bmp,lime,Distractor1.bmp,red,Target1.bmp,cyan,Distractor1.bmp,yellow,Distractor2.bmp,,,,TrialProc,5,TrainingTrialList,1,1,-999999,0,168875,0,1,768,169643,Target1.bmp,red,1,,,,10,2,6
KW_Experiment5A,47,1,"<?xml version=""1.0""?>\n<Clock xmlns:dt=""urn:schemas-microsoft-com:datatypes""><Description dt:dt=""string"">E-Prime Primary Realtime Clock</Description><StartTime><Timestamp dt:dt=""int"">0</Timestamp><DateUtc dt:dt=""string"">2018-10-25T20:23:46Z</DateUtc></StartTime><FrequencyChanges><FrequencyChange><Frequency dt:dt=""r8"">3215292</Frequency><Timestamp dt:dt=""r8"">1614305785783</Timestamp><Current dt:dt=""r8"">0</Current><DateUtc dt:dt=""string"">2018-10-25T20:23:46Z</DateUtc></FrequencyChange></FrequencyChanges></Clock>\n",KW_Experiment5A-47-1,59.945,1.0.0.105,2,-601304168,Professional,2.0.10.353,2.0.10.353,10/25/2018,10/25/2018 20:23,16:23:46,2.0.10.248,2,2,1,2,,,,,,,,TrainingProc,BlockList,7,1,Distractor1.bmp,1,0,,0,1,170660,401,,0,0,yellow,400,1,400,,vertical,yellow,Distractor2.bmp,blue,Distractor1.bmp,red,Target1.bmp,purple,Distractor1.bmp,lime,Distractor1.bmp,cyan,Distractor1.bmp,,,,TrialProc,2,TrainingTrialList,1,1,-999999,1,171061,0,1,902,171963,Target1.bmp,red,1,,,,9,2,7
KW_Experiment5A,47,1,"<?xml version=""1.0""?>\n<Clock xmlns:dt=""urn:schemas-microsoft-com:datatypes""><Description dt:dt=""string"">E-Prime Primary Realtime Clock</Description><StartTime><Timestamp dt:dt=""int"">0</Timestamp><DateUtc dt:dt=""string"">2018-10-25T20:23:46Z</DateUtc></StartTime><FrequencyChanges><FrequencyChange><Frequency dt:dt=""r8"">3215292</Frequency><Timestamp dt:dt=""r8"">1614305785783</Timestamp><Current dt:dt=""r8"">0</Current><DateUtc dt:dt=""string"">2018-10-25T20:23:46Z</DateUtc></FrequencyChange></FrequencyChanges></Clock>\n",KW_Experiment5A-47-1,59.945,1.0.0.105,2,-601304168,Professional,2.0.10.353,2.0.10.353,10/25/2018,10/25/2018 20:23,16:23:46,2.0.10.248,2,2,1,2,,,,,,,,TrainingProc,BlockList,8,1,Distractor2.bmp,2,0,,0,1,172979,500,,0,0,purple,500,2,500,,vertical,purple,Distractor1.bmp,yellow,Distractor2.bmp,blue,Distractor2.bmp,lime,Distractor2.bmp,red,Target1.bmp,cyan,Distractor2.bmp,,,,TrialProc,5,TrainingTrialList,1,1,-999999,0,173479,0,1,812,174291,Target1.bmp,red,1,,,,11,2,8
KW_Experiment5A,47,1,"<?xml version=""1.0""?>\n<Clock xmlns:dt=""urn:schemas-microsoft-com:datatypes""><Description dt:dt=""string"">E-Prime Primary Realtime Clock</Description><StartTime><Timestamp dt:dt=""int"">0</Timestamp><DateUtc dt:dt=""string"">2018-10-25T20:23:46Z</DateUtc></StartTime><FrequencyChanges><FrequencyChange><Frequency dt:dt=""r8"">3215292</Frequency><Timestamp dt:dt=""r8"">1614305785783</Timestamp><Current dt:dt=""r8"">0</Current><DateUtc dt:dt=""string"">2018-10-25T20:23:46Z</DateUtc></FrequencyChange></FrequencyChanges></Clock>\n",KW_Experiment5A-47-1,59.945,1.0.0.105,2,-601304168,Professional,2.0.10.353,2.0.10.353,10/25/2018,10/25/2018 20:23,16:23:46,2.0.10.248,2,2,1,2,,,,,,,,TrainingProc,BlockList,9,1,Distractor1.bmp,1,0,,0,0,175314,401,,0,0,red,400,1,400,1,vertical,red,Distractor2.bmp,purple,Distractor2.bmp,cyan,Distractor2.bmp,blue,Distractor1.bmp,lime,Target1.bmp,yellow,Distractor1.bmp,,,,TrialProc,,TrainingTrialList,1,1,-999999,1,175715,0,1,711,176426,Target1.bmp,lime,1,,,,5,2,9
KW_Experiment5A,47,1,"<?xml version=""1.0""?>\n<Clock xmlns:dt=""urn:schemas-microsoft-com:datatypes""><Description dt:dt=""string"">E-Prime Primary Realtime Clock</Description><StartTime><Timestamp dt:dt=""int"">0</Timestamp><DateUtc dt:dt=""string"">2018-10-25T20:23:46Z</DateUtc></StartTime><FrequencyChanges><FrequencyChange><Frequency dt:dt=""r8"">3215292</Frequency><Timestamp dt:dt=""r8"">1614305785783</Timestamp><Current dt:dt=""r8"">0</Current><DateUtc dt:dt=""string"">2018-10-25T20:23:46Z</DateUtc></FrequencyChange></FrequencyChanges></Clock>\n",KW_Experiment5A-47-1,59.945,1.0.0.105,2,-601304168,Professional,2.0.10.353,2.0.10.353,10/25/2018,10/25/2018 20:23,16:23:46,2.0.10.248,2,2,1,2,,,,,,,,TrainingProc,BlockList,10,2,Distractor1.bmp,1,0,,0,1,177450,500,,0,0,cyan,500,2,500,,horizontal,red,Target2.bmp,blue,Distractor1.bmp,yellow,Distractor1.bmp,lime,Distractor1.bmp,purple,Distractor2.bmp,cyan,Distractor2.bmp,,,,TrialProc,4,TrainingTrialList,1,2,-999999,0,177950,0,2,692,178642,Target2.bmp,red,2,,,,7,2,10
KW_Experiment5A,47,1,"<?xml version=""1.0""?>\n<Clock xmlns:dt=""urn:schemas-microsoft-com:datatypes""><Description dt:dt=""string"">E-Prime Primary Realtime Clock</Description><StartTime><Timestamp dt:dt=""int"">0</Timestamp><DateUtc dt:dt=""string"">2018-10-25T20:23:46Z</DateUtc></StartTime><FrequencyChanges><FrequencyChange><Frequency dt:dt=""r8"">3215292</Frequency><Timestamp dt:dt=""r8"">1614305785783</Timestamp><Current dt:dt=""r8"">0</Current><DateUtc dt:dt=""string"">2018-10-25T20:23:46Z</DateUtc></FrequencyChange></FrequencyChanges></Clock>\n",KW_Experiment5A-47-1,59.945,1.0.0.105,2,-601304168,Professional,2.0.10.353,2.0.10.353,10/25/2018,10/25/2018 20:23,16:23:46,2.0.10.248,2,2,1,2,,,,,,,,TrainingProc,BlockList,11,1,Distractor1.bmp,1,0,,0,1,179652,400,,0,0,lime,400,1,400,,vertical,red,Target1.bmp,cyan,Distractor1.bmp,yellow,Distractor2.bmp,blue,Distractor1.bmp,purple,Distractor2.bmp,lime,Distractor1.bmp,,,,TrialProc,6,TrainingTrialList,0,1,-999999,0,180052,0,2,590,180642,Target1.bmp,red,1,,,,7,2,11
KW_Experiment5A,47,1,"<?xml version=""1.0""?>\n<Clock xmlns:dt=""urn:schemas-microsoft-com:datatypes""><Description dt:dt=""string"">E-Prime Primary Realtime Clock</Description><StartTime><Timestamp dt:dt=""int"">0</Timestamp><DateUtc dt:dt=""string"">2018-10-25T20:23:46Z</DateUtc></StartTime><FrequencyChanges><FrequencyChange><Frequency dt:dt=""r8"">3215292</Frequency><Timestamp dt:dt=""r8"">1614305785783</Timestamp><Current dt:dt=""r8"">0</Current><DateUtc dt:dt=""string"">2018-10-25T20:23:46Z</DateUtc></FrequencyChange></FrequencyChanges></Clock>\n",KW_Experiment5A-47-1,59.945,1.0.0.105,2,-601304168,Professional,2.0.10.353,2.0.10.353,10/25/2018,10/25/2018 20:23,16:23:46,2.0.10.248,2,2,1,2,,,,,,,,TrainingProc,BlockList,12,1,Distractor1.bmp,1,0,,0,1,181654,400,,0,0,yellow,400,1,400,,vertical,yellow,Distractor2.bmp,cyan,Distractor1.bmp,blue,Distractor1.bmp,red,Target1.bmp,lime,Distractor1.bmp,purple,Distractor2.bmp,,,,TrialProc,2,TrainingTrialList,1,1,-999999,0,182054,0,1,924,182978,Target1.bmp,red,1,,,,10,2,12
KW_Experiment5A,47,1,"<?xml version=""1.0""?>\n<Clock xmlns:dt=""urn:schemas-microsoft-com:datatypes""><Description dt:dt=""string"">E-Prime Primary Realtime Clock</Description><StartTime><Timestamp dt:dt=""int"">0</Timestamp><DateUtc dt:dt=""string"">2018-10-25T20:23:46Z</DateUtc></StartTime><FrequencyChanges><FrequencyChange><Frequency dt:dt=""r8"">3215292</Frequency><Timestamp dt:dt=""r8"">1614305785783</Timestamp><Current dt:dt=""r8"">0</Current><DateUtc dt:dt=""string"">2018-10-25T20:23:46Z</DateUtc></FrequencyChange></FrequencyChanges></Clock>\n",KW_Experiment5A-47-1,59.945,1.0.0.105,2,-601304168,Professional,2.0.10.353,2.0.10.353,10/25/2018,10/25/2018 20:23,16:23:46,2.0.10.248,2,2,1,2,,,,,,,,TrainingProc,BlockList,13,2,Distractor2.bmp,2,0,,0,1,183989,500,,0,0,cyan,500,2,500,4,horizontal,cyan,Distractor1.bmp,purple,Distractor2.bmp,yellow,Distractor2.bmp,lime,Target2.bmp,red,Distractor2.bmp,blue,Distractor1.bmp,,,,TrialProc,,TrainingTrialList,1,2,-999999,0,184489,0,2,761,185250,Target2.bmp,lime,2,,,,4,2,13
KW_Experiment5A,47,1,"<?xml version=""1.0""?>\n<Clock xmlns:dt=""urn:schemas-microsoft-com:datatypes""><Description dt:dt=""string"">E-Prime Primary Realtime Clock</Description><StartTime><Timestamp dt:dt=""int"">0</Timestamp><DateUtc dt:dt=""string"">2018-10-25T20:23:46Z</DateUtc></StartTime><FrequencyChanges><FrequencyChange><Frequency dt:dt=""r8"">3215292</Frequency><Timestamp dt:dt=""r8"">1614305785783</Timestamp><Current dt:dt=""r8"">0</Current><DateUtc dt:dt=""string"">2018-10-25T20:23:46Z</DateUtc></FrequencyChange></FrequencyChanges></Clock>\n",KW_Experiment5A-47-1,59.945,1.0.0.105,2,-601304168,Professional,2.0.10.353,2.0.10.353,10/25/2018,10/25/2018 20:23,16:23:46,2.0.10.248,2,2,1,2,,,,,,,,TrainingProc,BlockList,14,2,Distractor1.bmp,1,0,,0,1,186274,401,,0,0,yellow,400,1,400,,horizontal,yellow,Distractor1.bmp,cyan,Distractor1.bmp,blue,Distractor2.bmp,lime,Distractor2.bmp,purple,Distractor2.bmp,red,Target2.bmp,,,,TrialProc,2,TrainingTrialList,0,2,-999999,1,186675,0,1,735,187410,Target2.bmp,red,2,,,,12,2,14
KW_Experiment5A,47,1,"<?xml version=""1.0""?>\n<Clock xmlns:dt=""urn:schemas-microsoft-com:datatypes""><Description dt:dt=""string"">E-Prime Primary Realtime Clock</Description><StartTime><Timestamp dt:dt=""int"">0</Timestamp><DateUtc dt:dt=""string"">2018-10-25T20:23:46Z</DateUtc></StartTime><FrequencyChanges><FrequencyChange><Frequency dt:dt=""r8"">3215292</Frequency><Timestamp dt:dt=""r8"">1614305785783</Timestamp><Current dt:dt=""r8"">0</Current><DateUtc dt:dt=""string"">2018-10-25T20:23:46Z</DateUtc></FrequencyChange></FrequencyChanges></Clock>\n",KW_Experiment5A-47-1,59.945,1.0.0.105,2,-601304168,Professional,2.0.10.353,2.0.10.353,10/25/2018,10/25/2018 20:23,16:23:46,2.0.10.248,2,2,1,2,,,,,,,,TrainingProc,BlockList,15,1,Distractor2.bmp,2,0,,0,1,188426,401,,0,0,blue,400,1,400,,vertical,blue,Distractor2.bmp,cyan,Distractor1.bmp,yellow,Distractor2.bmp,purple,Distractor1.bmp,red,Target1.bmp,lime,Distractor2.bmp,,,,TrialProc,3,TrainingTrialList,1,1,-999999,1,188827,0,1,823,189650,Target1.bmp,red,1,,,,11,2,15
KW_Experiment5A,47,1,"<?xml version=""1.0""?>\n<Clock xmlns:dt=""urn:schemas-microsoft-com:datatypes""><Description dt:dt=""string"">E-Prime Primary Realtime Clock</Description><StartTime><Timestamp dt:dt=""int"">0</Timestamp><DateUtc dt:dt=""string"">2018-10-25T20:23:46Z</DateUtc></StartTime><FrequencyChanges><FrequencyChange><Frequency dt:dt=""r8"">3215292</Frequency><Timestamp dt:dt=""r8"">1614305785783</Timestamp><Current dt:dt=""r8"">0</Current><DateUtc dt:dt=""string"">2018-10-25T20:23:46Z</DateUtc></FrequencyChange></FrequencyChanges></Clock>\n",KW_Experiment5A-47-1,59.945,1.0.0.105,2,-601304168,Professional,2.0.10.353,2.0.10.353,10/25/2018,10/25/2018 20:23,16:23:46,2.0.10.248,2,2,1,2,,,,,,,,TrainingProc,BlockList,16,1,Distractor2.bmp,2,0,,0,1,190662,400,,0,0,yellow,400,1,400,,vertical,yellow,Distractor1.bmp,blue,Distractor1.bmp,purple,Distractor2.bmp,lime,Distractor1.bmp,red,Target1.bmp,cyan,Distractor2.bmp,,,,TrialProc,2,TrainingTrialList,1,1,-999999,0,191062,0,1,796,191858,Target1.bmp,red,1,,,,11,2,16
KW_Experiment5A,47,1,"<?xml version=""1.0""?>\n<Clock xmlns:dt=""urn:schemas-microsoft-com:datatypes""><Description dt:dt=""string"">E-Prime Primary Realtime Clock</Description><StartTime><Timestamp dt:dt=""int"">0</Timestamp><DateUtc dt:dt=""string"">2018-10-25T20:23:46Z</DateUtc></StartTime><FrequencyChanges><FrequencyChange><Frequency dt:dt=""r8"">3215292</Frequency><Timestamp dt:dt=""r8"">1614305785783</Timestamp><Current dt:dt=""r8"">0</Current><DateUtc dt:dt=""string"">2018-10-25T20:23:46Z</DateUtc></FrequencyChange></FrequencyChanges></Clock>\n",KW_Experiment5A-47-1,59.945,1.0.0.105,2,-601304168,Professional,2.0.10.353,2.0.10.353,10/25/2018,10/25/2018 20:23,16:23:46,2.0.10.248,2,2,1,2,,,,,,,,TrainingProc,BlockList,17,1,Distractor2.bmp,2,0,,0,1,192880,501,,0,0,red,500,2,500,1,vertical,lime,Target1.bmp,red,Distractor2.bmp,yellow,Distractor1.bmp,blue,Distractor2.bmp,purple,Distractor1.bmp,cyan,Distractor2.bmp,,,,TrialProc,,TrainingTrialList,1,1,-999999,1,193381,0,1,693,194074,Target1.bmp,lime,1,,,,1,2,17
KW_Experiment5A,47,1,"<?xml version=""1.0""?>\n<Clock xmlns:dt=""urn:schemas-microsoft-com:datatypes""><Description dt:dt=""string"">E-Prime Primary Realtime Clock</Description><StartTime><Timestamp dt:dt=""int"">0</Timestamp><DateUtc dt:dt=""string"">2018-10-25T20:23:46Z</DateUtc></StartTime><FrequencyChanges><FrequencyChange><Frequency dt:dt=""r8"">3215292</Frequency><Timestamp dt:dt=""r8"">1614305785783</Timestamp><Current dt:dt=""r8"">0</Current><DateUtc dt:dt=""string"">2018-10-25T20:23:46Z</DateUtc></FrequencyChange></FrequencyChanges></Clock>\n",KW_Experiment5A-47-1,59.945,1.0.0.105,2,-601304168,Professional,2.0.10.353,2.0.10.353,10/25/2018,10/25/2018 20:23,16:23:46,2.0.10.248,2,2,1,2,,,,,,,,TrainingProc,BlockList,18,2,Distractor2.bmp,2,0,,0,1,195099,400,,0,0,cyan,400,1,400,,horizontal,cyan,Distractor2.bmp,purple,Distractor2.bmp,yellow,Distractor1.bmp,blue,Distractor1.bmp,lime,Distractor1.bmp,red,Target2.bmp,,,,TrialProc,4,TrainingTrialList,1,2,-999999,0,195499,0,2,871,196370,Target2.bmp,red,2,,,,12,2,18
KW_Experiment5A,47,1,"<?xml version=""1.0""?>\n<Clock xmlns:dt=""urn:schemas-microsoft-com:datatypes""><Description dt:dt=""string"">E-Prime Primary Realtime Clock</Description><StartTime><Timestamp dt:dt=""int"">0</Timestamp><DateUtc dt:dt=""string"">2018-10-25T20:23:46Z</DateUtc></StartTime><FrequencyChanges><FrequencyChange><Frequency dt:dt=""r8"">3215292</Frequency><Timestamp dt:dt=""r8"">1614305785783</Timestamp><Current dt:dt=""r8"">0</Current><DateUtc dt:dt=""string"">2018-10-25T20:23:46Z</DateUtc></FrequencyChange></FrequencyChanges></Clock>\n",KW_Experiment5A-47-1,59.945,1.0.0.105,2,-601304168,Professional,2.0.10.353,2.0.10.353,10/25/2018,10/25/2018 20:23,16:23:46,2.0.10.248,2,2,1,2,,,,,,,,TrainingProc,BlockList,19,2,Distractor2.bmp,2,0,,1,1,197384,601,,0,0,yellow,600,3,600,,horizontal,yellow,Distractor1.bmp,blue,Distractor1.bmp,purple,Distractor2.bmp,red,Target2.bmp,cyan,Distractor2.bmp,lime,Distractor1.bmp,,,,TrialProc,2,TrainingTrialList,1,2,-999999,1,197985,0,2,849,198834,Target2.bmp,red,2,,,,10,2,19
KW_Experiment5A,47,1,"<?xml version=""1.0""?>\n<Clock xmlns:dt=""urn:schemas-microsoft-com:datatypes""><Description dt:dt=""string"">E-Prime Primary Realtime Clock</Description><StartTime><Timestamp dt:dt=""int"">0</Timestamp><DateUtc dt:dt=""string"">2018-10-25T20:23:46Z</DateUtc></StartTime><FrequencyChanges><FrequencyChange><Frequency dt:dt=""r8"">3215292</Frequency><Timestamp dt:dt=""r8"">1614305785783</Timestamp><Current dt:dt=""r8"">0</Current><DateUtc dt:dt=""string"">2018-10-25T20:23:46Z</DateUtc></FrequencyChange></FrequencyChanges></Clock>\n",KW_Experiment5A-47-1,59.945,1.0.0.105,2,-601304168,Professional,2.0.10.353,2.0.10.353,10/25/2018,10/25/2018 20:23,16:23:46,2.0.10.248,2,2,1,2,,,,,,,,TrainingProc,BlockList,20,1,Distractor1.bmp,1,0,,0,1,199853,601,,0,0,blue,600,3,600,,vertical,blue,Distractor1.bmp,red,Target1.bmp,lime,Distractor1.bmp,cyan,Distractor2.bmp,purple,Distractor1.bmp,yellow,Distractor2.bmp,,,,TrialProc,3,TrainingTrialList,1,1,-999999,1,200454,0,1,804,201258,Target1.bmp,red,1,,,,8,2,20
KW_Experiment5A,47,1,"<?xml version=""1.0""?>\n<Clock xmlns:dt=""urn:schemas-microsoft-com:datatypes""><Description dt:dt=""string"">E-Prime Primary Realtime Clock</Description><StartTime><Timestamp dt:dt=""int"">0</Timestamp><DateUtc dt:dt=""string"">2018-10-25T20:23:46Z</DateUtc></StartTime><FrequencyChanges><FrequencyChange><Frequency dt:dt=""r8"">3215292</Frequency><Timestamp dt:dt=""r8"">1614305785783</Timestamp><Current dt:dt=""r8"">0</Current><DateUtc dt:dt=""string"">2018-10-25T20:23:46Z</DateUtc></FrequencyChange></FrequencyChanges></Clock>\n",KW_Experiment5A-47-1,59.945,1.0.0.105,2,-601304168,Professional,2.0.10.353,2.0.10.353,10/25/2018,10/25/2018 20:23,16:23:46,2.0.10.248,2,2,1,2,,,,,,,,TrainingProc,BlockList,21,2,Distractor2.bmp,2,0,,0,1,202272,601,,0,0,yellow,600,3,600,2,horizontal,yellow,Distractor1.bmp,lime,Target2.bmp,red,Distractor2.bmp,cyan,Distractor1.bmp,purple,Distractor1.bmp,blue,Distractor1.bmp,,,,TrialProc,,TrainingTrialList,1,2,-999999,1,202873,0,2,761,203634,Target2.bmp,lime,2,,,,2,2,21
KW_Experiment5A,47,1,"<?xml version=""1.0""?>\n<Clock xmlns:dt=""urn:schemas-microsoft-com:datatypes""><Description dt:dt=""string"">E-Prime Primary Realtime Clock</Description><StartTime><Timestamp dt:dt=""int"">0</Timestamp><DateUtc dt:dt=""string"">2018-10-25T20:23:46Z</DateUtc></StartTime><FrequencyChanges><FrequencyChange><Frequency dt:dt=""r8"">3215292</Frequency><Timestamp dt:dt=""r8"">1614305785783</Timestamp><Current dt:dt=""r8"">0</Current><DateUtc dt:dt=""string"">2018-10-25T20:23:46Z</DateUtc></FrequencyChange></FrequencyChanges></Clock>\n",KW_Experiment5A-47-1,59.945,1.0.0.105,2,-601304168,Professional,2.0.10.353,2.0.10.353,10/25/2018,10/25/2018 20:23,16:23:46,2.0.10.248,2,2,1,2,,,,,,,,TrainingProc,BlockList,22,2,Distractor2.bmp,2,0,,0,1,204658,500,,0,0,yellow,500,2,500,,horizontal,red,Target2.bmp,cyan,Distractor2.bmp,lime,Distractor1.bmp,purple,Distractor2.bmp,blue,Distractor1.bmp,yellow,Distractor2.bmp,,,,TrialProc,2,TrainingTrialList,1,2,-999999,0,205158,0,2,716,205874,Target2.bmp,red,2,,,,7,2,22
KW_Experiment5A,47,1,"<?xml version=""1.0""?>\n<Clock xmlns:dt=""urn:schemas-microsoft-com:datatypes""><Description dt:dt=""string"">E-Prime Primary Realtime Clock</Description><StartTime><Timestamp dt:dt=""int"">0</Timestamp><DateUtc dt:dt=""string"">2018-10-25T20:23:46Z</DateUtc></StartTime><FrequencyChanges><FrequencyChange><Frequency dt:dt=""r8"">3215292</Frequency><Timestamp dt:dt=""r8"">1614305785783</Timestamp><Current dt:dt=""r8"">0</Current><DateUtc dt:dt=""string"">2018-10-25T20:23:46Z</DateUtc></FrequencyChange></FrequencyChanges></Clock>\n",KW_Experiment5A-47-1,59.945,1.0.0.105,2,-601304168,Professional,2.0.10.353,2.0.10.353,10/25/2018,10/25/2018 20:23,16:23:46,2.0.10.248,2,2,1,2,,,,,,,,TrainingProc,BlockList,23,1,Distractor1.bmp,1,0,,0,1,206893,501,,0,0,lime,500,2,500,,vertical,lime,Distractor1.bmp,yellow,Distractor2.bmp,red,Target1.bmp,purple,Distractor1.bmp,blue,Distractor1.bmp,cyan,Distractor1.bmp,,,,TrialProc,6,TrainingTrialList,1,1,-999999,1,207394,0,1,752,208146,Target1.bmp,red,1,,,,9,2,23
KW_Experiment5A,47,1,"<?xml version=""1.0""?>\n<Clock xmlns:dt=""urn:schemas-microsoft-com:datatypes""><Description dt:dt=""string"">E-Prime Primary Realtime Clock</Description><StartTime><Timestamp dt:dt=""int"">0</Timestamp><DateUtc dt:dt=""string"">2018-10-25T20:23:46Z</DateUtc></StartTime><FrequencyChanges><FrequencyChange><Frequency dt:dt=""r8"">3215292</Frequency><Timestamp dt:dt=""r8"">1614305785783</Timestamp><Current dt:dt=""r8"">0</Current><DateUtc dt:dt=""string"">2018-10-25T20:23:46Z</DateUtc></FrequencyChange></FrequencyChanges></Clock>\n",KW_Experiment5A-47-1,59.945,1.0.0.105,2,-601304168,Professional,2.0.10.353,2.0.10.353,10/25/2018,10/25/2018 20:23,16:23:46,2.0.10.248,2,2,1,2,,,,,,,,TrainingProc,BlockList,24,2,Distractor1.bmp,1,0,,0,1,209162,600,,0,0,cyan,600,3,600,,horizontal,cyan,Distractor1.bmp,red,Target2.bmp,purple,Distractor1.bmp,yellow,Distractor2.bmp,blue,Distractor2.bmp,lime,Distractor1.bmp,,,,TrialProc,4,TrainingTrialList,1,2,-999999,0,209762,0,2,528,210290,Target2.bmp,red,2,,,,8,2,24
KW_Experiment5A,47,1,"<?xml version=""1.0""?>\n<Clock xmlns:dt=""urn:schemas-microsoft-com:datatypes""><Description dt:dt=""string"">E-Prime Primary Realtime Clock</Description><StartTime><Timestamp dt:dt=""int"">0</Timestamp><DateUtc dt:dt=""string"">2018-10-25T20:23:46Z</DateUtc></StartTime><FrequencyChanges><FrequencyChange><Frequency dt:dt=""r8"">3215292</Frequency><Timestamp dt:dt=""r8"">1614305785783</Timestamp><Current dt:dt=""r8"">0</Current><DateUtc dt:dt=""string"">2018-10-25T20:23:46Z</DateUtc></FrequencyChange></FrequencyChanges></Clock>\n",KW_Experiment5A-47-1,59.945,1.0.0.105,2,-601304168,Professional,2.0.10.353,2.0.10.353,10/25/2018,10/25/2018 20:23,16:23:46,2.0.10.248,2,2,1,2,,,,,,,,TrainingProc,BlockList,25,1,Distractor2.bmp,2,0,,0,1,211314,500,,0,0,blue,500,2,500,,vertical,blue,Distractor1.bmp,lime,Distractor2.bmp,yellow,Distractor1.bmp,cyan,Distractor1.bmp,red,Target1.bmp,purple,Distractor2.bmp,,,,TrialProc,3,TrainingTrialList,1,1,-999999,0,211814,0,1,508,212322,Target1.bmp,red,1,,,,11,3,25
KW_Experiment5A,47,1,"<?xml version=""1.0""?>\n<Clock xmlns:dt=""urn:schemas-microsoft-com:datatypes""><Description dt:dt=""string"">E-Prime Primary Realtime Clock</Description><StartTime><Timestamp dt:dt=""int"">0</Timestamp><DateUtc dt:dt=""string"">2018-10-25T20:23:46Z</DateUtc></StartTime><FrequencyChanges><FrequencyChange><Frequency dt:dt=""r8"">3215292</Frequency><Timestamp dt:dt=""r8"">1614305785783</Timestamp><Current dt:dt=""r8"">0</Current><DateUtc dt:dt=""string"">2018-10-25T20:23:46Z</DateUtc></FrequencyChange></FrequencyChanges></Clock>\n",KW_Experiment5A-47-1,59.945,1.0.0.105,2,-601304168,Professional,2.0.10.353,2.0.10.353,10/25/2018,10/25/2018 20:23,16:23:46,2.0.10.248,2,2,1,2,,,,,,,,TrainingProc,BlockList,26,1,Distractor2.bmp,2,0,,0,1,213332,401,,0,0,yellow,400,1,400,2,vertical,lime,Target1.bmp,yellow,Distractor2.bmp,red,Distractor1.bmp,cyan,Distractor2.bmp,blue,Distractor1.bmp,purple,Distractor2.bmp,,,,TrialProc,,TrainingTrialList,0,1,-999999,1,213733,0,2,693,214426,Target1.bmp,lime,1,,,,1,3,26
KW_Experiment5A,47,1,"<?xml version=""1.0""?>\n<Clock xmlns:dt=""urn:schemas-microsoft-com:datatypes""><Description dt:dt=""string"">E-Prime Primary Realtime Clock</Description><StartTime><Timestamp dt:dt=""int"">0</Timestamp><DateUtc dt:dt=""string"">2018-10-25T20:23:46Z</DateUtc></StartTime><FrequencyChanges><FrequencyChange><Frequency dt:dt=""r8"">3215292</Frequency><Timestamp dt:dt=""r8"">1614305785783</Timestamp><Current dt:dt=""r8"">0</Current><DateUtc dt:dt=""string"">2018-10-25T20:23:46Z</DateUtc></FrequencyChange></FrequencyChanges></Clock>\n",KW_Experiment5A-47-1,59.945,1.0.0.105,2,-601304168,Professional,2.0.10.353,2.0.10.353,10/25/2018,10/25/2018 20:23,16:23:46,2.0.10.248,2,2,1,2,,,,,,,,TrainingProc,BlockList,27,2,Distractor2.bmp,2,0,,0,1,215451,500,,0,0,cyan,500,2,500,4,horizontal,cyan,Distractor1.bmp,lime,Target2.bmp,yellow,Distractor2.bmp,red,Distractor1.bmp,purple,Distractor1.bmp,blue,Distractor1.bmp,,,,TrialProc,,TrainingTrialList,0,2,-999999,0,215951,0,1,642,216593,Target2.bmp,lime,2,,,,2,3,27
KW_Experiment5A,47,1,"<?xml version=""1.0""?>\n<Clock xmlns:dt=""urn:schemas-microsoft-com:datatypes""><Description dt:dt=""string"">E-Prime Primary Realtime Clock</Description><StartTime><Timestamp dt:dt=""int"">0</Timestamp><DateUtc dt:dt=""string"">2018-10-25T20:23:46Z</DateUtc></StartTime><FrequencyChanges><FrequencyChange><Frequency dt:dt=""r8"">3215292</Frequency><Timestamp dt:dt=""r8"">1614305785783</Timestamp><Current dt:dt=""r8"">0</Current><DateUtc dt:dt=""string"">2018-10-25T20:23:46Z</DateUtc></FrequencyChange></FrequencyChanges></Clock>\n",KW_Experiment5A-47-1,59.945,1.0.0.105,2,-601304168,Professional,2.0.10.353,2.0.10.353,10/25/2018,10/25/2018 20:23,16:23:46,2.0.10.248,2,2,1,2,,,,,,,,TrainingProc,BlockList,28,1,Distractor1.bmp,1,0,,1,0,217619,401,,0,0,blue,400,1,400,,vertical,blue,Distractor2.bmp,red,Target1.bmp,yellow,Distractor1.bmp,lime,Distractor1.bmp,cyan,Distractor1.bmp,purple,Distractor1.bmp,,,,TrialProc,3,TrainingTrialList,1,1,-999999,1,218020,0,1,581,218601,Target1.bmp,red,1,,,,8,3,28
KW_Experiment5A,47,1,"<?xml version=""1.0""?>\n<Clock xmlns:dt=""urn:schemas-microsoft-com:datatypes""><Description dt:dt=""string"">E-Prime Primary Realtime Clock</Description><StartTime><Timestamp dt:dt=""int"">0</Timestamp><DateUtc dt:dt=""string"">2018-10-25T20:23:46Z</DateUtc></StartTime><FrequencyChanges><FrequencyChange><Frequency dt:dt=""r8"">3215292</Frequency><Timestamp dt:dt=""r8"">1614305785783</Timestamp><Current dt:dt=""r8"">0</Current><DateUtc dt:dt=""string"">2018-10-25T20:23:46Z</DateUtc></FrequencyChange></FrequencyChanges></Clock>\n",KW_Experiment5A-47-1,59.945,1.0.0.105,2,-601304168,Professional,2.0.10.353,2.0.10.353,10/25/2018,10/25/2018 20:23,16:23:46,2.0.10.248,2,2,1,2,,,,,,,,TrainingProc,BlockList,29,2,Distractor2.bmp,2,0,,0,1,219621,401,,0,0,lime,400,1,400,,horizontal,lime,Distractor2.bmp,purple,Distractor2.bmp,yellow,Distractor2.bmp,blue,Distractor2.bmp,cyan,Distractor2.bmp,red,Target2.bmp,,,,TrialProc,6,TrainingTrialList,1,2,-999999,1,220022,0,2,1067,221089,Target2.bmp,red,2,,,,12,3,29
KW_Experiment5A,47,1,"<?xml version=""1.0""?>\n<Clock xmlns:dt=""urn:schemas-microsoft-com:datatypes""><Description dt:dt=""string"">E-Prime Primary Realtime Clock</Description><StartTime><Timestamp dt:dt=""int"">0</Timestamp><DateUtc dt:dt=""string"">2018-10-25T20:23:46Z</DateUtc></StartTime><FrequencyChanges><FrequencyChange><Frequency dt:dt=""r8"">3215292</Frequency><Timestamp dt:dt=""r8"">1614305785783</Timestamp><Current dt:dt=""r8"">0</Current><DateUtc dt:dt=""string"">2018-10-25T20:23:46Z</DateUtc></FrequencyChange></FrequencyChanges></Clock>\n",KW_Experiment5A-47-1,59.945,1.0.0.105,2,-601304168,Professional,2.0.10.353,2.0.10.353,10/25/2018,10/25/2018 20:23,16:23:46,2.0.10.248,2,2,1,2,,,,,,,,TrainingProc,BlockList,30,1,Distractor1.bmp,1,0,,0,1,222107,500,,0,0,lime,500,2,500,,vertical,lime,Distractor1.bmp,cyan,Distractor2.bmp,blue,Distractor1.bmp,red,Target1.bmp,purple,Distractor1.bmp,yellow,Distractor2.bmp,,,,TrialProc,6,TrainingTrialList,1,1,-999999,0,222607,0,1,690,223297,Target1.bmp,red,1,,,,10,3,30
KW_Experiment5A,47,1,"<?xml version=""1.0""?>\n<Clock xmlns:dt=""urn:schemas-microsoft-com:datatypes""><Description dt:dt=""string"">E-Prime Primary Realtime Clock</Description><StartTime><Timestamp dt:dt=""int"">0</Timestamp><DateUtc dt:dt=""string"">2018-10-25T20:23:46Z</DateUtc></StartTime><FrequencyChanges><FrequencyChange><Frequency dt:dt=""r8"">3215292</Frequency><Timestamp dt:dt=""r8"">1614305785783</Timestamp><Current dt:dt=""r8"">0</Current><DateUtc dt:dt=""string"">2018-10-25T20:23:46Z</DateUtc></FrequencyChange></FrequencyChanges></Clock>\n",KW_Experiment5A-47-1,59.945,1.0.0.105,2,-601304168,Professional,2.0.10.353,2.0.10.353,10/25/2018,10/25/2018 20:23,16:23:46,2.0.10.248,2,2,1,2,,,,,,,,TrainingProc,BlockList,31,2,Distractor2.bmp,2,0,,0,1,224309,400,,0,0,cyan,400,1,400,,horizontal,cyan,Distractor2.bmp,lime,Distractor2.bmp,blue,Distractor1.bmp,purple,Distractor2.bmp,yellow,Distractor2.bmp,red,Target2.bmp,,,,TrialProc,4,TrainingTrialList,1,2,-999999,0,224709,0,2,860,225569,Target2.bmp,red,2,,,,12,3,31
KW_Experiment5A,47,1,"<?xml version=""1.0""?>\n<Clock xmlns:dt=""urn:schemas-microsoft-com:datatypes""><Description dt:dt=""string"">E-Prime Primary Realtime Clock</Description><StartTime><Timestamp dt:dt=""int"">0</Timestamp><DateUtc dt:dt=""string"">2018-10-25T20:23:46Z</DateUtc></StartTime><FrequencyChanges><FrequencyChange><Frequency dt:dt=""r8"">3215292</Frequency><Timestamp dt:dt=""r8"">1614305785783</Timestamp><Current dt:dt=""r8"">0</Current><DateUtc dt:dt=""string"">2018-10-25T20:23:46Z</DateUtc></FrequencyChange></FrequencyChanges></Clock>\n",KW_Experiment5A-47-1,59.945,1.0.0.105,2,-601304168,Professional,2.0.10.353,2.0.10.353,10/25/2018,10/25/2018 20:23,16:23:46,2.0.10.248,2,2,1,2,,,,,,,,TrainingProc,BlockList,32,2,Distractor1.bmp,1,0,,0,1,226594,401,,0,0,yellow,400,1,400,,horizontal,yellow,Distractor1.bmp,cyan,Distractor1.bmp,red,Target2.bmp,lime,Distractor1.bmp,purple,Distractor1.bmp,blue,Distractor1.bmp,,,,TrialProc,2,TrainingTrialList,1,2,-999999,1,226995,0,2,782,227777,Target2.bmp,red,2,,,,9,3,32
KW_Experiment5A,47,1,"<?xml version=""1.0""?>\n<Clock xmlns:dt=""urn:schemas-microsoft-com:datatypes""><Description dt:dt=""string"">E-Prime Primary Realtime Clock</Description><StartTime><Timestamp dt:dt=""int"">0</Timestamp><DateUtc dt:dt=""string"">2018-10-25T20:23:46Z</DateUtc></StartTime><FrequencyChanges><FrequencyChange><Frequency dt:dt=""r8"">3215292</Frequency><Timestamp dt:dt=""r8"">1614305785783</Timestamp><Current dt:dt=""r8"">0</Current><DateUtc dt:dt=""string"">2018-10-25T20:23:46Z</DateUtc></FrequencyChange></FrequencyChanges></Clock>\n",KW_Experiment5A-47-1,59.945,1.0.0.105,2,-601304168,Professional,2.0.10.353,2.0.10.353,10/25/2018,10/25/2018 20:23,16:23:46,2.0.10.248,2,2,1,2,,,,,,,,TrainingProc,BlockList,33,2,Distractor1.bmp,1,0,,0,1,228796,601,,0,0,lime,600,3,600,,horizontal,lime,Distractor1.bmp,blue,Distractor1.bmp,cyan,Distractor2.bmp,purple,Distractor2.bmp,red,Target2.bmp,yellow,Distractor1.bmp,,,,TrialProc,6,TrainingTrialList,1,2,-999999,1,229397,0,2,964,230361,Target2.bmp,red,2,,,,11,3,33
KW_Experiment5A,47,1,"<?xml version=""1.0""?>\n<Clock xmlns:dt=""urn:schemas-microsoft-com:datatypes""><Description dt:dt=""string"">E-Prime Primary Realtime Clock</Description><StartTime><Timestamp dt:dt=""int"">0</Timestamp><DateUtc dt:dt=""string"">2018-10-25T20:23:46Z</DateUtc></StartTime><FrequencyChanges><FrequencyChange><Frequency dt:dt=""r8"">3215292</Frequency><Timestamp dt:dt=""r8"">1614305785783</Timestamp><Current dt:dt=""r8"">0</Current><DateUtc dt:dt=""string"">2018-10-25T20:23:46Z</DateUtc></FrequencyChange></FrequencyChanges></Clock>\n",KW_Experiment5A-47-1,59.945,1.0.0.105,2,-601304168,Professional,2.0.10.353,2.0.10.353,10/25/2018,10/25/2018 20:23,16:23:46,2.0.10.248,2,2,1,2,,,,,,,,TrainingProc,BlockList,34,1,Distractor1.bmp,1,0,,0,1,231382,400,,0,0,purple,400,1,400,,vertical,purple,Distractor2.bmp,cyan,Distractor2.bmp,lime,Distractor2.bmp,red,Target1.bmp,yellow,Distractor1.bmp,blue,Distractor2.bmp,,,,TrialProc,5,TrainingTrialList,1,1,-999999,0,231782,0,1,675,232457,Target1.bmp,red,1,,,,10,3,34
KW_Experiment5A,47,1,"<?xml version=""1.0""?>\n<Clock xmlns:dt=""urn:schemas-microsoft-com:datatypes""><Description dt:dt=""string"">E-Prime Primary Realtime Clock</Description><StartTime><Timestamp dt:dt=""int"">0</Timestamp><DateUtc dt:dt=""string"">2018-10-25T20:23:46Z</DateUtc></StartTime><FrequencyChanges><FrequencyChange><Frequency dt:dt=""r8"">3215292</Frequency><Timestamp dt:dt=""r8"">1614305785783</Timestamp><Current dt:dt=""r8"">0</Current><DateUtc dt:dt=""string"">2018-10-25T20:23:46Z</DateUtc></FrequencyChange></FrequencyChanges></Clock>\n",KW_Experiment5A-47-1,59.945,1.0.0.105,2,-601304168,Professional,2.0.10.353,2.0.10.353,10/25/2018,10/25/2018 20:23,16:23:46,2.0.10.248,2,2,1,2,,,,,,,,TrainingProc,BlockList,35,1,Distractor1.bmp,1,0,,0,1,233467,601,,0,0,purple,600,3,600,,vertical,red,Target1.bmp,cyan,Distractor1.bmp,lime,Distractor2.bmp,yellow,Distractor1.bmp,blue,Distractor1.bmp,purple,Distractor2.bmp,,,,TrialProc,5,TrainingTrialList,0,1,-999999,1,234068,0,2,629,234697,Target1.bmp,red,1,,,,7,3,35
KW_Experiment5A,47,1,"<?xml version=""1.0""?>\n<Clock xmlns:dt=""urn:schemas-microsoft-com:datatypes""><Description dt:dt=""string"">E-Prime Primary Realtime Clock</Description><StartTime><Timestamp dt:dt=""int"">0</Timestamp><DateUtc dt:dt=""string"">2018-10-25T20:23:46Z</DateUtc></StartTime><FrequencyChanges><FrequencyChange><Frequency dt:dt=""r8"">3215292</Frequency><Timestamp dt:dt=""r8"">1614305785783</Timestamp><Current dt:dt=""r8"">0</Current><DateUtc dt:dt=""string"">2018-10-25T20:23:46Z</DateUtc></FrequencyChange></FrequencyChanges></Clock>\n",KW_Experiment5A-47-1,59.945,1.0.0.105,2,-601304168,Professional,2.0.10.353,2.0.10.353,10/25/2018,10/25/2018 20:23,16:23:46,2.0.10.248,2,2,1,2,,,,,,,,TrainingProc,BlockList,36,2,Distractor1.bmp,1,0,,0,1,235719,401,,0,0,cyan,400,1,400,,horizontal,cyan,Distractor1.bmp,blue,Distractor2.bmp,yellow,Distractor1.bmp,lime,Distractor2.bmp,purple,Distractor1.bmp,red,Target2.bmp,,,,TrialProc,4,TrainingTrialList,1,2,-999999,1,236120,0,2,777,236897,Target2.bmp,red,2,,,,12,3,36
KW_Experiment5A,47,1,"<?xml version=""1.0""?>\n<Clock xmlns:dt=""urn:schemas-microsoft-com:datatypes""><Description dt:dt=""string"">E-Prime Primary Realtime Clock</Description><StartTime><Timestamp dt:dt=""int"">0</Timestamp><DateUtc dt:dt=""string"">2018-10-25T20:23:46Z</DateUtc></StartTime><FrequencyChanges><FrequencyChange><Frequency dt:dt=""r8"">3215292</Frequency><Timestamp dt:dt=""r8"">1614305785783</Timestamp><Current dt:dt=""r8"">0</Current><DateUtc dt:dt=""string"">2018-10-25T20:23:46Z</DateUtc></FrequencyChange></FrequencyChanges></Clock>\n",KW_Experiment5A-47-1,59.945,1.0.0.105,2,-601304168,Professional,2.0.10.353,2.0.10.353,10/25/2018,10/25/2018 20:23,16:23:46,2.0.10.248,2,2,1,2,,,,,,,,TrainingProc,BlockList,37,2,Distractor2.bmp,2,0,,0,1,237921,401,,0,0,purple,400,1,400,5,horizontal,purple,Distractor2.bmp,yellow,Distractor1.bmp,cyan,Distractor2.bmp,blue,Distractor1.bmp,red,Distractor2.bmp,lime,Target2.bmp,,,,TrialProc,,TrainingTrialList,1,2,-999999,1,238322,0,2,655,238977,Target2.bmp,lime,2,,,,6,3,37
KW_Experiment5A,47,1,"<?xml version=""1.0""?>\n<Clock xmlns:dt=""urn:schemas-microsoft-com:datatypes""><Description dt:dt=""string"">E-Prime Primary Realtime Clock</Description><StartTime><Timestamp dt:dt=""int"">0</Timestamp><DateUtc dt:dt=""string"">2018-10-25T20:23:46Z</DateUtc></StartTime><FrequencyChanges><FrequencyChange><Frequency dt:dt=""r8"">3215292</Frequency><Timestamp dt:dt=""r8"">1614305785783</Timestamp><Current dt:dt=""r8"">0</Current><DateUtc dt:dt=""string"">2018-10-25T20:23:46Z</DateUtc></FrequencyChange></FrequencyChanges></Clock>\n",KW_Experiment5A-47-1,59.945,1.0.0.105,2,-601304168,Professional,2.0.10.353,2.0.10.353,10/25/2018,10/25/2018 20:23,16:23:46,2.0.10.248,2,2,1,2,,,,,,,,TrainingProc,BlockList,38,1,Distractor1.bmp,1,0,,0,1,239990,500,,0,0,yellow,500,2,500,2,vertical,yellow,Distractor1.bmp,cyan,Distractor1.bmp,lime,Target1.bmp,purple,Distractor1.bmp,blue,Distractor2.bmp,red,Distractor2.bmp,,,,TrialProc,,TrainingTrialList,1,1,-999999,0,240490,0,1,751,241241,Target1.bmp,lime,1,,,,3,3,38
KW_Experiment5A,47,1,"<?xml version=""1.0""?>\n<Clock xmlns:dt=""urn:schemas-microsoft-com:datatypes""><Description dt:dt=""string"">E-Prime Primary Realtime Clock</Description><StartTime><Timestamp dt:dt=""int"">0</Timestamp><DateUtc dt:dt=""string"">2018-10-25T20:23:46Z</DateUtc></StartTime><FrequencyChanges><FrequencyChange><Frequency dt:dt=""r8"">3215292</Frequency><Timestamp dt:dt=""r8"">1614305785783</Timestamp><Current dt:dt=""r8"">0</Current><DateUtc dt:dt=""string"">2018-10-25T20:23:46Z</DateUtc></FrequencyChange></FrequencyChanges></Clock>\n",KW_Experiment5A-47-1,59.945,1.0.0.105,2,-601304168,Professional,2.0.10.353,2.0.10.353,10/25/2018,10/25/2018 20:23,16:23:46,2.0.10.248,2,2,1,2,,,,,,,,TrainingProc,BlockList,39,2,Distractor2.bmp,2,0,,1,0,242258,501,,0,0,lime,500,2,500,,horizontal,lime,Distractor2.bmp,yellow,Distractor2.bmp,red,Target2.bmp,purple,Distractor2.bmp,cyan,Distractor1.bmp,blue,Distractor1.bmp,,,,TrialProc,6,TrainingTrialList,1,2,-999999,1,242759,0,2,610,243369,Target2.bmp,red,2,,,,9,3,39
KW_Experiment5A,47,1,"<?xml version=""1.0""?>\n<Clock xmlns:dt=""urn:schemas-microsoft-com:datatypes""><Description dt:dt=""string"">E-Prime Primary Realtime Clock</Description><StartTime><Timestamp dt:dt=""int"">0</Timestamp><DateUtc dt:dt=""string"">2018-10-25T20:23:46Z</DateUtc></StartTime><FrequencyChanges><FrequencyChange><Frequency dt:dt=""r8"">3215292</Frequency><Timestamp dt:dt=""r8"">1614305785783</Timestamp><Current dt:dt=""r8"">0</Current><DateUtc dt:dt=""string"">2018-10-25T20:23:46Z</DateUtc></FrequencyChange></FrequencyChanges></Clock>\n",KW_Experiment5A-47-1,59.945,1.0.0.105,2,-601304168,Professional,2.0.10.353,2.0.10.353,10/25/2018,10/25/2018 20:23,16:23:46,2.0.10.248,2,2,1,2,,,,,,,,TrainingProc,BlockList,40,2,Distractor1.bmp,1,0,,0,1,244394,600,,0,0,cyan,600,3,600,,horizontal,red,Target2.bmp,blue,Distractor1.bmp,purple,Distractor1.bmp,yellow,Distractor1.bmp,lime,Distractor1.bmp,cyan,Distractor2.bmp,,,,TrialProc,4,TrainingTrialList,0,2,-999999,0,244994,0,1,703,245697,Target2.bmp,red,2,,,,7,3,40
KW_Experiment5A,47,1,"<?xml version=""1.0""?>\n<Clock xmlns:dt=""urn:schemas-microsoft-com:datatypes""><Description dt:dt=""string"">E-Prime Primary Realtime Clock</Description><StartTime><Timestamp dt:dt=""int"">0</Timestamp><DateUtc dt:dt=""string"">2018-10-25T20:23:46Z</DateUtc></StartTime><FrequencyChanges><FrequencyChange><Frequency dt:dt=""r8"">3215292</Frequency><Timestamp dt:dt=""r8"">1614305785783</Timestamp><Current dt:dt=""r8"">0</Current><DateUtc dt:dt=""string"">2018-10-25T20:23:46Z</DateUtc></FrequencyChange></FrequencyChanges></Clock>\n",KW_Experiment5A-47-1,59.945,1.0.0.105,2,-601304168,Professional,2.0.10.353,2.0.10.353,10/25/2018,10/25/2018 20:23,16:23:46,2.0.10.248,2,2,1,2,,,,,,,,TrainingProc,BlockList,41,2,Distractor1.bmp,1,0,,0,1,246713,600,,0,0,purple,600,3,600,,horizontal,purple,Distractor1.bmp,red,Target2.bmp,cyan,Distractor1.bmp,lime,Distractor1.bmp,yellow,Distractor1.bmp,blue,Distractor2.bmp,,,,TrialProc,5,TrainingTrialList,1,2,-999999,0,247313,0,2,640,247953,Target2.bmp,red,2,,,,8,3,41
KW_Experiment5A,47,1,"<?xml version=""1.0""?>\n<Clock xmlns:dt=""urn:schemas-microsoft-com:datatypes""><Description dt:dt=""string"">E-Prime Primary Realtime Clock</Description><StartTime><Timestamp dt:dt=""int"">0</Timestamp><DateUtc dt:dt=""string"">2018-10-25T20:23:46Z</DateUtc></StartTime><FrequencyChanges><FrequencyChange><Frequency dt:dt=""r8"">3215292</Frequency><Timestamp dt:dt=""r8"">1614305785783</Timestamp><Current dt:dt=""r8"">0</Current><DateUtc dt:dt=""string"">2018-10-25T20:23:46Z</DateUtc></FrequencyChange></FrequencyChanges></Clock>\n",KW_Experiment5A-47-1,59.945,1.0.0.105,2,-601304168,Professional,2.0.10.353,2.0.10.353,10/25/2018,10/25/2018 20:23,16:23:46,2.0.10.248,2,2,1,2,,,,,,,,TrainingProc,BlockList,42,1,Distractor1.bmp,1,0,,0,1,248965,500,,0,0,blue,500,2,500,,vertical,blue,Distractor1.bmp,lime,Distractor2.bmp,yellow,Distractor1.bmp,red,Target1.bmp,cyan,Distractor1.bmp,purple,Distractor1.bmp,,,,TrialProc,3,TrainingTrialList,1,1,-999999,0,249465,0,1,624,250089,Target1.bmp,red,1,,,,10,3,42
KW_Experiment5A,47,1,"<?xml version=""1.0""?>\n<Clock xmlns:dt=""urn:schemas-microsoft-com:datatypes""><Description dt:dt=""string"">E-Prime Primary Realtime Clock</Description><StartTime><Timestamp dt:dt=""int"">0</Timestamp><DateUtc dt:dt=""string"">2018-10-25T20:23:46Z</DateUtc></StartTime><FrequencyChanges><FrequencyChange><Frequency dt:dt=""r8"">3215292</Frequency><Timestamp dt:dt=""r8"">1614305785783</Timestamp><Current dt:dt=""r8"">0</Current><DateUtc dt:dt=""string"">2018-10-25T20:23:46Z</DateUtc></FrequencyChange></FrequencyChanges></Clock>\n",KW_Experiment5A-47-1,59.945,1.0.0.105,2,-601304168,Professional,2.0.10.353,2.0.10.353,10/25/2018,10/25/2018 20:23,16:23:46,2.0.10.248,2,2,1,2,,,,,,,,TrainingProc,BlockList,43,2,Distractor1.bmp,1,0,,0,1,251100,400,,0,0,red,400,1,400,1,horizontal,red,Distractor1.bmp,cyan,Distractor2.bmp,yellow,Distractor1.bmp,purple,Distractor2.bmp,lime,Target2.bmp,blue,Distractor1.bmp,,,,TrialProc,,TrainingTrialList,0,2,-999999,0,251500,0,1,1213,252713,Target2.bmp,lime,2,,,,5,3,43
KW_Experiment5A,47,1,"<?xml version=""1.0""?>\n<Clock xmlns:dt=""urn:schemas-microsoft-com:datatypes""><Description dt:dt=""string"">E-Prime Primary Realtime Clock</Description><StartTime><Timestamp dt:dt=""int"">0</Timestamp><DateUtc dt:dt=""string"">2018-10-25T20:23:46Z</DateUtc></StartTime><FrequencyChanges><FrequencyChange><Frequency dt:dt=""r8"">3215292</Frequency><Timestamp dt:dt=""r8"">1614305785783</Timestamp><Current dt:dt=""r8"">0</Current><DateUtc dt:dt=""string"">2018-10-25T20:23:46Z</DateUtc></FrequencyChange></FrequencyChanges></Clock>\n",KW_Experiment5A-47-1,59.945,1.0.0.105,2,-601304168,Professional,2.0.10.353,2.0.10.353,10/25/2018,10/25/2018 20:23,16:23:46,2.0.10.248,2,2,1,2,,,,,,,,TrainingProc,BlockList,44,1,Distractor2.bmp,2,0,,0,1,253736,600,,0,0,cyan,600,3,600,,vertical,cyan,Distractor1.bmp,purple,Distractor2.bmp,red,Target1.bmp,yellow,Distractor2.bmp,blue,Distractor2.bmp,lime,Distractor1.bmp,,,,TrialProc,4,TrainingTrialList,0,1,-999999,0,254336,0,2,665,255001,Target1.bmp,red,1,,,,9,3,44
KW_Experiment5A,47,1,"<?xml version=""1.0""?>\n<Clock xmlns:dt=""urn:schemas-microsoft-com:datatypes""><Description dt:dt=""string"">E-Prime Primary Realtime Clock</Description><StartTime><Timestamp dt:dt=""int"">0</Timestamp><DateUtc dt:dt=""string"">2018-10-25T20:23:46Z</DateUtc></StartTime><FrequencyChanges><FrequencyChange><Frequency dt:dt=""r8"">3215292</Frequency><Timestamp dt:dt=""r8"">1614305785783</Timestamp><Current dt:dt=""r8"">0</Current><DateUtc dt:dt=""string"">2018-10-25T20:23:46Z</DateUtc></FrequencyChange></FrequencyChanges></Clock>\n",KW_Experiment5A-47-1,59.945,1.0.0.105,2,-601304168,Professional,2.0.10.353,2.0.10.353,10/25/2018,10/25/2018 20:23,16:23:46,2.0.10.248,2,2,1,2,,,,,,,,TrainingProc,BlockList,45,2,Distractor1.bmp,1,0,,0,1,256021,600,,0,0,cyan,600,3,600,,horizontal,red,Target2.bmp,purple,Distractor1.bmp,lime,Distractor2.bmp,blue,Distractor2.bmp,yellow,Distractor1.bmp,cyan,Distractor2.bmp,,,,TrialProc,4,TrainingTrialList,1,2,-999999,0,256621,0,2,539,257160,Target2.bmp,red,2,,,,7,3,45
KW_Experiment5A,47,1,"<?xml version=""1.0""?>\n<Clock xmlns:dt=""urn:schemas-microsoft-com:datatypes""><Description dt:dt=""string"">E-Prime Primary Realtime Clock</Description><StartTime><Timestamp dt:dt=""int"">0</Timestamp><DateUtc dt:dt=""string"">2018-10-25T20:23:46Z</DateUtc></StartTime><FrequencyChanges><FrequencyChange><Frequency dt:dt=""r8"">3215292</Frequency><Timestamp dt:dt=""r8"">1614305785783</Timestamp><Current dt:dt=""r8"">0</Current><DateUtc dt:dt=""string"">2018-10-25T20:23:46Z</DateUtc></FrequencyChange></FrequencyChanges></Clock>\n",KW_Experiment5A-47-1,59.945,1.0.0.105,2,-601304168,Professional,2.0.10.353,2.0.10.353,10/25/2018,10/25/2018 20:23,16:23:46,2.0.10.248,2,2,1,2,,,,,,,,TrainingProc,BlockList,46,1,Distractor2.bmp,2,0,,0,1,258173,400,,0,0,lime,400,1,400,,vertical,lime,Distractor2.bmp,red,Target1.bmp,cyan,Distractor2.bmp,purple,Distractor1.bmp,yellow,Distractor2.bmp,blue,Distractor2.bmp,,,,TrialProc,6,TrainingTrialList,1,1,-999999,0,258573,0,1,699,259272,Target1.bmp,red,1,,,,8,3,46
KW_Experiment5A,47,1,"<?xml version=""1.0""?>\n<Clock xmlns:dt=""urn:schemas-microsoft-com:datatypes""><Description dt:dt=""string"">E-Prime Primary Realtime Clock</Description><StartTime><Timestamp dt:dt=""int"">0</Timestamp><DateUtc dt:dt=""string"">2018-10-25T20:23:46Z</DateUtc></StartTime><FrequencyChanges><FrequencyChange><Frequency dt:dt=""r8"">3215292</Frequency><Timestamp dt:dt=""r8"">1614305785783</Timestamp><Current dt:dt=""r8"">0</Current><DateUtc dt:dt=""string"">2018-10-25T20:23:46Z</DateUtc></FrequencyChange></FrequencyChanges></Clock>\n",KW_Experiment5A-47-1,59.945,1.0.0.105,2,-601304168,Professional,2.0.10.353,2.0.10.353,10/25/2018,10/25/2018 20:23,16:23:46,2.0.10.248,2,2,1,2,,,,,,,,TrainingProc,BlockList,47,1,Distractor1.bmp,1,0,,1,0,260291,501,,0,0,purple,500,2,500,5,vertical,purple,Distractor2.bmp,cyan,Distractor2.bmp,red,Distractor1.bmp,lime,Target1.bmp,blue,Distractor1.bmp,yellow,Distractor2.bmp,,,,TrialProc,,TrainingTrialList,1,1,-999999,1,260792,0,1,632,261424,Target1.bmp,lime,1,,,,4,3,47
KW_Experiment5A,47,1,"<?xml version=""1.0""?>\n<Clock xmlns:dt=""urn:schemas-microsoft-com:datatypes""><Description dt:dt=""string"">E-Prime Primary Realtime Clock</Description><StartTime><Timestamp dt:dt=""int"">0</Timestamp><DateUtc dt:dt=""string"">2018-10-25T20:23:46Z</DateUtc></StartTime><FrequencyChanges><FrequencyChange><Frequency dt:dt=""r8"">3215292</Frequency><Timestamp dt:dt=""r8"">1614305785783</Timestamp><Current dt:dt=""r8"">0</Current><DateUtc dt:dt=""string"">2018-10-25T20:23:46Z</DateUtc></FrequencyChange></FrequencyChanges></Clock>\n",KW_Experiment5A-47-1,59.945,1.0.0.105,2,-601304168,Professional,2.0.10.353,2.0.10.353,10/25/2018,10/25/2018 20:23,16:23:46,2.0.10.248,2,2,1,2,,,,,,,,TrainingProc,BlockList,48,1,Distractor2.bmp,2,0,,1,0,262443,601,,0,0,yellow,600,3,600,,vertical,yellow,Distractor1.bmp,purple,Distractor1.bmp,lime,Distractor2.bmp,cyan,Distractor1.bmp,red,Target1.bmp,blue,Distractor2.bmp,,,,TrialProc,2,TrainingTrialList,1,1,-999999,1,263044,0,1,484,263528,Target1.bmp,red,1,,,,11,3,48
KW_Experiment5A,47,1,"<?xml version=""1.0""?>\n<Clock xmlns:dt=""urn:schemas-microsoft-com:datatypes""><Description dt:dt=""string"">E-Prime Primary Realtime Clock</Description><StartTime><Timestamp dt:dt=""int"">0</Timestamp><DateUtc dt:dt=""string"">2018-10-25T20:23:46Z</DateUtc></StartTime><FrequencyChanges><FrequencyChange><Frequency dt:dt=""r8"">3215292</Frequency><Timestamp dt:dt=""r8"">1614305785783</Timestamp><Current dt:dt=""r8"">0</Current><DateUtc dt:dt=""string"">2018-10-25T20:23:46Z</DateUtc></FrequencyChange></FrequencyChanges></Clock>\n",KW_Experiment5A-47-1,59.945,1.0.0.105,2,-601304168,Professional,2.0.10.353,2.0.10.353,10/25/2018,10/25/2018 20:23,16:23:46,2.0.10.248,3,2,1,3,,,,,,,,TrainingProc,BlockList,1,2,Distractor2.bmp,2,0,,0,32,275872,401,,0,0,yellow,400,1,400,,horizontal,yellow,Distractor2.bmp,red,Target2.bmp,blue,Distractor2.bmp,purple,Distractor2.bmp,cyan,Distractor2.bmp,lime,Distractor1.bmp,,,,TrialProc,2,TrainingTrialList,1,2,-999999,1,276273,0,2,671,276944,Target2.bmp,red,2,,,,8,4,49
KW_Experiment5A,47,1,"<?xml version=""1.0""?>\n<Clock xmlns:dt=""urn:schemas-microsoft-com:datatypes""><Description dt:dt=""string"">E-Prime Primary Realtime Clock</Description><StartTime><Timestamp dt:dt=""int"">0</Timestamp><DateUtc dt:dt=""string"">2018-10-25T20:23:46Z</DateUtc></StartTime><FrequencyChanges><FrequencyChange><Frequency dt:dt=""r8"">3215292</Frequency><Timestamp dt:dt=""r8"">1614305785783</Timestamp><Current dt:dt=""r8"">0</Current><DateUtc dt:dt=""string"">2018-10-25T20:23:46Z</DateUtc></FrequencyChange></FrequencyChanges></Clock>\n",KW_Experiment5A-47-1,59.945,1.0.0.105,2,-601304168,Professional,2.0.10.353,2.0.10.353,10/25/2018,10/25/2018 20:23,16:23:46,2.0.10.248,3,2,1,3,,,,,,,,TrainingProc,BlockList,2,1,Distractor2.bmp,2,0,,1,0,277957,401,,0,0,yellow,400,1,400,2,vertical,lime,Target1.bmp,yellow,Distractor2.bmp,cyan,Distractor1.bmp,red,Distractor1.bmp,blue,Distractor2.bmp,purple,Distractor1.bmp,,,,TrialProc,,TrainingTrialList,1,1,-999999,1,278358,0,1,714,279072,Target1.bmp,lime,1,,,,1,4,50
KW_Experiment5A,47,1,"<?xml version=""1.0""?>\n<Clock xmlns:dt=""urn:schemas-microsoft-com:datatypes""><Description dt:dt=""string"">E-Prime Primary Realtime Clock</Description><StartTime><Timestamp dt:dt=""int"">0</Timestamp><DateUtc dt:dt=""string"">2018-10-25T20:23:46Z</DateUtc></StartTime><FrequencyChanges><FrequencyChange><Frequency dt:dt=""r8"">3215292</Frequency><Timestamp dt:dt=""r8"">1614305785783</Timestamp><Current dt:dt=""r8"">0</Current><DateUtc dt:dt=""string"">2018-10-25T20:23:46Z</DateUtc></FrequencyChange></FrequencyChanges></Clock>\n",KW_Experiment5A-47-1,59.945,1.0.0.105,2,-601304168,Professional,2.0.10.353,2.0.10.353,10/25/2018,10/25/2018 20:23,16:23:46,2.0.10.248,3,2,1,3,,,,,,,,TrainingProc,BlockList,3,1,Distractor2.bmp,2,0,,0,1,280093,600,,0,0,cyan,600,3,600,,vertical,red,Target1.bmp,yellow,Distractor2.bmp,blue,Distractor1.bmp,lime,Distractor2.bmp,purple,Distractor2.bmp,cyan,Distractor1.bmp,,,,TrialProc,4,TrainingTrialList,1,1,-999999,0,280693,0,1,1219,281912,Target1.bmp,red,1,,,,7,4,51
KW_Experiment5A,47,1,"<?xml version=""1.0""?>\n<Clock xmlns:dt=""urn:schemas-microsoft-com:datatypes""><Description dt:dt=""string"">E-Prime Primary Realtime Clock</Description><StartTime><Timestamp dt:dt=""int"">0</Timestamp><DateUtc dt:dt=""string"">2018-10-25T20:23:46Z</DateUtc></StartTime><FrequencyChanges><FrequencyChange><Frequency dt:dt=""r8"">3215292</Frequency><Timestamp dt:dt=""r8"">1614305785783</Timestamp><Current dt:dt=""r8"">0</Current><DateUtc dt:dt=""string"">2018-10-25T20:23:46Z</DateUtc></FrequencyChange></FrequencyChanges></Clock>\n",KW_Experiment5A-47-1,59.945,1.0.0.105,2,-601304168,Professional,2.0.10.353,2.0.10.353,10/25/2018,10/25/2018 20:23,16:23:46,2.0.10.248,3,2,1,3,,,,,,,,TrainingProc,BlockList,4,1,Distractor2.bmp,2,0,,0,1,282929,400,,0,0,blue,400,1,400,,vertical,blue,Distractor1.bmp,cyan,Distractor1.bmp,purple,Distractor1.bmp,yellow,Distractor1.bmp,red,Target1.bmp,lime,Distractor2.bmp,,,,TrialProc,3,TrainingTrialList,1,1,-999999,0,283329,0,1,655,283984,Target1.bmp,red,1,,,,11,4,52
KW_Experiment5A,47,1,"<?xml version=""1.0""?>\n<Clock xmlns:dt=""urn:schemas-microsoft-com:datatypes""><Description dt:dt=""string"">E-Prime Primary Realtime Clock</Description><StartTime><Timestamp dt:dt=""int"">0</Timestamp><DateUtc dt:dt=""string"">2018-10-25T20:23:46Z</DateUtc></StartTime><FrequencyChanges><FrequencyChange><Frequency dt:dt=""r8"">3215292</Frequency><Timestamp dt:dt=""r8"">1614305785783</Timestamp><Current dt:dt=""r8"">0</Current><DateUtc dt:dt=""string"">2018-10-25T20:23:46Z</DateUtc></FrequencyChange></FrequencyChanges></Clock>\n",KW_Experiment5A-47-1,59.945,1.0.0.105,2,-601304168,Professional,2.0.10.353,2.0.10.353,10/25/2018,10/25/2018 20:23,16:23:46,2.0.10.248,3,2,1,3,,,,,,,,TrainingProc,BlockList,5,1,Distractor2.bmp,2,0,,0,1,284997,401,,0,0,lime,400,1,400,,vertical,lime,Distractor2.bmp,yellow,Distractor2.bmp,purple,Distractor2.bmp,blue,Distractor2.bmp,red,Target1.bmp,cyan,Distractor2.bmp,,,,TrialProc,6,TrainingTrialList,1,1,-999999,1,285398,0,1,418,285816,Target1.bmp,red,1,,,,11,4,53
KW_Experiment5A,47,1,"<?xml version=""1.0""?>\n<Clock xmlns:dt=""urn:schemas-microsoft-com:datatypes""><Description dt:dt=""string"">E-Prime Primary Realtime Clock</Description><StartTime><Timestamp dt:dt=""int"">0</Timestamp><DateUtc dt:dt=""string"">2018-10-25T20:23:46Z</DateUtc></StartTime><FrequencyChanges><FrequencyChange><Frequency dt:dt=""r8"">3215292</Frequency><Timestamp dt:dt=""r8"">1614305785783</Timestamp><Current dt:dt=""r8"">0</Current><DateUtc dt:dt=""string"">2018-10-25T20:23:46Z</DateUtc></FrequencyChange></FrequencyChanges></Clock>\n",KW_Experiment5A-47-1,59.945,1.0.0.105,2,-601304168,Professional,2.0.10.353,2.0.10.353,10/25/2018,10/25/2018 20:23,16:23:46,2.0.10.248,3,2,1,3,,,,,,,,TrainingProc,BlockList,6,2,Distractor2.bmp,2,0,,0,1,286832,501,,0,0,purple,500,2,500,5,horizontal,purple,Distractor2.bmp,yellow,Distractor2.bmp,lime,Target2.bmp,red,Distractor2.bmp,blue,Distractor2.bmp,cyan,Distractor2.bmp,,,,TrialProc,,TrainingTrialList,0,2,-999999,1,287333,0,1,435,287768,Target2.bmp,lime,2,,,,3,4,54
KW_Experiment5A,47,1,"<?xml version=""1.0""?>\n<Clock xmlns:dt=""urn:schemas-microsoft-com:datatypes""><Description dt:dt=""string"">E-Prime Primary Realtime Clock</Description><StartTime><Timestamp dt:dt=""int"">0</Timestamp><DateUtc dt:dt=""string"">2018-10-25T20:23:46Z</DateUtc></StartTime><FrequencyChanges><FrequencyChange><Frequency dt:dt=""r8"">3215292</Frequency><Timestamp dt:dt=""r8"">1614305785783</Timestamp><Current dt:dt=""r8"">0</Current><DateUtc dt:dt=""string"">2018-10-25T20:23:46Z</DateUtc></FrequencyChange></FrequencyChanges></Clock>\n",KW_Experiment5A-47-1,59.945,1.0.0.105,2,-601304168,Professional,2.0.10.353,2.0.10.353,10/25/2018,10/25/2018 20:23,16:23:46,2.0.10.248,3,2,1,3,,,,,,,,TrainingProc,BlockList,7,1,Distractor2.bmp,2,0,,0,1,288784,601,,0,0,lime,600,3,600,,vertical,lime,Distractor1.bmp,cyan,Distractor2.bmp,yellow,Distractor2.bmp,red,Target1.bmp,purple,Distractor2.bmp,blue,Distractor1.bmp,,,,TrialProc,6,TrainingTrialList,1,1,-999999,1,289385,0,1,575,289960,Target1.bmp,red,1,,,,10,4,55
KW_Experiment5A,47,1,"<?xml version=""1.0""?>\n<Clock xmlns:dt=""urn:schemas-microsoft-com:datatypes""><Description dt:dt=""string"">E-Prime Primary Realtime Clock</Description><StartTime><Timestamp dt:dt=""int"">0</Timestamp><DateUtc dt:dt=""string"">2018-10-25T20:23:46Z</DateUtc></StartTime><FrequencyChanges><FrequencyChange><Frequency dt:dt=""r8"">3215292</Frequency><Timestamp dt:dt=""r8"">1614305785783</Timestamp><Current dt:dt=""r8"">0</Current><DateUtc dt:dt=""string"">2018-10-25T20:23:46Z</DateUtc></FrequencyChange></FrequencyChanges></Clock>\n",KW_Experiment5A-47-1,59.945,1.0.0.105,2,-601304168,Professional,2.0.10.353,2.0.10.353,10/25/2018,10/25/2018 20:23,16:23:46,2.0.10.248,3,2,1,3,,,,,,,,TrainingProc,BlockList,8,1,Distractor2.bmp,2,0,,0,1,290969,401,,0,0,yellow,400,1,400,,vertical,yellow,Distractor1.bmp,red,Target1.bmp,purple,Distractor2.bmp,lime,Distractor1.bmp,cyan,Distractor2.bmp,blue,Distractor1.bmp,,,,TrialProc,2,TrainingTrialList,1,1,-999999,1,291370,0,1,654,292024,Target1.bmp,red,1,,,,8,4,56
KW_Experiment5A,47,1,"<?xml version=""1.0""?>\n<Clock xmlns:dt=""urn:schemas-microsoft-com:datatypes""><Description dt:dt=""string"">E-Prime Primary Realtime Clock</Description><StartTime><Timestamp dt:dt=""int"">0</Timestamp><DateUtc dt:dt=""string"">2018-10-25T20:23:46Z</DateUtc></StartTime><FrequencyChanges><FrequencyChange><Frequency dt:dt=""r8"">3215292</Frequency><Timestamp dt:dt=""r8"">1614305785783</Timestamp><Current dt:dt=""r8"">0</Current><DateUtc dt:dt=""string"">2018-10-25T20:23:46Z</DateUtc></FrequencyChange></FrequencyChanges></Clock>\n",KW_Experiment5A-47-1,59.945,1.0.0.105,2,-601304168,Professional,2.0.10.353,2.0.10.353,10/25/2018,10/25/2018 20:23,16:23:46,2.0.10.248,3,2,1,3,,,,,,,,TrainingProc,BlockList,9,2,Distractor2.bmp,2,0,,0,1,293038,400,,0,0,purple,400,1,400,,horizontal,purple,Distractor1.bmp,yellow,Distractor1.bmp,red,Target2.bmp,lime,Distractor2.bmp,blue,Distractor1.bmp,cyan,Distractor1.bmp,,,,TrialProc,5,TrainingTrialList,1,2,-999999,0,293438,0,2,610,294048,Target2.bmp,red,2,,,,9,4,57
KW_Experiment5A,47,1,"<?xml version=""1.0""?>\n<Clock xmlns:dt=""urn:schemas-microsoft-com:datatypes""><Description dt:dt=""string"">E-Prime Primary Realtime Clock</Description><StartTime><Timestamp dt:dt=""int"">0</Timestamp><DateUtc dt:dt=""string"">2018-10-25T20:23:46Z</DateUtc></StartTime><FrequencyChanges><FrequencyChange><Frequency dt:dt=""r8"">3215292</Frequency><Timestamp dt:dt=""r8"">1614305785783</Timestamp><Current dt:dt=""r8"">0</Current><DateUtc dt:dt=""string"">2018-10-25T20:23:46Z</DateUtc></FrequencyChange></FrequencyChanges></Clock>\n",KW_Experiment5A-47-1,59.945,1.0.0.105,2,-601304168,Professional,2.0.10.353,2.0.10.353,10/25/2018,10/25/2018 20:23,16:23:46,2.0.10.248,3,2,1,3,,,,,,,,TrainingProc,BlockList,10,1,Distractor1.bmp,1,0,,0,1,295073,400,,0,0,purple,400,1,400,5,vertical,purple,Distractor2.bmp,blue,Distractor2.bmp,yellow,Distractor1.bmp,lime,Target1.bmp,red,Distractor1.bmp,cyan,Distractor1.bmp,,,,TrialProc,,TrainingTrialList,1,1,-999999,0,295473,0,1,719,296192,Target1.bmp,lime,1,,,,4,4,58
KW_Experiment5A,47,1,"<?xml version=""1.0""?>\n<Clock xmlns:dt=""urn:schemas-microsoft-com:datatypes""><Description dt:dt=""string"">E-Prime Primary Realtime Clock</Description><StartTime><Timestamp dt:dt=""int"">0</Timestamp><DateUtc dt:dt=""string"">2018-10-25T20:23:46Z</DateUtc></StartTime><FrequencyChanges><FrequencyChange><Frequency dt:dt=""r8"">3215292</Frequency><Timestamp dt:dt=""r8"">1614305785783</Timestamp><Current dt:dt=""r8"">0</Current><DateUtc dt:dt=""string"">2018-10-25T20:23:46Z</DateUtc></FrequencyChange></FrequencyChanges></Clock>\n",KW_Experiment5A-47-1,59.945,1.0.0.105,2,-601304168,Professional,2.0.10.353,2.0.10.353,10/25/2018,10/25/2018 20:23,16:23:46,2.0.10.248,3,2,1,3,,,,,,,,TrainingProc,BlockList,11,2,Distractor2.bmp,2,0,,0,1,297208,401,,0,0,lime,400,1,400,,horizontal,lime,Distractor1.bmp,blue,Distractor2.bmp,red,Target2.bmp,purple,Distractor2.bmp,cyan,Distractor1.bmp,yellow,Distractor2.bmp,,,,TrialProc,6,TrainingTrialList,1,2,-999999,1,297609,0,2,574,298183,Target2.bmp,red,2,,,,9,4,59
KW_Experiment5A,47,1,"<?xml version=""1.0""?>\n<Clock xmlns:dt=""urn:schemas-microsoft-com:datatypes""><Description dt:dt=""string"">E-Prime Primary Realtime Clock</Description><StartTime><Timestamp dt:dt=""int"">0</Timestamp><DateUtc dt:dt=""string"">2018-10-25T20:23:46Z</DateUtc></StartTime><FrequencyChanges><FrequencyChange><Frequency dt:dt=""r8"">3215292</Frequency><Timestamp dt:dt=""r8"">1614305785783</Timestamp><Current dt:dt=""r8"">0</Current><DateUtc dt:dt=""string"">2018-10-25T20:23:46Z</DateUtc></FrequencyChange></FrequencyChanges></Clock>\n",KW_Experiment5A-47-1,59.945,1.0.0.105,2,-601304168,Professional,2.0.10.353,2.0.10.353,10/25/2018,10/25/2018 20:23,16:23:46,2.0.10.248,3,2,1,3,,,,,,,,TrainingProc,BlockList,12,2,Distractor2.bmp,2,0,,0,1,299210,401,,0,0,lime,400,1,400,,horizontal,lime,Distractor2.bmp,yellow,Distractor2.bmp,red,Target2.bmp,blue,Distractor2.bmp,purple,Distractor1.bmp,cyan,Distractor1.bmp,,,,TrialProc,6,TrainingTrialList,1,2,-999999,1,299611,0,2,604,300215,Target2.bmp,red,2,,,,9,4,60
KW_Experiment5A,47,1,"<?xml version=""1.0""?>\n<Clock xmlns:dt=""urn:schemas-microsoft-com:datatypes""><Description dt:dt=""string"">E-Prime Primary Realtime Clock</Description><StartTime><Timestamp dt:dt=""int"">0</Timestamp><DateUtc dt:dt=""string"">2018-10-25T20:23:46Z</DateUtc></StartTime><FrequencyChanges><FrequencyChange><Frequency dt:dt=""r8"">3215292</Frequency><Timestamp dt:dt=""r8"">1614305785783</Timestamp><Current dt:dt=""r8"">0</Current><DateUtc dt:dt=""string"">2018-10-25T20:23:46Z</DateUtc></FrequencyChange></FrequencyChanges></Clock>\n",KW_Experiment5A-47-1,59.945,1.0.0.105,2,-601304168,Professional,2.0.10.353,2.0.10.353,10/25/2018,10/25/2018 20:23,16:23:46,2.0.10.248,3,2,1,3,,,,,,,,TrainingProc,BlockList,13,1,Distractor1.bmp,1,0,,0,1,301229,500,,0,0,cyan,500,2,500,,vertical,cyan,Distractor1.bmp,lime,Distractor1.bmp,blue,Distractor2.bmp,yellow,Distractor1.bmp,purple,Distractor1.bmp,red,Target1.bmp,,,,TrialProc,4,TrainingTrialList,1,1,-999999,0,301729,0,1,558,302287,Target1.bmp,red,1,,,,12,4,61
KW_Experiment5A,47,1,"<?xml version=""1.0""?>\n<Clock xmlns:dt=""urn:schemas-microsoft-com:datatypes""><Description dt:dt=""string"">E-Prime Primary Realtime Clock</Description><StartTime><Timestamp dt:dt=""int"">0</Timestamp><DateUtc dt:dt=""string"">2018-10-25T20:23:46Z</DateUtc></StartTime><FrequencyChanges><FrequencyChange><Frequency dt:dt=""r8"">3215292</Frequency><Timestamp dt:dt=""r8"">1614305785783</Timestamp><Current dt:dt=""r8"">0</Current><DateUtc dt:dt=""string"">2018-10-25T20:23:46Z</DateUtc></FrequencyChange></FrequencyChanges></Clock>\n",KW_Experiment5A-47-1,59.945,1.0.0.105,2,-601304168,Professional,2.0.10.353,2.0.10.353,10/25/2018,10/25/2018 20:23,16:23:46,2.0.10.248,3,2,1,3,,,,,,,,TrainingProc,BlockList,14,1,Distractor1.bmp,1,0,,0,1,303314,400,,0,0,yellow,400,1,400,2,vertical,yellow,Distractor2.bmp,blue,Distractor1.bmp,cyan,Distractor1.bmp,red,Distractor1.bmp,lime,Target1.bmp,purple,Distractor1.bmp,,,,TrialProc,,TrainingTrialList,1,1,-999999,0,303714,0,1,613,304327,Target1.bmp,lime,1,,,,5,4,62
KW_Experiment5A,47,1,"<?xml version=""1.0""?>\n<Clock xmlns:dt=""urn:schemas-microsoft-com:datatypes""><Description dt:dt=""string"">E-Prime Primary Realtime Clock</Description><StartTime><Timestamp dt:dt=""int"">0</Timestamp><DateUtc dt:dt=""string"">2018-10-25T20:23:46Z</DateUtc></StartTime><FrequencyChanges><FrequencyChange><Frequency dt:dt=""r8"">3215292</Frequency><Timestamp dt:dt=""r8"">1614305785783</Timestamp><Current dt:dt=""r8"">0</Current><DateUtc dt:dt=""string"">2018-10-25T20:23:46Z</DateUtc></FrequencyChange></FrequencyChanges></Clock>\n",KW_Experiment5A-47-1,59.945,1.0.0.105,2,-601304168,Professional,2.0.10.353,2.0.10.353,10/25/2018,10/25/2018 20:23,16:23:46,2.0.10.248,3,2,1,3,,,,,,,,TrainingProc,BlockList,15,1,Distractor2.bmp,2,0,,0,1,305349,601,,0,0,lime,600,3,600,,vertical,lime,Distractor2.bmp,yellow,Distractor2.bmp,purple,Distractor1.bmp,red,Target1.bmp,cyan,Distractor2.bmp,blue,Distractor2.bmp,,,,TrialProc,6,TrainingTrialList,1,1,-999999,1,305950,0,1,593,306543,Target1.bmp,red,1,,,,10,4,63
KW_Experiment5A,47,1,"<?xml version=""1.0""?>\n<Clock xmlns:dt=""urn:schemas-microsoft-com:datatypes""><Description dt:dt=""string"">E-Prime Primary Realtime Clock</Description><StartTime><Timestamp dt:dt=""int"">0</Timestamp><DateUtc dt:dt=""string"">2018-10-25T20:23:46Z</DateUtc></StartTime><FrequencyChanges><FrequencyChange><Frequency dt:dt=""r8"">3215292</Frequency><Timestamp dt:dt=""r8"">1614305785783</Timestamp><Current dt:dt=""r8"">0</Current><DateUtc dt:dt=""string"">2018-10-25T20:23:46Z</DateUtc></FrequencyChange></FrequencyChanges></Clock>\n",KW_Experiment5A-47-1,59.945,1.0.0.105,2,-601304168,Professional,2.0.10.353,2.0.10.353,10/25/2018,10/25/2018 20:23,16:23:46,2.0.10.248,3,2,1,3,,,,,,,,TrainingProc,BlockList,16,2,Distractor2.bmp,2,0,,0,1,307568,600,,0,0,purple,600,3,600,,horizontal,purple,Distractor1.bmp,blue,Distractor2.bmp,yellow,Distractor1.bmp,red,Target2.bmp,lime,Distractor2.bmp,cyan,Distractor2.bmp,,,,TrialProc,5,TrainingTrialList,1,2,-999999,0,308168,0,2,575,308743,Target2.bmp,red,2,,,,10,4,64
KW_Experiment5A,47,1,"<?xml version=""1.0""?>\n<Clock xmlns:dt=""urn:schemas-microsoft-com:datatypes""><Description dt:dt=""string"">E-Prime Primary Realtime Clock</Description><StartTime><Timestamp dt:dt=""int"">0</Timestamp><DateUtc dt:dt=""string"">2018-10-25T20:23:46Z</DateUtc></StartTime><FrequencyChanges><FrequencyChange><Frequency dt:dt=""r8"">3215292</Frequency><Timestamp dt:dt=""r8"">1614305785783</Timestamp><Current dt:dt=""r8"">0</Current><DateUtc dt:dt=""string"">2018-10-25T20:23:46Z</DateUtc></FrequencyChange></FrequencyChanges></Clock>\n",KW_Experiment5A-47-1,59.945,1.0.0.105,2,-601304168,Professional,2.0.10.353,2.0.10.353,10/25/2018,10/25/2018 20:23,16:23:46,2.0.10.248,3,2,1,3,,,,,,,,TrainingProc,BlockList,17,1,Distractor1.bmp,1,0,,0,1,309753,400,,0,0,purple,400,1,400,,vertical,purple,Distractor1.bmp,lime,Distractor1.bmp,blue,Distractor1.bmp,cyan,Distractor1.bmp,red,Target1.bmp,yellow,Distractor1.bmp,,,,TrialProc,5,TrainingTrialList,0,1,-999999,0,310153,0,2,870,311023,Target1.bmp,red,1,,,,11,4,65
KW_Experiment5A,47,1,"<?xml version=""1.0""?>\n<Clock xmlns:dt=""urn:schemas-microsoft-com:datatypes""><Description dt:dt=""string"">E-Prime Primary Realtime Clock</Description><StartTime><Timestamp dt:dt=""int"">0</Timestamp><DateUtc dt:dt=""string"">2018-10-25T20:23:46Z</DateUtc></StartTime><FrequencyChanges><FrequencyChange><Frequency dt:dt=""r8"">3215292</Frequency><Timestamp dt:dt=""r8"">1614305785783</Timestamp><Current dt:dt=""r8"">0</Current><DateUtc dt:dt=""string"">2018-10-25T20:23:46Z</DateUtc></FrequencyChange></FrequencyChanges></Clock>\n",KW_Experiment5A-47-1,59.945,1.0.0.105,2,-601304168,Professional,2.0.10.353,2.0.10.353,10/25/2018,10/25/2018 20:23,16:23:46,2.0.10.248,3,2,1,3,,,,,,,,TrainingProc,BlockList,18,1,Distractor1.bmp,1,0,,0,0,312038,601,,0,0,cyan,600,3,600,4,vertical,cyan,Distractor1.bmp,yellow,Distractor1.bmp,red,Distractor1.bmp,purple,Distractor2.bmp,blue,Distractor1.bmp,lime,Target1.bmp,,,,TrialProc,,TrainingTrialList,1,1,-999999,1,312639,0,1,632,313271,Target1.bmp,lime,1,,,,6,4,66
KW_Experiment5A,47,1,"<?xml version=""1.0""?>\n<Clock xmlns:dt=""urn:schemas-microsoft-com:datatypes""><Description dt:dt=""string"">E-Prime Primary Realtime Clock</Description><StartTime><Timestamp dt:dt=""int"">0</Timestamp><DateUtc dt:dt=""string"">2018-10-25T20:23:46Z</DateUtc></StartTime><FrequencyChanges><FrequencyChange><Frequency dt:dt=""r8"">3215292</Frequency><Timestamp dt:dt=""r8"">1614305785783</Timestamp><Current dt:dt=""r8"">0</Current><DateUtc dt:dt=""string"">2018-10-25T20:23:46Z</DateUtc></FrequencyChange></FrequencyChanges></Clock>\n",KW_Experiment5A-47-1,59.945,1.0.0.105,2,-601304168,Professional,2.0.10.353,2.0.10.353,10/25/2018,10/25/2018 20:23,16:23:46,2.0.10.248,3,2,1,3,,,,,,,,TrainingProc,BlockList,19,2,Distractor2.bmp,2,0,,1,0,314290,501,,0,0,yellow,500,2,500,,horizontal,yellow,Distractor1.bmp,red,Target2.bmp,lime,Distractor2.bmp,cyan,Distractor2.bmp,blue,Distractor2.bmp,purple,Distractor1.bmp,,,,TrialProc,2,TrainingTrialList,1,2,-999999,1,314791,0,2,536,315327,Target2.bmp,red,2,,,,8,4,67
KW_Experiment5A,47,1,"<?xml version=""1.0""?>\n<Clock xmlns:dt=""urn:schemas-microsoft-com:datatypes""><Description dt:dt=""string"">E-Prime Primary Realtime Clock</Description><StartTime><Timestamp dt:dt=""int"">0</Timestamp><DateUtc dt:dt=""string"">2018-10-25T20:23:46Z</DateUtc></StartTime><FrequencyChanges><FrequencyChange><Frequency dt:dt=""r8"">3215292</Frequency><Timestamp dt:dt=""r8"">1614305785783</Timestamp><Current dt:dt=""r8"">0</Current><DateUtc dt:dt=""string"">2018-10-25T20:23:46Z</DateUtc></FrequencyChange></FrequencyChanges></Clock>\n",KW_Experiment5A-47-1,59.945,1.0.0.105,2,-601304168,Professional,2.0.10.353,2.0.10.353,10/25/2018,10/25/2018 20:23,16:23:46,2.0.10.248,3,2,1,3,,,,,,,,TrainingProc,BlockList,20,1,Distractor2.bmp,2,0,,0,1,316342,501,,0,0,lime,500,2,500,,vertical,lime,Distractor2.bmp,blue,Distractor1.bmp,yellow,Distractor1.bmp,cyan,Distractor2.bmp,purple,Distractor2.bmp,red,Target1.bmp,,,,TrialProc,6,TrainingTrialList,1,1,-999999,1,316843,0,1,580,317423,Target1.bmp,red,1,,,,12,4,68
KW_Experiment5A,47,1,"<?xml version=""1.0""?>\n<Clock xmlns:dt=""urn:schemas-microsoft-com:datatypes""><Description dt:dt=""string"">E-Prime Primary Realtime Clock</Description><StartTime><Timestamp dt:dt=""int"">0</Timestamp><DateUtc dt:dt=""string"">2018-10-25T20:23:46Z</DateUtc></StartTime><FrequencyChanges><FrequencyChange><Frequency dt:dt=""r8"">3215292</Frequency><Timestamp dt:dt=""r8"">1614305785783</Timestamp><Current dt:dt=""r8"">0</Current><DateUtc dt:dt=""string"">2018-10-25T20:23:46Z</DateUtc></FrequencyChange></FrequencyChanges></Clock>\n",KW_Experiment5A-47-1,59.945,1.0.0.105,2,-601304168,Professional,2.0.10.353,2.0.10.353,10/25/2018,10/25/2018 20:23,16:23:46,2.0.10.248,3,2,1,3,,,,,,,,TrainingProc,BlockList,21,2,Distractor1.bmp,1,0,,0,1,318444,601,,0,0,yellow,600,3,600,,horizontal,red,Target2.bmp,purple,Distractor1.bmp,blue,Distractor2.bmp,cyan,Distractor2.bmp,lime,Distractor2.bmp,yellow,Distractor2.bmp,,,,TrialProc,2,TrainingTrialList,1,2,-999999,1,319045,0,2,474,319519,Target2.bmp,red,2,,,,7,4,69
KW_Experiment5A,47,1,"<?xml version=""1.0""?>\n<Clock xmlns:dt=""urn:schemas-microsoft-com:datatypes""><Description dt:dt=""string"">E-Prime Primary Realtime Clock</Description><StartTime><Timestamp dt:dt=""int"">0</Timestamp><DateUtc dt:dt=""string"">2018-10-25T20:23:46Z</DateUtc></StartTime><FrequencyChanges><FrequencyChange><Frequency dt:dt=""r8"">3215292</Frequency><Timestamp dt:dt=""r8"">1614305785783</Timestamp><Current dt:dt=""r8"">0</Current><DateUtc dt:dt=""string"">2018-10-25T20:23:46Z</DateUtc></FrequencyChange></FrequencyChanges></Clock>\n",KW_Experiment5A-47-1,59.945,1.0.0.105,2,-601304168,Professional,2.0.10.353,2.0.10.353,10/25/2018,10/25/2018 20:23,16:23:46,2.0.10.248,3,2,1,3,,,,,,,,TrainingProc,BlockList,22,1,Distractor1.bmp,1,0,,1,0,320529,501,,0,0,blue,500,2,500,,vertical,red,Target1.bmp,lime,Distractor1.bmp,cyan,Distractor2.bmp,yellow,Distractor2.bmp,purple,Distractor2.bmp,blue,Distractor2.bmp,,,,TrialProc,3,TrainingTrialList,1,1,-999999,1,321030,0,1,569,321599,Target1.bmp,red,1,,,,7,4,70
KW_Experiment5A,47,1,"<?xml version=""1.0""?>\n<Clock xmlns:dt=""urn:schemas-microsoft-com:datatypes""><Description dt:dt=""string"">E-Prime Primary Realtime Clock</Description><StartTime><Timestamp dt:dt=""int"">0</Timestamp><DateUtc dt:dt=""string"">2018-10-25T20:23:46Z</DateUtc></StartTime><FrequencyChanges><FrequencyChange><Frequency dt:dt=""r8"">3215292</Frequency><Timestamp dt:dt=""r8"">1614305785783</Timestamp><Current dt:dt=""r8"">0</Current><DateUtc dt:dt=""string"">2018-10-25T20:23:46Z</DateUtc></FrequencyChange></FrequencyChanges></Clock>\n",KW_Experiment5A-47-1,59.945,1.0.0.105,2,-601304168,Professional,2.0.10.353,2.0.10.353,10/25/2018,10/25/2018 20:23,16:23:46,2.0.10.248,3,2,1,3,,,,,,,,TrainingProc,BlockList,23,1,Distractor2.bmp,2,0,,0,1,322615,400,,0,0,purple,400,1,400,5,vertical,purple,Distractor1.bmp,lime,Target1.bmp,blue,Distractor2.bmp,yellow,Distractor2.bmp,cyan,Distractor1.bmp,red,Distractor2.bmp,,,,TrialProc,,TrainingTrialList,0,1,-999999,0,323015,0,2,584,323599,Target1.bmp,lime,1,,,,2,4,71
KW_Experiment5A,47,1,"<?xml version=""1.0""?>\n<Clock xmlns:dt=""urn:schemas-microsoft-com:datatypes""><Description dt:dt=""string"">E-Prime Primary Realtime Clock</Description><StartTime><Timestamp dt:dt=""int"">0</Timestamp><DateUtc dt:dt=""string"">2018-10-25T20:23:46Z</DateUtc></StartTime><FrequencyChanges><FrequencyChange><Frequency dt:dt=""r8"">3215292</Frequency><Timestamp dt:dt=""r8"">1614305785783</Timestamp><Current dt:dt=""r8"">0</Current><DateUtc dt:dt=""string"">2018-10-25T20:23:46Z</DateUtc></FrequencyChange></FrequencyChanges></Clock>\n",KW_Experiment5A-47-1,59.945,1.0.0.105,2,-601304168,Professional,2.0.10.353,2.0.10.353,10/25/2018,10/25/2018 20:23,16:23:46,2.0.10.248,3,2,1,3,,,,,,,,TrainingProc,BlockList,24,2,Distractor2.bmp,2,0,,0,1,324617,400,,0,0,cyan,400,1,400,,horizontal,cyan,Distractor2.bmp,purple,Distractor1.bmp,yellow,Distractor1.bmp,lime,Distractor1.bmp,blue,Distractor2.bmp,red,Target2.bmp,,,,TrialProc,4,TrainingTrialList,0,2,-999999,0,325017,0,1,862,325879,Target2.bmp,red,2,,,,12,4,72
KW_Experiment5A,47,1,"<?xml version=""1.0""?>\n<Clock xmlns:dt=""urn:schemas-microsoft-com:datatypes""><Description dt:dt=""string"">E-Prime Primary Realtime Clock</Description><StartTime><Timestamp dt:dt=""int"">0</Timestamp><DateUtc dt:dt=""string"">2018-10-25T20:23:46Z</DateUtc></StartTime><FrequencyChanges><FrequencyChange><Frequency dt:dt=""r8"">3215292</Frequency><Timestamp dt:dt=""r8"">1614305785783</Timestamp><Current dt:dt=""r8"">0</Current><DateUtc dt:dt=""string"">2018-10-25T20:23:46Z</DateUtc></FrequencyChange></FrequencyChanges></Clock>\n",KW_Experiment5A-47-1,59.945,1.0.0.105,2,-601304168,Professional,2.0.10.353,2.0.10.353,10/25/2018,10/25/2018 20:23,16:23:46,2.0.10.248,3,2,1,3,,,,,,,,TrainingProc,BlockList,25,1,Distractor1.bmp,1,0,,0,1,326902,600,,0,0,yellow,600,3,600,,vertical,yellow,Distractor1.bmp,red,Target1.bmp,purple,Distractor1.bmp,lime,Distractor2.bmp,cyan,Distractor1.bmp,blue,Distractor1.bmp,,,,TrialProc,2,TrainingTrialList,1,1,-999999,0,327502,0,1,865,328367,Target1.bmp,red,1,,,,8,5,73
KW_Experiment5A,47,1,"<?xml version=""1.0""?>\n<Clock xmlns:dt=""urn:schemas-microsoft-com:datatypes""><Description dt:dt=""string"">E-Prime Primary Realtime Clock</Description><StartTime><Timestamp dt:dt=""int"">0</Timestamp><DateUtc dt:dt=""string"">2018-10-25T20:23:46Z</DateUtc></StartTime><FrequencyChanges><FrequencyChange><Frequency dt:dt=""r8"">3215292</Frequency><Timestamp dt:dt=""r8"">1614305785783</Timestamp><Current dt:dt=""r8"">0</Current><DateUtc dt:dt=""string"">2018-10-25T20:23:46Z</DateUtc></FrequencyChange></FrequencyChanges></Clock>\n",KW_Experiment5A-47-1,59.945,1.0.0.105,2,-601304168,Professional,2.0.10.353,2.0.10.353,10/25/2018,10/25/2018 20:23,16:23:46,2.0.10.248,3,2,1,3,,,,,,,,TrainingProc,BlockList,26,1,Distractor1.bmp,1,0,,1,0,329387,601,,0,0,yellow,600,3,600,,vertical,yellow,Distractor2.bmp,cyan,Distractor1.bmp,red,Target1.bmp,purple,Distractor1.bmp,blue,Distractor2.bmp,lime,Distractor1.bmp,,,,TrialProc,2,TrainingTrialList,1,1,-999999,1,329988,0,1,619,330607,Target1.bmp,red,1,,,,9,5,74
KW_Experiment5A,47,1,"<?xml version=""1.0""?>\n<Clock xmlns:dt=""urn:schemas-microsoft-com:datatypes""><Description dt:dt=""string"">E-Prime Primary Realtime Clock</Description><StartTime><Timestamp dt:dt=""int"">0</Timestamp><DateUtc dt:dt=""string"">2018-10-25T20:23:46Z</DateUtc></StartTime><FrequencyChanges><FrequencyChange><Frequency dt:dt=""r8"">3215292</Frequency><Timestamp dt:dt=""r8"">1614305785783</Timestamp><Current dt:dt=""r8"">0</Current><DateUtc dt:dt=""string"">2018-10-25T20:23:46Z</DateUtc></FrequencyChange></FrequencyChanges></Clock>\n",KW_Experiment5A-47-1,59.945,1.0.0.105,2,-601304168,Professional,2.0.10.353,2.0.10.353,10/25/2018,10/25/2018 20:23,16:23:46,2.0.10.248,3,2,1,3,,,,,,,,TrainingProc,BlockList,27,2,Distractor2.bmp,2,0,,0,1,331623,500,,0,0,blue,500,2,500,3,horizontal,lime,Target2.bmp,blue,Distractor2.bmp,red,Distractor1.bmp,yellow,Distractor2.bmp,purple,Distractor2.bmp,cyan,Distractor2.bmp,,,,TrialProc,,TrainingTrialList,1,2,-999999,0,332123,0,2,580,332703,Target2.bmp,lime,2,,,,1,5,75
KW_Experiment5A,47,1,"<?xml version=""1.0""?>\n<Clock xmlns:dt=""urn:schemas-microsoft-com:datatypes""><Description dt:dt=""string"">E-Prime Primary Realtime Clock</Description><StartTime><Timestamp dt:dt=""int"">0</Timestamp><DateUtc dt:dt=""string"">2018-10-25T20:23:46Z</DateUtc></StartTime><FrequencyChanges><FrequencyChange><Frequency dt:dt=""r8"">3215292</Frequency><Timestamp dt:dt=""r8"">1614305785783</Timestamp><Current dt:dt=""r8"">0</Current><DateUtc dt:dt=""string"">2018-10-25T20:23:46Z</DateUtc></FrequencyChange></FrequencyChanges></Clock>\n",KW_Experiment5A-47-1,59.945,1.0.0.105,2,-601304168,Professional,2.0.10.353,2.0.10.353,10/25/2018,10/25/2018 20:23,16:23:46,2.0.10.248,3,2,1,3,,,,,,,,TrainingProc,BlockList,28,2,Distractor2.bmp,2,0,,0,1,333725,500,,0,0,cyan,500,2,500,,horizontal,cyan,Distractor2.bmp,blue,Distractor2.bmp,red,Target2.bmp,lime,Distractor2.bmp,yellow,Distractor1.bmp,purple,Distractor2.bmp,,,,TrialProc,4,TrainingTrialList,0,2,-999999,0,334225,0,1,598,334823,Target2.bmp,red,2,,,,9,5,76
KW_Experiment5A,47,1,"<?xml version=""1.0""?>\n<Clock xmlns:dt=""urn:schemas-microsoft-com:datatypes""><Description dt:dt=""string"">E-Prime Primary Realtime Clock</Description><StartTime><Timestamp dt:dt=""int"">0</Timestamp><DateUtc dt:dt=""string"">2018-10-25T20:23:46Z</DateUtc></StartTime><FrequencyChanges><FrequencyChange><Frequency dt:dt=""r8"">3215292</Frequency><Timestamp dt:dt=""r8"">1614305785783</Timestamp><Current dt:dt=""r8"">0</Current><DateUtc dt:dt=""string"">2018-10-25T20:23:46Z</DateUtc></FrequencyChange></FrequencyChanges></Clock>\n",KW_Experiment5A-47-1,59.945,1.0.0.105,2,-601304168,Professional,2.0.10.353,2.0.10.353,10/25/2018,10/25/2018 20:23,16:23:46,2.0.10.248,3,2,1,3,,,,,,,,TrainingProc,BlockList,29,1,Distractor2.bmp,2,0,,0,1,335843,601,,0,0,yellow,600,3,600,,vertical,yellow,Distractor2.bmp,red,Target1.bmp,purple,Distractor2.bmp,blue,Distractor2.bmp,lime,Distractor2.bmp,cyan,Distractor2.bmp,,,,TrialProc,2,TrainingTrialList,1,1,-999999,1,336444,0,1,603,337047,Target1.bmp,red,1,,,,8,5,77
KW_Experiment5A,47,1,"<?xml version=""1.0""?>\n<Clock xmlns:dt=""urn:schemas-microsoft-com:datatypes""><Description dt:dt=""string"">E-Prime Primary Realtime Clock</Description><StartTime><Timestamp dt:dt=""int"">0</Timestamp><DateUtc dt:dt=""string"">2018-10-25T20:23:46Z</DateUtc></StartTime><FrequencyChanges><FrequencyChange><Frequency dt:dt=""r8"">3215292</Frequency><Timestamp dt:dt=""r8"">1614305785783</Timestamp><Current dt:dt=""r8"">0</Current><DateUtc dt:dt=""string"">2018-10-25T20:23:46Z</DateUtc></FrequencyChange></FrequencyChanges></Clock>\n",KW_Experiment5A-47-1,59.945,1.0.0.105,2,-601304168,Professional,2.0.10.353,2.0.10.353,10/25/2018,10/25/2018 20:23,16:23:46,2.0.10.248,3,2,1,3,,,,,,,,TrainingProc,BlockList,30,2,Distractor2.bmp,2,0,,0,1,338062,501,,0,0,purple,500,2,500,5,horizontal,purple,Distractor1.bmp,red,Distractor1.bmp,cyan,Distractor1.bmp,blue,Distractor2.bmp,lime,Target2.bmp,yellow,Distractor2.bmp,,,,TrialProc,,TrainingTrialList,0,2,-999999,1,338563,0,1,643,339206,Target2.bmp,lime,2,,,,5,5,78
KW_Experiment5A,47,1,"<?xml version=""1.0""?>\n<Clock xmlns:dt=""urn:schemas-microsoft-com:datatypes""><Description dt:dt=""string"">E-Prime Primary Realtime Clock</Description><StartTime><Timestamp dt:dt=""int"">0</Timestamp><DateUtc dt:dt=""string"">2018-10-25T20:23:46Z</DateUtc></StartTime><FrequencyChanges><FrequencyChange><Frequency dt:dt=""r8"">3215292</Frequency><Timestamp dt:dt=""r8"">1614305785783</Timestamp><Current dt:dt=""r8"">0</Current><DateUtc dt:dt=""string"">2018-10-25T20:23:46Z</DateUtc></FrequencyChange></FrequencyChanges></Clock>\n",KW_Experiment5A-47-1,59.945,1.0.0.105,2,-601304168,Professional,2.0.10.353,2.0.10.353,10/25/2018,10/25/2018 20:23,16:23:46,2.0.10.248,3,2,1,3,,,,,,,,TrainingProc,BlockList,31,1,Distractor2.bmp,2,0,,0,1,340231,500,,0,0,blue,500,2,500,,vertical,blue,Distractor2.bmp,cyan,Distractor1.bmp,yellow,Distractor2.bmp,purple,Distractor1.bmp,lime,Distractor1.bmp,red,Target1.bmp,,,,TrialProc,3,TrainingTrialList,0,1,-999999,0,340731,0,2,667,341398,Target1.bmp,red,1,,,,12,5,79
KW_Experiment5A,47,1,"<?xml version=""1.0""?>\n<Clock xmlns:dt=""urn:schemas-microsoft-com:datatypes""><Description dt:dt=""string"">E-Prime Primary Realtime Clock</Description><StartTime><Timestamp dt:dt=""int"">0</Timestamp><DateUtc dt:dt=""string"">2018-10-25T20:23:46Z</DateUtc></StartTime><FrequencyChanges><FrequencyChange><Frequency dt:dt=""r8"">3215292</Frequency><Timestamp dt:dt=""r8"">1614305785783</Timestamp><Current dt:dt=""r8"">0</Current><DateUtc dt:dt=""string"">2018-10-25T20:23:46Z</DateUtc></FrequencyChange></FrequencyChanges></Clock>\n",KW_Experiment5A-47-1,59.945,1.0.0.105,2,-601304168,Professional,2.0.10.353,2.0.10.353,10/25/2018,10/25/2018 20:23,16:23:46,2.0.10.248,3,2,1,3,,,,,,,,TrainingProc,BlockList,32,2,Distractor1.bmp,1,0,,0,1,342416,500,,0,0,yellow,500,2,500,,horizontal,red,Target2.bmp,cyan,Distractor1.bmp,blue,Distractor2.bmp,lime,Distractor1.bmp,purple,Distractor2.bmp,yellow,Distractor1.bmp,,,,TrialProc,2,TrainingTrialList,1,2,-999999,0,342916,0,2,826,343742,Target2.bmp,red,2,,,,7,5,80
KW_Experiment5A,47,1,"<?xml version=""1.0""?>\n<Clock xmlns:dt=""urn:schemas-microsoft-com:datatypes""><Description dt:dt=""string"">E-Prime Primary Realtime Clock</Description><StartTime><Timestamp dt:dt=""int"">0</Timestamp><DateUtc dt:dt=""string"">2018-10-25T20:23:46Z</DateUtc></StartTime><FrequencyChanges><FrequencyChange><Frequency dt:dt=""r8"">3215292</Frequency><Timestamp dt:dt=""r8"">1614305785783</Timestamp><Current dt:dt=""r8"">0</Current><DateUtc dt:dt=""string"">2018-10-25T20:23:46Z</DateUtc></FrequencyChange></FrequencyChanges></Clock>\n",KW_Experiment5A-47-1,59.945,1.0.0.105,2,-601304168,Professional,2.0.10.353,2.0.10.353,10/25/2018,10/25/2018 20:23,16:23:46,2.0.10.248,3,2,1,3,,,,,,,,TrainingProc,BlockList,33,1,Distractor2.bmp,2,0,,0,1,344768,501,,0,0,yellow,500,2,500,,vertical,yellow,Distractor2.bmp,lime,Distractor1.bmp,purple,Distractor2.bmp,cyan,Distractor1.bmp,blue,Distractor1.bmp,red,Target1.bmp,,,,TrialProc,2,TrainingTrialList,1,1,-999999,1,345269,0,1,553,345822,Target1.bmp,red,1,,,,12,5,81
KW_Experiment5A,47,1,"<?xml version=""1.0""?>\n<Clock xmlns:dt=""urn:schemas-microsoft-com:datatypes""><Description dt:dt=""string"">E-Prime Primary Realtime Clock</Description><StartTime><Timestamp dt:dt=""int"">0</Timestamp><DateUtc dt:dt=""string"">2018-10-25T20:23:46Z</DateUtc></StartTime><FrequencyChanges><FrequencyChange><Frequency dt:dt=""r8"">3215292</Frequency><Timestamp dt:dt=""r8"">1614305785783</Timestamp><Current dt:dt=""r8"">0</Current><DateUtc dt:dt=""string"">2018-10-25T20:23:46Z</DateUtc></FrequencyChange></FrequencyChanges></Clock>\n",KW_Experiment5A-47-1,59.945,1.0.0.105,2,-601304168,Professional,2.0.10.353,2.0.10.353,10/25/2018,10/25/2018 20:23,16:23:46,2.0.10.248,3,2,1,3,,,,,,,,TrainingProc,BlockList,34,1,Distractor1.bmp,1,0,,0,1,346837,400,,0,0,red,400,1,400,1,vertical,red,Distractor2.bmp,cyan,Distractor1.bmp,lime,Target1.bmp,purple,Distractor1.bmp,blue,Distractor1.bmp,yellow,Distractor2.bmp,,,,TrialProc,,TrainingTrialList,1,1,-999999,0,347237,0,1,841,348078,Target1.bmp,lime,1,,,,3,5,82
KW_Experiment5A,47,1,"<?xml version=""1.0""?>\n<Clock xmlns:dt=""urn:schemas-microsoft-com:datatypes""><Description dt:dt=""string"">E-Prime Primary Realtime Clock</Description><StartTime><Timestamp dt:dt=""int"">0</Timestamp><DateUtc dt:dt=""string"">2018-10-25T20:23:46Z</DateUtc></StartTime><FrequencyChanges><FrequencyChange><Frequency dt:dt=""r8"">3215292</Frequency><Timestamp dt:dt=""r8"">1614305785783</Timestamp><Current dt:dt=""r8"">0</Current><DateUtc dt:dt=""string"">2018-10-25T20:23:46Z</DateUtc></FrequencyChange></FrequencyChanges></Clock>\n",KW_Experiment5A-47-1,59.945,1.0.0.105,2,-601304168,Professional,2.0.10.353,2.0.10.353,10/25/2018,10/25/2018 20:23,16:23:46,2.0.10.248,3,2,1,3,,,,,,,,TrainingProc,BlockList,35,1,Distractor1.bmp,1,0,,0,1,349089,500,,0,0,lime,500,2,500,,vertical,lime,Distractor1.bmp,cyan,Distractor1.bmp,yellow,Distractor1.bmp,red,Target1.bmp,blue,Distractor1.bmp,purple,Distractor2.bmp,,,,TrialProc,6,TrainingTrialList,1,1,-999999,0,349589,0,1,625,350214,Target1.bmp,red,1,,,,10,5,83
KW_Experiment5A,47,1,"<?xml version=""1.0""?>\n<Clock xmlns:dt=""urn:schemas-microsoft-com:datatypes""><Description dt:dt=""string"">E-Prime Primary Realtime Clock</Description><StartTime><Timestamp dt:dt=""int"">0</Timestamp><DateUtc dt:dt=""string"">2018-10-25T20:23:46Z</DateUtc></StartTime><FrequencyChanges><FrequencyChange><Frequency dt:dt=""r8"">3215292</Frequency><Timestamp dt:dt=""r8"">1614305785783</Timestamp><Current dt:dt=""r8"">0</Current><DateUtc dt:dt=""string"">2018-10-25T20:23:46Z</DateUtc></FrequencyChange></FrequencyChanges></Clock>\n",KW_Experiment5A-47-1,59.945,1.0.0.105,2,-601304168,Professional,2.0.10.353,2.0.10.353,10/25/2018,10/25/2018 20:23,16:23:46,2.0.10.248,3,2,1,3,,,,,,,,TrainingProc,BlockList,36,1,Distractor1.bmp,1,0,,0,1,351224,601,,0,0,yellow,600,3,600,2,vertical,yellow,Distractor1.bmp,lime,Target1.bmp,blue,Distractor1.bmp,purple,Distractor1.bmp,red,Distractor1.bmp,cyan,Distractor1.bmp,,,,TrialProc,,TrainingTrialList,1,1,-999999,1,351825,0,1,1013,352838,Target1.bmp,lime,1,,,,2,5,84
KW_Experiment5A,47,1,"<?xml version=""1.0""?>\n<Clock xmlns:dt=""urn:schemas-microsoft-com:datatypes""><Description dt:dt=""string"">E-Prime Primary Realtime Clock</Description><StartTime><Timestamp dt:dt=""int"">0</Timestamp><DateUtc dt:dt=""string"">2018-10-25T20:23:46Z</DateUtc></StartTime><FrequencyChanges><FrequencyChange><Frequency dt:dt=""r8"">3215292</Frequency><Timestamp dt:dt=""r8"">1614305785783</Timestamp><Current dt:dt=""r8"">0</Current><DateUtc dt:dt=""string"">2018-10-25T20:23:46Z</DateUtc></FrequencyChange></FrequencyChanges></Clock>\n",KW_Experiment5A-47-1,59.945,1.0.0.105,2,-601304168,Professional,2.0.10.353,2.0.10.353,10/25/2018,10/25/2018 20:23,16:23:46,2.0.10.248,3,2,1,3,,,,,,,,TrainingProc,BlockList,37,2,Distractor2.bmp,2,0,,0,1,353860,500,,0,0,purple,500,2,500,,horizontal,purple,Distractor2.bmp,red,Target2.bmp,blue,Distractor2.bmp,cyan,Distractor2.bmp,yellow,Distractor2.bmp,lime,Distractor2.bmp,,,,TrialProc,5,TrainingTrialList,1,2,-999999,0,354360,0,2,678,355038,Target2.bmp,red,2,,,,8,5,85
KW_Experiment5A,47,1,"<?xml version=""1.0""?>\n<Clock xmlns:dt=""urn:schemas-microsoft-com:datatypes""><Description dt:dt=""string"">E-Prime Primary Realtime Clock</Description><StartTime><Timestamp dt:dt=""int"">0</Timestamp><DateUtc dt:dt=""string"">2018-10-25T20:23:46Z</DateUtc></StartTime><FrequencyChanges><FrequencyChange><Frequency dt:dt=""r8"">3215292</Frequency><Timestamp dt:dt=""r8"">1614305785783</Timestamp><Current dt:dt=""r8"">0</Current><DateUtc dt:dt=""string"">2018-10-25T20:23:46Z</DateUtc></FrequencyChange></FrequencyChanges></Clock>\n",KW_Experiment5A-47-1,59.945,1.0.0.105,2,-601304168,Professional,2.0.10.353,2.0.10.353,10/25/2018,10/25/2018 20:23,16:23:46,2.0.10.248,3,2,1,3,,,,,,,,TrainingProc,BlockList,38,2,Distractor1.bmp,1,0,,0,1,356062,600,,0,0,cyan,600,3,600,4,horizontal,cyan,Distractor1.bmp,yellow,Distractor2.bmp,purple,Distractor2.bmp,red,Distractor2.bmp,blue,Distractor1.bmp,lime,Target2.bmp,,,,TrialProc,,TrainingTrialList,1,2,-999999,0,356662,0,2,624,357286,Target2.bmp,lime,2,,,,6,5,86
KW_Experiment5A,47,1,"<?xml version=""1.0""?>\n<Clock xmlns:dt=""urn:schemas-microsoft-com:datatypes""><Description dt:dt=""string"">E-Prime Primary Realtime Clock</Description><StartTime><Timestamp dt:dt=""int"">0</Timestamp><DateUtc dt:dt=""string"">2018-10-25T20:23:46Z</DateUtc></StartTime><FrequencyChanges><FrequencyChange><Frequency dt:dt=""r8"">3215292</Frequency><Timestamp dt:dt=""r8"">1614305785783</Timestamp><Current dt:dt=""r8"">0</Current><DateUtc dt:dt=""string"">2018-10-25T20:23:46Z</DateUtc></FrequencyChange></FrequencyChanges></Clock>\n",KW_Experiment5A-47-1,59.945,1.0.0.105,2,-601304168,Professional,2.0.10.353,2.0.10.353,10/25/2018,10/25/2018 20:23,16:23:46,2.0.10.248,3,2,1,3,,,,,,,,TrainingProc,BlockList,39,2,Distractor2.bmp,2,0,,0,1,358297,501,,0,0,yellow,500,2,500,,horizontal,yellow,Distractor2.bmp,blue,Distractor1.bmp,purple,Distractor2.bmp,cyan,Distractor2.bmp,red,Target2.bmp,lime,Distractor2.bmp,,,,TrialProc,2,TrainingTrialList,1,2,-999999,1,358798,0,2,672,359470,Target2.bmp,red,2,,,,11,5,87
KW_Experiment5A,47,1,"<?xml version=""1.0""?>\n<Clock xmlns:dt=""urn:schemas-microsoft-com:datatypes""><Description dt:dt=""string"">E-Prime Primary Realtime Clock</Description><StartTime><Timestamp dt:dt=""int"">0</Timestamp><DateUtc dt:dt=""string"">2018-10-25T20:23:46Z</DateUtc></StartTime><FrequencyChanges><FrequencyChange><Frequency dt:dt=""r8"">3215292</Frequency><Timestamp dt:dt=""r8"">1614305785783</Timestamp><Current dt:dt=""r8"">0</Current><DateUtc dt:dt=""string"">2018-10-25T20:23:46Z</DateUtc></FrequencyChange></FrequencyChanges></Clock>\n",KW_Experiment5A-47-1,59.945,1.0.0.105,2,-601304168,Professional,2.0.10.353,2.0.10.353,10/25/2018,10/25/2018 20:23,16:23:46,2.0.10.248,3,2,1,3,,,,,,,,TrainingProc,BlockList,40,1,Distractor2.bmp,2,0,,0,1,360482,601,,0,0,lime,600,3,600,,vertical,lime,Distractor1.bmp,yellow,Distractor2.bmp,cyan,Distractor1.bmp,blue,Distractor1.bmp,red,Target1.bmp,purple,Distractor2.bmp,,,,TrialProc,6,TrainingTrialList,0,1,-999999,1,361083,0,2,483,361566,Target1.bmp,red,1,,,,11,5,88
KW_Experiment5A,47,1,"<?xml version=""1.0""?>\n<Clock xmlns:dt=""urn:schemas-microsoft-com:datatypes""><Description dt:dt=""string"">E-Prime Primary Realtime Clock</Description><StartTime><Timestamp dt:dt=""int"">0</Timestamp><DateUtc dt:dt=""string"">2018-10-25T20:23:46Z</DateUtc></StartTime><FrequencyChanges><FrequencyChange><Frequency dt:dt=""r8"">3215292</Frequency><Timestamp dt:dt=""r8"">1614305785783</Timestamp><Current dt:dt=""r8"">0</Current><DateUtc dt:dt=""string"">2018-10-25T20:23:46Z</DateUtc></FrequencyChange></FrequencyChanges></Clock>\n",KW_Experiment5A-47-1,59.945,1.0.0.105,2,-601304168,Professional,2.0.10.353,2.0.10.353,10/25/2018,10/25/2018 20:23,16:23:46,2.0.10.248,3,2,1,3,,,,,,,,TrainingProc,BlockList,41,1,Distractor2.bmp,2,0,,0,1,362584,401,,0,0,lime,400,1,400,,vertical,lime,Distractor2.bmp,yellow,Distractor1.bmp,purple,Distractor1.bmp,blue,Distractor2.bmp,red,Target1.bmp,cyan,Distractor2.bmp,,,,TrialProc,6,TrainingTrialList,1,1,-999999,1,362985,0,1,645,363630,Target1.bmp,red,1,,,,11,5,89
KW_Experiment5A,47,1,"<?xml version=""1.0""?>\n<Clock xmlns:dt=""urn:schemas-microsoft-com:datatypes""><Description dt:dt=""string"">E-Prime Primary Realtime Clock</Description><StartTime><Timestamp dt:dt=""int"">0</Timestamp><DateUtc dt:dt=""string"">2018-10-25T20:23:46Z</DateUtc></StartTime><FrequencyChanges><FrequencyChange><Frequency dt:dt=""r8"">3215292</Frequency><Timestamp dt:dt=""r8"">1614305785783</Timestamp><Current dt:dt=""r8"">0</Current><DateUtc dt:dt=""string"">2018-10-25T20:23:46Z</DateUtc></FrequencyChange></FrequencyChanges></Clock>\n",KW_Experiment5A-47-1,59.945,1.0.0.105,2,-601304168,Professional,2.0.10.353,2.0.10.353,10/25/2018,10/25/2018 20:23,16:23:46,2.0.10.248,3,2,1,3,,,,,,,,TrainingProc,BlockList,42,2,Distractor2.bmp,2,0,,0,1,364653,400,,0,0,cyan,400,1,400,,horizontal,cyan,Distractor2.bmp,yellow,Distractor1.bmp,lime,Distractor2.bmp,blue,Distractor1.bmp,purple,Distractor2.bmp,red,Target2.bmp,,,,TrialProc,4,TrainingTrialList,0,2,-999999,0,365053,0,1,457,365510,Target2.bmp,red,2,,,,12,5,90
