ExperimentName,Subject,Session,Clock.Information,DataFile.Basename,Display.RefreshRate,ExperimentVersion,Group,RandomSeed,RuntimeCapabilities,RuntimeVersion,RuntimeVersionExpected,SessionDate,SessionStartDateTimeUtc,SessionTime,StudioVersion,Block,BlockList,BlockList.Cycle,BlockList.Sample,PostTestQ1.RESP,PostTestQ1CJ.RESP,PostTestQ2.RESP,PostTestQ2CJ.RESP,PostTestQ3.RESP,PostTestQ3CJ.RESP,PostTestSlide.RESP,Procedure[Block],Running[Block],Trial,CorrectResponse,Distractor,DistractorList,Fixation.ACC,Fixation.CRESP,Fixation.DurationError,Fixation.OnsetDelay,Fixation.OnsetTime,Fixation.OnsetToOnsetTime,Fixation.RESP,Fixation.RT,Fixation.RTTime,ItemColor,Jitter,JitterList,JitterTime,Lime0List,Orientation,Pos1Color,Pos1Item,Pos2Color,Pos2Item,Pos3Color,Pos3Item,Pos4Color,Pos4Item,Pos5Color,Pos5Item,Pos6Color,Pos6Item,PracticeTrialList,PracticeTrialList.Cycle,PracticeTrialList.Sample,Procedure[Trial],Red0List,Running[Trial],Stimulus.ACC,Stimulus.CRESP,Stimulus.DurationError,Stimulus.OnsetDelay,Stimulus.OnsetTime,Stimulus.OnsetToOnsetTime,Stimulus.RESP,Stimulus.RT,Stimulus.RTTime,Target,TargetColor,TargetList,TestTrialList,TestTrialList.Cycle,TestTrialList.Sample,TrainingTrialList,TrainingTrialList.Cycle,TrainingTrialList.Sample
KW_Experiment5A,40,1,"<?xml version=""1.0""?>\n<Clock xmlns:dt=""urn:schemas-microsoft-com:datatypes""><Description dt:dt=""string"">E-Prime Primary Realtime Clock</Description><StartTime><Timestamp dt:dt=""int"">0</Timestamp><DateUtc dt:dt=""string"">2018-10-24T17:16:56Z</DateUtc></StartTime><FrequencyChanges><FrequencyChange><Frequency dt:dt=""r8"">3215292</Frequency><Timestamp dt:dt=""r8"">1300472781907</Timestamp><Current dt:dt=""r8"">0</Current><DateUtc dt:dt=""string"">2018-10-24T17:16:56Z</DateUtc></FrequencyChange></FrequencyChanges></Clock>\n",KW_Experiment5A-40-1,59.946,1.0.0.105,1,-901694713,Professional,2.0.10.353,2.0.10.353,10/24/2018,10/24/2018 17:16,13:16:56,2.0.10.248,1,1,1,1,,,,,,,,PracticeProc,BlockList,1,1,Distractor1.bmp,1,0,,0,45,47319,601,,0,0,purple,600,3,600,5,vertical,red,Distractor1.bmp,cyan,Distractor2.bmp,blue,Distractor1.bmp,purple,Distractor2.bmp,lime,Target1.bmp,yellow,Distractor1.bmp,5,1,1,TrialProc,,PracticeTrialList,1,1,-999999,1,47920,0,1,8762,56682,Target1.bmp,lime,1,,,,,,
KW_Experiment5A,40,1,"<?xml version=""1.0""?>\n<Clock xmlns:dt=""urn:schemas-microsoft-com:datatypes""><Description dt:dt=""string"">E-Prime Primary Realtime Clock</Description><StartTime><Timestamp dt:dt=""int"">0</Timestamp><DateUtc dt:dt=""string"">2018-10-24T17:16:56Z</DateUtc></StartTime><FrequencyChanges><FrequencyChange><Frequency dt:dt=""r8"">3215292</Frequency><Timestamp dt:dt=""r8"">1300472781907</Timestamp><Current dt:dt=""r8"">0</Current><DateUtc dt:dt=""string"">2018-10-24T17:16:56Z</DateUtc></FrequencyChange></FrequencyChanges></Clock>\n",KW_Experiment5A-40-1,59.946,1.0.0.105,1,-901694713,Professional,2.0.10.353,2.0.10.353,10/24/2018,10/24/2018 17:16,13:16:56,2.0.10.248,1,1,1,1,,,,,,,,PracticeProc,BlockList,2,2,Distractor1.bmp,1,0,,0,1,57712,601,,0,0,blue,600,3,600,3,horizontal,yellow,Distractor2.bmp,blue,Distractor2.bmp,lime,Target2.bmp,cyan,Distractor1.bmp,red,Distractor2.bmp,purple,Distractor2.bmp,3,1,2,TrialProc,,PracticeTrialList,1,2,-999999,1,58313,0,2,1217,59530,Target2.bmp,lime,2,,,,,,
KW_Experiment5A,40,1,"<?xml version=""1.0""?>\n<Clock xmlns:dt=""urn:schemas-microsoft-com:datatypes""><Description dt:dt=""string"">E-Prime Primary Realtime Clock</Description><StartTime><Timestamp dt:dt=""int"">0</Timestamp><DateUtc dt:dt=""string"">2018-10-24T17:16:56Z</DateUtc></StartTime><FrequencyChanges><FrequencyChange><Frequency dt:dt=""r8"">3215292</Frequency><Timestamp dt:dt=""r8"">1300472781907</Timestamp><Current dt:dt=""r8"">0</Current><DateUtc dt:dt=""string"">2018-10-24T17:16:56Z</DateUtc></FrequencyChange></FrequencyChanges></Clock>\n",KW_Experiment5A-40-1,59.946,1.0.0.105,1,-901694713,Professional,2.0.10.353,2.0.10.353,10/24/2018,10/24/2018 17:16,13:16:56,2.0.10.248,1,1,1,1,,,,,,,,PracticeProc,BlockList,3,2,Distractor2.bmp,2,0,,0,1,60548,500,,0,0,purple,500,2,500,,horizontal,lime,Distractor2.bmp,cyan,Distractor2.bmp,purple,Distractor1.bmp,red,Target2.bmp,yellow,Distractor2.bmp,blue,Distractor2.bmp,4,1,3,TrialProc,5,PracticeTrialList,0,2,-999999,0,61048,0,1,874,61922,Target2.bmp,red,2,,,,,,
KW_Experiment5A,40,1,"<?xml version=""1.0""?>\n<Clock xmlns:dt=""urn:schemas-microsoft-com:datatypes""><Description dt:dt=""string"">E-Prime Primary Realtime Clock</Description><StartTime><Timestamp dt:dt=""int"">0</Timestamp><DateUtc dt:dt=""string"">2018-10-24T17:16:56Z</DateUtc></StartTime><FrequencyChanges><FrequencyChange><Frequency dt:dt=""r8"">3215292</Frequency><Timestamp dt:dt=""r8"">1300472781907</Timestamp><Current dt:dt=""r8"">0</Current><DateUtc dt:dt=""string"">2018-10-24T17:16:56Z</DateUtc></FrequencyChange></FrequencyChanges></Clock>\n",KW_Experiment5A-40-1,59.946,1.0.0.105,1,-901694713,Professional,2.0.10.353,2.0.10.353,10/24/2018,10/24/2018 17:16,13:16:56,2.0.10.248,1,1,1,1,,,,,,,,PracticeProc,BlockList,4,2,Distractor1.bmp,1,0,,0,1,62950,400,,0,0,purple,400,1,400,5,horizontal,lime,Target2.bmp,red,Distractor1.bmp,yellow,Distractor2.bmp,cyan,Distractor1.bmp,blue,Distractor1.bmp,purple,Distractor1.bmp,1,1,4,TrialProc,,PracticeTrialList,1,2,-999999,0,63350,0,2,1044,64394,Target2.bmp,lime,2,,,,,,
KW_Experiment5A,40,1,"<?xml version=""1.0""?>\n<Clock xmlns:dt=""urn:schemas-microsoft-com:datatypes""><Description dt:dt=""string"">E-Prime Primary Realtime Clock</Description><StartTime><Timestamp dt:dt=""int"">0</Timestamp><DateUtc dt:dt=""string"">2018-10-24T17:16:56Z</DateUtc></StartTime><FrequencyChanges><FrequencyChange><Frequency dt:dt=""r8"">3215292</Frequency><Timestamp dt:dt=""r8"">1300472781907</Timestamp><Current dt:dt=""r8"">0</Current><DateUtc dt:dt=""string"">2018-10-24T17:16:56Z</DateUtc></FrequencyChange></FrequencyChanges></Clock>\n",KW_Experiment5A-40-1,59.946,1.0.0.105,1,-901694713,Professional,2.0.10.353,2.0.10.353,10/24/2018,10/24/2018 17:16,13:16:56,2.0.10.248,1,1,1,1,,,,,,,,PracticeProc,BlockList,5,1,Distractor2.bmp,2,0,,0,1,65419,601,,0,0,purple,600,3,600,,vertical,purple,Distractor1.bmp,red,Target1.bmp,yellow,Distractor2.bmp,lime,Distractor1.bmp,cyan,Distractor2.bmp,blue,Distractor2.bmp,2,1,5,TrialProc,5,PracticeTrialList,1,1,-999999,1,66020,0,1,790,66810,Target1.bmp,red,1,,,,,,
KW_Experiment5A,40,1,"<?xml version=""1.0""?>\n<Clock xmlns:dt=""urn:schemas-microsoft-com:datatypes""><Description dt:dt=""string"">E-Prime Primary Realtime Clock</Description><StartTime><Timestamp dt:dt=""int"">0</Timestamp><DateUtc dt:dt=""string"">2018-10-24T17:16:56Z</DateUtc></StartTime><FrequencyChanges><FrequencyChange><Frequency dt:dt=""r8"">3215292</Frequency><Timestamp dt:dt=""r8"">1300472781907</Timestamp><Current dt:dt=""r8"">0</Current><DateUtc dt:dt=""string"">2018-10-24T17:16:56Z</DateUtc></FrequencyChange></FrequencyChanges></Clock>\n",KW_Experiment5A-40-1,59.946,1.0.0.105,1,-901694713,Professional,2.0.10.353,2.0.10.353,10/24/2018,10/24/2018 17:16,13:16:56,2.0.10.248,1,1,1,1,,,,,,,,PracticeProc,BlockList,6,2,Distractor2.bmp,2,0,,0,1,67821,401,,0,0,cyan,400,1,400,,horizontal,lime,Distractor2.bmp,blue,Distractor1.bmp,purple,Distractor2.bmp,yellow,Distractor2.bmp,cyan,Distractor2.bmp,red,Target2.bmp,6,1,6,TrialProc,4,PracticeTrialList,1,2,-999999,1,68222,0,2,788,69010,Target2.bmp,red,2,,,,,,
KW_Experiment5A,40,1,"<?xml version=""1.0""?>\n<Clock xmlns:dt=""urn:schemas-microsoft-com:datatypes""><Description dt:dt=""string"">E-Prime Primary Realtime Clock</Description><StartTime><Timestamp dt:dt=""int"">0</Timestamp><DateUtc dt:dt=""string"">2018-10-24T17:16:56Z</DateUtc></StartTime><FrequencyChanges><FrequencyChange><Frequency dt:dt=""r8"">3215292</Frequency><Timestamp dt:dt=""r8"">1300472781907</Timestamp><Current dt:dt=""r8"">0</Current><DateUtc dt:dt=""string"">2018-10-24T17:16:56Z</DateUtc></FrequencyChange></FrequencyChanges></Clock>\n",KW_Experiment5A-40-1,59.946,1.0.0.105,1,-901694713,Professional,2.0.10.353,2.0.10.353,10/24/2018,10/24/2018 17:16,13:16:56,2.0.10.248,2,2,1,2,,,,,,,,TrainingProc,BlockList,1,2,Distractor2.bmp,2,0,,0,17,75378,601,,0,0,purple,600,3,600,,horizontal,purple,Distractor1.bmp,yellow,Distractor2.bmp,lime,Distractor2.bmp,blue,Distractor1.bmp,red,Target2.bmp,cyan,Distractor2.bmp,,,,TrialProc,5,TrainingTrialList,1,2,-999999,1,75979,0,2,1118,77097,Target2.bmp,red,2,,,,11,1,1
KW_Experiment5A,40,1,"<?xml version=""1.0""?>\n<Clock xmlns:dt=""urn:schemas-microsoft-com:datatypes""><Description dt:dt=""string"">E-Prime Primary Realtime Clock</Description><StartTime><Timestamp dt:dt=""int"">0</Timestamp><DateUtc dt:dt=""string"">2018-10-24T17:16:56Z</DateUtc></StartTime><FrequencyChanges><FrequencyChange><Frequency dt:dt=""r8"">3215292</Frequency><Timestamp dt:dt=""r8"">1300472781907</Timestamp><Current dt:dt=""r8"">0</Current><DateUtc dt:dt=""string"">2018-10-24T17:16:56Z</DateUtc></FrequencyChange></FrequencyChanges></Clock>\n",KW_Experiment5A-40-1,59.946,1.0.0.105,1,-901694713,Professional,2.0.10.353,2.0.10.353,10/24/2018,10/24/2018 17:16,13:16:56,2.0.10.248,2,2,1,2,,,,,,,,TrainingProc,BlockList,2,2,Distractor2.bmp,2,0,,0,1,78114,400,,0,0,purple,400,1,400,5,horizontal,purple,Distractor2.bmp,red,Distractor2.bmp,cyan,Distractor1.bmp,yellow,Distractor2.bmp,blue,Distractor1.bmp,lime,Target2.bmp,,,,TrialProc,,TrainingTrialList,1,2,-999999,0,78514,0,2,767,79281,Target2.bmp,lime,2,,,,6,1,2
KW_Experiment5A,40,1,"<?xml version=""1.0""?>\n<Clock xmlns:dt=""urn:schemas-microsoft-com:datatypes""><Description dt:dt=""string"">E-Prime Primary Realtime Clock</Description><StartTime><Timestamp dt:dt=""int"">0</Timestamp><DateUtc dt:dt=""string"">2018-10-24T17:16:56Z</DateUtc></StartTime><FrequencyChanges><FrequencyChange><Frequency dt:dt=""r8"">3215292</Frequency><Timestamp dt:dt=""r8"">1300472781907</Timestamp><Current dt:dt=""r8"">0</Current><DateUtc dt:dt=""string"">2018-10-24T17:16:56Z</DateUtc></FrequencyChange></FrequencyChanges></Clock>\n",KW_Experiment5A-40-1,59.946,1.0.0.105,1,-901694713,Professional,2.0.10.353,2.0.10.353,10/24/2018,10/24/2018 17:16,13:16:56,2.0.10.248,2,2,1,2,,,,,,,,TrainingProc,BlockList,3,2,Distractor2.bmp,2,0,,0,1,80299,401,,0,0,cyan,400,1,400,,horizontal,cyan,Distractor1.bmp,lime,Distractor2.bmp,red,Target2.bmp,blue,Distractor2.bmp,yellow,Distractor2.bmp,purple,Distractor2.bmp,,,,TrialProc,4,TrainingTrialList,1,2,-999999,1,80700,0,2,669,81369,Target2.bmp,red,2,,,,9,1,3
KW_Experiment5A,40,1,"<?xml version=""1.0""?>\n<Clock xmlns:dt=""urn:schemas-microsoft-com:datatypes""><Description dt:dt=""string"">E-Prime Primary Realtime Clock</Description><StartTime><Timestamp dt:dt=""int"">0</Timestamp><DateUtc dt:dt=""string"">2018-10-24T17:16:56Z</DateUtc></StartTime><FrequencyChanges><FrequencyChange><Frequency dt:dt=""r8"">3215292</Frequency><Timestamp dt:dt=""r8"">1300472781907</Timestamp><Current dt:dt=""r8"">0</Current><DateUtc dt:dt=""string"">2018-10-24T17:16:56Z</DateUtc></FrequencyChange></FrequencyChanges></Clock>\n",KW_Experiment5A-40-1,59.946,1.0.0.105,1,-901694713,Professional,2.0.10.353,2.0.10.353,10/24/2018,10/24/2018 17:16,13:16:56,2.0.10.248,2,2,1,2,,,,,,,,TrainingProc,BlockList,4,2,Distractor2.bmp,2,0,,0,1,82384,501,,0,0,yellow,500,2,500,2,horizontal,lime,Target2.bmp,yellow,Distractor2.bmp,cyan,Distractor1.bmp,blue,Distractor2.bmp,purple,Distractor1.bmp,red,Distractor1.bmp,,,,TrialProc,,TrainingTrialList,1,2,-999999,1,82885,0,2,660,83545,Target2.bmp,lime,2,,,,1,1,4
KW_Experiment5A,40,1,"<?xml version=""1.0""?>\n<Clock xmlns:dt=""urn:schemas-microsoft-com:datatypes""><Description dt:dt=""string"">E-Prime Primary Realtime Clock</Description><StartTime><Timestamp dt:dt=""int"">0</Timestamp><DateUtc dt:dt=""string"">2018-10-24T17:16:56Z</DateUtc></StartTime><FrequencyChanges><FrequencyChange><Frequency dt:dt=""r8"">3215292</Frequency><Timestamp dt:dt=""r8"">1300472781907</Timestamp><Current dt:dt=""r8"">0</Current><DateUtc dt:dt=""string"">2018-10-24T17:16:56Z</DateUtc></FrequencyChange></FrequencyChanges></Clock>\n",KW_Experiment5A-40-1,59.946,1.0.0.105,1,-901694713,Professional,2.0.10.353,2.0.10.353,10/24/2018,10/24/2018 17:16,13:16:56,2.0.10.248,2,2,1,2,,,,,,,,TrainingProc,BlockList,5,2,Distractor1.bmp,1,0,,0,1,84570,400,,0,0,blue,400,1,400,3,horizontal,blue,Distractor1.bmp,cyan,Distractor2.bmp,lime,Target2.bmp,yellow,Distractor1.bmp,red,Distractor1.bmp,purple,Distractor2.bmp,,,,TrialProc,,TrainingTrialList,1,2,-999999,0,84970,0,2,663,85633,Target2.bmp,lime,2,,,,3,1,5
KW_Experiment5A,40,1,"<?xml version=""1.0""?>\n<Clock xmlns:dt=""urn:schemas-microsoft-com:datatypes""><Description dt:dt=""string"">E-Prime Primary Realtime Clock</Description><StartTime><Timestamp dt:dt=""int"">0</Timestamp><DateUtc dt:dt=""string"">2018-10-24T17:16:56Z</DateUtc></StartTime><FrequencyChanges><FrequencyChange><Frequency dt:dt=""r8"">3215292</Frequency><Timestamp dt:dt=""r8"">1300472781907</Timestamp><Current dt:dt=""r8"">0</Current><DateUtc dt:dt=""string"">2018-10-24T17:16:56Z</DateUtc></FrequencyChange></FrequencyChanges></Clock>\n",KW_Experiment5A-40-1,59.946,1.0.0.105,1,-901694713,Professional,2.0.10.353,2.0.10.353,10/24/2018,10/24/2018 17:16,13:16:56,2.0.10.248,2,2,1,2,,,,,,,,TrainingProc,BlockList,6,1,Distractor2.bmp,2,0,,0,1,86655,500,,0,0,red,500,2,500,1,vertical,red,Distractor1.bmp,cyan,Distractor2.bmp,purple,Distractor1.bmp,blue,Distractor2.bmp,lime,Target1.bmp,yellow,Distractor2.bmp,,,,TrialProc,,TrainingTrialList,1,1,-999999,0,87155,0,1,662,87817,Target1.bmp,lime,1,,,,5,1,6
KW_Experiment5A,40,1,"<?xml version=""1.0""?>\n<Clock xmlns:dt=""urn:schemas-microsoft-com:datatypes""><Description dt:dt=""string"">E-Prime Primary Realtime Clock</Description><StartTime><Timestamp dt:dt=""int"">0</Timestamp><DateUtc dt:dt=""string"">2018-10-24T17:16:56Z</DateUtc></StartTime><FrequencyChanges><FrequencyChange><Frequency dt:dt=""r8"">3215292</Frequency><Timestamp dt:dt=""r8"">1300472781907</Timestamp><Current dt:dt=""r8"">0</Current><DateUtc dt:dt=""string"">2018-10-24T17:16:56Z</DateUtc></FrequencyChange></FrequencyChanges></Clock>\n",KW_Experiment5A-40-1,59.946,1.0.0.105,1,-901694713,Professional,2.0.10.353,2.0.10.353,10/24/2018,10/24/2018 17:16,13:16:56,2.0.10.248,2,2,1,2,,,,,,,,TrainingProc,BlockList,7,2,Distractor2.bmp,2,0,,0,1,88840,601,,0,0,blue,600,3,600,3,horizontal,blue,Distractor2.bmp,lime,Target2.bmp,yellow,Distractor2.bmp,purple,Distractor1.bmp,cyan,Distractor2.bmp,red,Distractor1.bmp,,,,TrialProc,,TrainingTrialList,1,2,-999999,1,89441,0,2,528,89969,Target2.bmp,lime,2,,,,2,1,7
KW_Experiment5A,40,1,"<?xml version=""1.0""?>\n<Clock xmlns:dt=""urn:schemas-microsoft-com:datatypes""><Description dt:dt=""string"">E-Prime Primary Realtime Clock</Description><StartTime><Timestamp dt:dt=""int"">0</Timestamp><DateUtc dt:dt=""string"">2018-10-24T17:16:56Z</DateUtc></StartTime><FrequencyChanges><FrequencyChange><Frequency dt:dt=""r8"">3215292</Frequency><Timestamp dt:dt=""r8"">1300472781907</Timestamp><Current dt:dt=""r8"">0</Current><DateUtc dt:dt=""string"">2018-10-24T17:16:56Z</DateUtc></FrequencyChange></FrequencyChanges></Clock>\n",KW_Experiment5A-40-1,59.946,1.0.0.105,1,-901694713,Professional,2.0.10.353,2.0.10.353,10/24/2018,10/24/2018 17:16,13:16:56,2.0.10.248,2,2,1,2,,,,,,,,TrainingProc,BlockList,8,1,Distractor1.bmp,1,0,,0,1,90992,601,,0,0,blue,600,3,600,,vertical,red,Target1.bmp,yellow,Distractor1.bmp,purple,Distractor1.bmp,lime,Distractor1.bmp,cyan,Distractor1.bmp,blue,Distractor1.bmp,,,,TrialProc,3,TrainingTrialList,1,1,-999999,1,91593,0,1,584,92177,Target1.bmp,red,1,,,,7,1,8
KW_Experiment5A,40,1,"<?xml version=""1.0""?>\n<Clock xmlns:dt=""urn:schemas-microsoft-com:datatypes""><Description dt:dt=""string"">E-Prime Primary Realtime Clock</Description><StartTime><Timestamp dt:dt=""int"">0</Timestamp><DateUtc dt:dt=""string"">2018-10-24T17:16:56Z</DateUtc></StartTime><FrequencyChanges><FrequencyChange><Frequency dt:dt=""r8"">3215292</Frequency><Timestamp dt:dt=""r8"">1300472781907</Timestamp><Current dt:dt=""r8"">0</Current><DateUtc dt:dt=""string"">2018-10-24T17:16:56Z</DateUtc></FrequencyChange></FrequencyChanges></Clock>\n",KW_Experiment5A-40-1,59.946,1.0.0.105,1,-901694713,Professional,2.0.10.353,2.0.10.353,10/24/2018,10/24/2018 17:16,13:16:56,2.0.10.248,2,2,1,2,,,,,,,,TrainingProc,BlockList,9,1,Distractor2.bmp,2,0,,0,1,93194,501,,0,0,red,500,2,500,1,vertical,red,Distractor2.bmp,blue,Distractor2.bmp,cyan,Distractor2.bmp,yellow,Distractor1.bmp,lime,Target1.bmp,purple,Distractor2.bmp,,,,TrialProc,,TrainingTrialList,1,1,-999999,1,93695,0,1,594,94289,Target1.bmp,lime,1,,,,5,1,9
KW_Experiment5A,40,1,"<?xml version=""1.0""?>\n<Clock xmlns:dt=""urn:schemas-microsoft-com:datatypes""><Description dt:dt=""string"">E-Prime Primary Realtime Clock</Description><StartTime><Timestamp dt:dt=""int"">0</Timestamp><DateUtc dt:dt=""string"">2018-10-24T17:16:56Z</DateUtc></StartTime><FrequencyChanges><FrequencyChange><Frequency dt:dt=""r8"">3215292</Frequency><Timestamp dt:dt=""r8"">1300472781907</Timestamp><Current dt:dt=""r8"">0</Current><DateUtc dt:dt=""string"">2018-10-24T17:16:56Z</DateUtc></FrequencyChange></FrequencyChanges></Clock>\n",KW_Experiment5A-40-1,59.946,1.0.0.105,1,-901694713,Professional,2.0.10.353,2.0.10.353,10/24/2018,10/24/2018 17:16,13:16:56,2.0.10.248,2,2,1,2,,,,,,,,TrainingProc,BlockList,10,2,Distractor2.bmp,2,0,,0,1,95313,500,,0,0,cyan,500,2,500,4,horizontal,cyan,Distractor1.bmp,lime,Target2.bmp,blue,Distractor2.bmp,yellow,Distractor1.bmp,red,Distractor1.bmp,purple,Distractor2.bmp,,,,TrialProc,,TrainingTrialList,1,2,-999999,0,95813,0,2,564,96377,Target2.bmp,lime,2,,,,2,1,10
KW_Experiment5A,40,1,"<?xml version=""1.0""?>\n<Clock xmlns:dt=""urn:schemas-microsoft-com:datatypes""><Description dt:dt=""string"">E-Prime Primary Realtime Clock</Description><StartTime><Timestamp dt:dt=""int"">0</Timestamp><DateUtc dt:dt=""string"">2018-10-24T17:16:56Z</DateUtc></StartTime><FrequencyChanges><FrequencyChange><Frequency dt:dt=""r8"">3215292</Frequency><Timestamp dt:dt=""r8"">1300472781907</Timestamp><Current dt:dt=""r8"">0</Current><DateUtc dt:dt=""string"">2018-10-24T17:16:56Z</DateUtc></FrequencyChange></FrequencyChanges></Clock>\n",KW_Experiment5A-40-1,59.946,1.0.0.105,1,-901694713,Professional,2.0.10.353,2.0.10.353,10/24/2018,10/24/2018 17:16,13:16:56,2.0.10.248,2,2,1,2,,,,,,,,TrainingProc,BlockList,11,1,Distractor2.bmp,2,0,,0,1,97398,400,,0,0,purple,400,1,400,,vertical,purple,Distractor2.bmp,yellow,Distractor1.bmp,blue,Distractor2.bmp,red,Target1.bmp,lime,Distractor2.bmp,cyan,Distractor1.bmp,,,,TrialProc,5,TrainingTrialList,1,1,-999999,0,97798,0,1,779,98577,Target1.bmp,red,1,,,,10,1,11
KW_Experiment5A,40,1,"<?xml version=""1.0""?>\n<Clock xmlns:dt=""urn:schemas-microsoft-com:datatypes""><Description dt:dt=""string"">E-Prime Primary Realtime Clock</Description><StartTime><Timestamp dt:dt=""int"">0</Timestamp><DateUtc dt:dt=""string"">2018-10-24T17:16:56Z</DateUtc></StartTime><FrequencyChanges><FrequencyChange><Frequency dt:dt=""r8"">3215292</Frequency><Timestamp dt:dt=""r8"">1300472781907</Timestamp><Current dt:dt=""r8"">0</Current><DateUtc dt:dt=""string"">2018-10-24T17:16:56Z</DateUtc></FrequencyChange></FrequencyChanges></Clock>\n",KW_Experiment5A-40-1,59.946,1.0.0.105,1,-901694713,Professional,2.0.10.353,2.0.10.353,10/24/2018,10/24/2018 17:16,13:16:56,2.0.10.248,2,2,1,2,,,,,,,,TrainingProc,BlockList,12,2,Distractor1.bmp,1,0,,0,1,99600,400,,0,0,purple,400,1,400,5,horizontal,lime,Target2.bmp,purple,Distractor1.bmp,red,Distractor2.bmp,blue,Distractor2.bmp,yellow,Distractor1.bmp,cyan,Distractor2.bmp,,,,TrialProc,,TrainingTrialList,1,2,-999999,0,100000,0,2,577,100577,Target2.bmp,lime,2,,,,1,1,12
KW_Experiment5A,40,1,"<?xml version=""1.0""?>\n<Clock xmlns:dt=""urn:schemas-microsoft-com:datatypes""><Description dt:dt=""string"">E-Prime Primary Realtime Clock</Description><StartTime><Timestamp dt:dt=""int"">0</Timestamp><DateUtc dt:dt=""string"">2018-10-24T17:16:56Z</DateUtc></StartTime><FrequencyChanges><FrequencyChange><Frequency dt:dt=""r8"">3215292</Frequency><Timestamp dt:dt=""r8"">1300472781907</Timestamp><Current dt:dt=""r8"">0</Current><DateUtc dt:dt=""string"">2018-10-24T17:16:56Z</DateUtc></FrequencyChange></FrequencyChanges></Clock>\n",KW_Experiment5A-40-1,59.946,1.0.0.105,1,-901694713,Professional,2.0.10.353,2.0.10.353,10/24/2018,10/24/2018 17:16,13:16:56,2.0.10.248,2,2,1,2,,,,,,,,TrainingProc,BlockList,13,2,Distractor2.bmp,2,0,,0,1,101602,600,,0,0,purple,600,3,600,5,horizontal,purple,Distractor1.bmp,red,Distractor1.bmp,yellow,Distractor2.bmp,lime,Target2.bmp,blue,Distractor2.bmp,cyan,Distractor1.bmp,,,,TrialProc,,TrainingTrialList,1,2,-999999,0,102202,0,2,871,103073,Target2.bmp,lime,2,,,,4,1,13
KW_Experiment5A,40,1,"<?xml version=""1.0""?>\n<Clock xmlns:dt=""urn:schemas-microsoft-com:datatypes""><Description dt:dt=""string"">E-Prime Primary Realtime Clock</Description><StartTime><Timestamp dt:dt=""int"">0</Timestamp><DateUtc dt:dt=""string"">2018-10-24T17:16:56Z</DateUtc></StartTime><FrequencyChanges><FrequencyChange><Frequency dt:dt=""r8"">3215292</Frequency><Timestamp dt:dt=""r8"">1300472781907</Timestamp><Current dt:dt=""r8"">0</Current><DateUtc dt:dt=""string"">2018-10-24T17:16:56Z</DateUtc></FrequencyChange></FrequencyChanges></Clock>\n",KW_Experiment5A-40-1,59.946,1.0.0.105,1,-901694713,Professional,2.0.10.353,2.0.10.353,10/24/2018,10/24/2018 17:16,13:16:56,2.0.10.248,2,2,1,2,,,,,,,,TrainingProc,BlockList,14,2,Distractor2.bmp,2,0,,0,1,104087,401,,0,0,red,400,1,400,1,horizontal,red,Distractor1.bmp,purple,Distractor2.bmp,yellow,Distractor2.bmp,blue,Distractor1.bmp,lime,Target2.bmp,cyan,Distractor2.bmp,,,,TrialProc,,TrainingTrialList,1,2,-999999,1,104488,0,2,633,105121,Target2.bmp,lime,2,,,,5,1,14
KW_Experiment5A,40,1,"<?xml version=""1.0""?>\n<Clock xmlns:dt=""urn:schemas-microsoft-com:datatypes""><Description dt:dt=""string"">E-Prime Primary Realtime Clock</Description><StartTime><Timestamp dt:dt=""int"">0</Timestamp><DateUtc dt:dt=""string"">2018-10-24T17:16:56Z</DateUtc></StartTime><FrequencyChanges><FrequencyChange><Frequency dt:dt=""r8"">3215292</Frequency><Timestamp dt:dt=""r8"">1300472781907</Timestamp><Current dt:dt=""r8"">0</Current><DateUtc dt:dt=""string"">2018-10-24T17:16:56Z</DateUtc></FrequencyChange></FrequencyChanges></Clock>\n",KW_Experiment5A-40-1,59.946,1.0.0.105,1,-901694713,Professional,2.0.10.353,2.0.10.353,10/24/2018,10/24/2018 17:16,13:16:56,2.0.10.248,2,2,1,2,,,,,,,,TrainingProc,BlockList,15,1,Distractor2.bmp,2,0,,0,1,106139,601,,0,0,yellow,600,3,600,2,vertical,yellow,Distractor1.bmp,red,Distractor1.bmp,purple,Distractor1.bmp,lime,Target1.bmp,cyan,Distractor2.bmp,blue,Distractor2.bmp,,,,TrialProc,,TrainingTrialList,1,1,-999999,1,106740,0,1,573,107313,Target1.bmp,lime,1,,,,4,1,15
KW_Experiment5A,40,1,"<?xml version=""1.0""?>\n<Clock xmlns:dt=""urn:schemas-microsoft-com:datatypes""><Description dt:dt=""string"">E-Prime Primary Realtime Clock</Description><StartTime><Timestamp dt:dt=""int"">0</Timestamp><DateUtc dt:dt=""string"">2018-10-24T17:16:56Z</DateUtc></StartTime><FrequencyChanges><FrequencyChange><Frequency dt:dt=""r8"">3215292</Frequency><Timestamp dt:dt=""r8"">1300472781907</Timestamp><Current dt:dt=""r8"">0</Current><DateUtc dt:dt=""string"">2018-10-24T17:16:56Z</DateUtc></FrequencyChange></FrequencyChanges></Clock>\n",KW_Experiment5A-40-1,59.946,1.0.0.105,1,-901694713,Professional,2.0.10.353,2.0.10.353,10/24/2018,10/24/2018 17:16,13:16:56,2.0.10.248,2,2,1,2,,,,,,,,TrainingProc,BlockList,16,1,Distractor2.bmp,2,0,,0,1,108325,500,,0,0,red,500,2,500,1,vertical,red,Distractor1.bmp,purple,Distractor2.bmp,lime,Target1.bmp,yellow,Distractor2.bmp,cyan,Distractor1.bmp,blue,Distractor2.bmp,,,,TrialProc,,TrainingTrialList,1,1,-999999,0,108825,0,1,616,109441,Target1.bmp,lime,1,,,,3,1,16
KW_Experiment5A,40,1,"<?xml version=""1.0""?>\n<Clock xmlns:dt=""urn:schemas-microsoft-com:datatypes""><Description dt:dt=""string"">E-Prime Primary Realtime Clock</Description><StartTime><Timestamp dt:dt=""int"">0</Timestamp><DateUtc dt:dt=""string"">2018-10-24T17:16:56Z</DateUtc></StartTime><FrequencyChanges><FrequencyChange><Frequency dt:dt=""r8"">3215292</Frequency><Timestamp dt:dt=""r8"">1300472781907</Timestamp><Current dt:dt=""r8"">0</Current><DateUtc dt:dt=""string"">2018-10-24T17:16:56Z</DateUtc></FrequencyChange></FrequencyChanges></Clock>\n",KW_Experiment5A-40-1,59.946,1.0.0.105,1,-901694713,Professional,2.0.10.353,2.0.10.353,10/24/2018,10/24/2018 17:16,13:16:56,2.0.10.248,2,2,1,2,,,,,,,,TrainingProc,BlockList,17,2,Distractor1.bmp,1,0,,0,1,110460,500,,0,0,purple,500,2,500,,horizontal,purple,Distractor1.bmp,yellow,Distractor1.bmp,lime,Distractor1.bmp,blue,Distractor1.bmp,cyan,Distractor2.bmp,red,Target2.bmp,,,,TrialProc,5,TrainingTrialList,1,2,-999999,0,110960,0,2,1185,112145,Target2.bmp,red,2,,,,12,1,17
KW_Experiment5A,40,1,"<?xml version=""1.0""?>\n<Clock xmlns:dt=""urn:schemas-microsoft-com:datatypes""><Description dt:dt=""string"">E-Prime Primary Realtime Clock</Description><StartTime><Timestamp dt:dt=""int"">0</Timestamp><DateUtc dt:dt=""string"">2018-10-24T17:16:56Z</DateUtc></StartTime><FrequencyChanges><FrequencyChange><Frequency dt:dt=""r8"">3215292</Frequency><Timestamp dt:dt=""r8"">1300472781907</Timestamp><Current dt:dt=""r8"">0</Current><DateUtc dt:dt=""string"">2018-10-24T17:16:56Z</DateUtc></FrequencyChange></FrequencyChanges></Clock>\n",KW_Experiment5A-40-1,59.946,1.0.0.105,1,-901694713,Professional,2.0.10.353,2.0.10.353,10/24/2018,10/24/2018 17:16,13:16:56,2.0.10.248,2,2,1,2,,,,,,,,TrainingProc,BlockList,18,2,Distractor1.bmp,1,0,,0,1,113162,401,,0,0,red,400,1,400,1,horizontal,red,Distractor1.bmp,blue,Distractor2.bmp,cyan,Distractor1.bmp,yellow,Distractor1.bmp,purple,Distractor1.bmp,lime,Target2.bmp,,,,TrialProc,,TrainingTrialList,1,2,-999999,1,113563,0,2,557,114120,Target2.bmp,lime,2,,,,6,1,18
KW_Experiment5A,40,1,"<?xml version=""1.0""?>\n<Clock xmlns:dt=""urn:schemas-microsoft-com:datatypes""><Description dt:dt=""string"">E-Prime Primary Realtime Clock</Description><StartTime><Timestamp dt:dt=""int"">0</Timestamp><DateUtc dt:dt=""string"">2018-10-24T17:16:56Z</DateUtc></StartTime><FrequencyChanges><FrequencyChange><Frequency dt:dt=""r8"">3215292</Frequency><Timestamp dt:dt=""r8"">1300472781907</Timestamp><Current dt:dt=""r8"">0</Current><DateUtc dt:dt=""string"">2018-10-24T17:16:56Z</DateUtc></FrequencyChange></FrequencyChanges></Clock>\n",KW_Experiment5A-40-1,59.946,1.0.0.105,1,-901694713,Professional,2.0.10.353,2.0.10.353,10/24/2018,10/24/2018 17:16,13:16:56,2.0.10.248,2,2,1,2,,,,,,,,TrainingProc,BlockList,19,1,Distractor1.bmp,1,0,,0,1,115131,400,,0,0,lime,400,1,400,,vertical,lime,Distractor1.bmp,red,Target1.bmp,blue,Distractor1.bmp,cyan,Distractor2.bmp,yellow,Distractor1.bmp,purple,Distractor2.bmp,,,,TrialProc,6,TrainingTrialList,1,1,-999999,0,115531,0,1,629,116160,Target1.bmp,red,1,,,,8,1,19
KW_Experiment5A,40,1,"<?xml version=""1.0""?>\n<Clock xmlns:dt=""urn:schemas-microsoft-com:datatypes""><Description dt:dt=""string"">E-Prime Primary Realtime Clock</Description><StartTime><Timestamp dt:dt=""int"">0</Timestamp><DateUtc dt:dt=""string"">2018-10-24T17:16:56Z</DateUtc></StartTime><FrequencyChanges><FrequencyChange><Frequency dt:dt=""r8"">3215292</Frequency><Timestamp dt:dt=""r8"">1300472781907</Timestamp><Current dt:dt=""r8"">0</Current><DateUtc dt:dt=""string"">2018-10-24T17:16:56Z</DateUtc></FrequencyChange></FrequencyChanges></Clock>\n",KW_Experiment5A-40-1,59.946,1.0.0.105,1,-901694713,Professional,2.0.10.353,2.0.10.353,10/24/2018,10/24/2018 17:16,13:16:56,2.0.10.248,2,2,1,2,,,,,,,,TrainingProc,BlockList,20,1,Distractor1.bmp,1,0,,0,1,117183,400,,0,0,blue,400,1,400,3,vertical,blue,Distractor1.bmp,cyan,Distractor2.bmp,yellow,Distractor1.bmp,red,Distractor2.bmp,purple,Distractor2.bmp,lime,Target1.bmp,,,,TrialProc,,TrainingTrialList,1,1,-999999,0,117583,0,1,873,118456,Target1.bmp,lime,1,,,,6,1,20
KW_Experiment5A,40,1,"<?xml version=""1.0""?>\n<Clock xmlns:dt=""urn:schemas-microsoft-com:datatypes""><Description dt:dt=""string"">E-Prime Primary Realtime Clock</Description><StartTime><Timestamp dt:dt=""int"">0</Timestamp><DateUtc dt:dt=""string"">2018-10-24T17:16:56Z</DateUtc></StartTime><FrequencyChanges><FrequencyChange><Frequency dt:dt=""r8"">3215292</Frequency><Timestamp dt:dt=""r8"">1300472781907</Timestamp><Current dt:dt=""r8"">0</Current><DateUtc dt:dt=""string"">2018-10-24T17:16:56Z</DateUtc></FrequencyChange></FrequencyChanges></Clock>\n",KW_Experiment5A-40-1,59.946,1.0.0.105,1,-901694713,Professional,2.0.10.353,2.0.10.353,10/24/2018,10/24/2018 17:16,13:16:56,2.0.10.248,2,2,1,2,,,,,,,,TrainingProc,BlockList,21,2,Distractor1.bmp,1,0,,0,1,119468,601,,0,0,yellow,600,3,600,2,horizontal,yellow,Distractor2.bmp,cyan,Distractor2.bmp,red,Distractor2.bmp,lime,Target2.bmp,blue,Distractor1.bmp,purple,Distractor1.bmp,,,,TrialProc,,TrainingTrialList,1,2,-999999,1,120069,0,2,627,120696,Target2.bmp,lime,2,,,,4,1,21
KW_Experiment5A,40,1,"<?xml version=""1.0""?>\n<Clock xmlns:dt=""urn:schemas-microsoft-com:datatypes""><Description dt:dt=""string"">E-Prime Primary Realtime Clock</Description><StartTime><Timestamp dt:dt=""int"">0</Timestamp><DateUtc dt:dt=""string"">2018-10-24T17:16:56Z</DateUtc></StartTime><FrequencyChanges><FrequencyChange><Frequency dt:dt=""r8"">3215292</Frequency><Timestamp dt:dt=""r8"">1300472781907</Timestamp><Current dt:dt=""r8"">0</Current><DateUtc dt:dt=""string"">2018-10-24T17:16:56Z</DateUtc></FrequencyChange></FrequencyChanges></Clock>\n",KW_Experiment5A-40-1,59.946,1.0.0.105,1,-901694713,Professional,2.0.10.353,2.0.10.353,10/24/2018,10/24/2018 17:16,13:16:56,2.0.10.248,2,2,1,2,,,,,,,,TrainingProc,BlockList,22,1,Distractor2.bmp,2,0,,0,1,121720,400,,0,0,purple,400,1,400,5,vertical,purple,Distractor1.bmp,cyan,Distractor1.bmp,lime,Target1.bmp,yellow,Distractor2.bmp,blue,Distractor1.bmp,red,Distractor2.bmp,,,,TrialProc,,TrainingTrialList,1,1,-999999,0,122120,0,1,800,122920,Target1.bmp,lime,1,,,,3,1,22
KW_Experiment5A,40,1,"<?xml version=""1.0""?>\n<Clock xmlns:dt=""urn:schemas-microsoft-com:datatypes""><Description dt:dt=""string"">E-Prime Primary Realtime Clock</Description><StartTime><Timestamp dt:dt=""int"">0</Timestamp><DateUtc dt:dt=""string"">2018-10-24T17:16:56Z</DateUtc></StartTime><FrequencyChanges><FrequencyChange><Frequency dt:dt=""r8"">3215292</Frequency><Timestamp dt:dt=""r8"">1300472781907</Timestamp><Current dt:dt=""r8"">0</Current><DateUtc dt:dt=""string"">2018-10-24T17:16:56Z</DateUtc></FrequencyChange></FrequencyChanges></Clock>\n",KW_Experiment5A-40-1,59.946,1.0.0.105,1,-901694713,Professional,2.0.10.353,2.0.10.353,10/24/2018,10/24/2018 17:16,13:16:56,2.0.10.248,2,2,1,2,,,,,,,,TrainingProc,BlockList,23,1,Distractor1.bmp,1,0,,0,1,123939,600,,0,0,cyan,600,3,600,4,vertical,cyan,Distractor1.bmp,lime,Target1.bmp,blue,Distractor1.bmp,red,Distractor2.bmp,yellow,Distractor1.bmp,purple,Distractor1.bmp,,,,TrialProc,,TrainingTrialList,1,1,-999999,0,124539,0,1,565,125104,Target1.bmp,lime,1,,,,2,1,23
KW_Experiment5A,40,1,"<?xml version=""1.0""?>\n<Clock xmlns:dt=""urn:schemas-microsoft-com:datatypes""><Description dt:dt=""string"">E-Prime Primary Realtime Clock</Description><StartTime><Timestamp dt:dt=""int"">0</Timestamp><DateUtc dt:dt=""string"">2018-10-24T17:16:56Z</DateUtc></StartTime><FrequencyChanges><FrequencyChange><Frequency dt:dt=""r8"">3215292</Frequency><Timestamp dt:dt=""r8"">1300472781907</Timestamp><Current dt:dt=""r8"">0</Current><DateUtc dt:dt=""string"">2018-10-24T17:16:56Z</DateUtc></FrequencyChange></FrequencyChanges></Clock>\n",KW_Experiment5A-40-1,59.946,1.0.0.105,1,-901694713,Professional,2.0.10.353,2.0.10.353,10/24/2018,10/24/2018 17:16,13:16:56,2.0.10.248,2,2,1,2,,,,,,,,TrainingProc,BlockList,24,2,Distractor1.bmp,1,0,,0,1,126124,601,,0,0,cyan,600,3,600,4,horizontal,lime,Target2.bmp,cyan,Distractor1.bmp,purple,Distractor1.bmp,red,Distractor2.bmp,blue,Distractor2.bmp,yellow,Distractor1.bmp,,,,TrialProc,,TrainingTrialList,1,2,-999999,1,126725,0,2,619,127344,Target2.bmp,lime,2,,,,1,1,24
KW_Experiment5A,40,1,"<?xml version=""1.0""?>\n<Clock xmlns:dt=""urn:schemas-microsoft-com:datatypes""><Description dt:dt=""string"">E-Prime Primary Realtime Clock</Description><StartTime><Timestamp dt:dt=""int"">0</Timestamp><DateUtc dt:dt=""string"">2018-10-24T17:16:56Z</DateUtc></StartTime><FrequencyChanges><FrequencyChange><Frequency dt:dt=""r8"">3215292</Frequency><Timestamp dt:dt=""r8"">1300472781907</Timestamp><Current dt:dt=""r8"">0</Current><DateUtc dt:dt=""string"">2018-10-24T17:16:56Z</DateUtc></FrequencyChange></FrequencyChanges></Clock>\n",KW_Experiment5A-40-1,59.946,1.0.0.105,1,-901694713,Professional,2.0.10.353,2.0.10.353,10/24/2018,10/24/2018 17:16,13:16:56,2.0.10.248,2,2,1,2,,,,,,,,TrainingProc,BlockList,25,2,Distractor1.bmp,1,0,,1,1,128359,601,,0,0,blue,600,3,600,,horizontal,blue,Distractor1.bmp,purple,Distractor2.bmp,yellow,Distractor2.bmp,lime,Distractor2.bmp,red,Target2.bmp,cyan,Distractor1.bmp,,,,TrialProc,3,TrainingTrialList,0,2,-999999,1,128960,0,1,632,129592,Target2.bmp,red,2,,,,11,2,25
KW_Experiment5A,40,1,"<?xml version=""1.0""?>\n<Clock xmlns:dt=""urn:schemas-microsoft-com:datatypes""><Description dt:dt=""string"">E-Prime Primary Realtime Clock</Description><StartTime><Timestamp dt:dt=""int"">0</Timestamp><DateUtc dt:dt=""string"">2018-10-24T17:16:56Z</DateUtc></StartTime><FrequencyChanges><FrequencyChange><Frequency dt:dt=""r8"">3215292</Frequency><Timestamp dt:dt=""r8"">1300472781907</Timestamp><Current dt:dt=""r8"">0</Current><DateUtc dt:dt=""string"">2018-10-24T17:16:56Z</DateUtc></FrequencyChange></FrequencyChanges></Clock>\n",KW_Experiment5A-40-1,59.946,1.0.0.105,1,-901694713,Professional,2.0.10.353,2.0.10.353,10/24/2018,10/24/2018 17:16,13:16:56,2.0.10.248,2,2,1,2,,,,,,,,TrainingProc,BlockList,26,2,Distractor2.bmp,2,0,,1,0,130611,501,,0,0,cyan,500,2,500,4,horizontal,cyan,Distractor1.bmp,blue,Distractor2.bmp,lime,Target2.bmp,purple,Distractor2.bmp,red,Distractor2.bmp,yellow,Distractor1.bmp,,,,TrialProc,,TrainingTrialList,1,2,-999999,1,131112,0,2,840,131952,Target2.bmp,lime,2,,,,3,2,26
KW_Experiment5A,40,1,"<?xml version=""1.0""?>\n<Clock xmlns:dt=""urn:schemas-microsoft-com:datatypes""><Description dt:dt=""string"">E-Prime Primary Realtime Clock</Description><StartTime><Timestamp dt:dt=""int"">0</Timestamp><DateUtc dt:dt=""string"">2018-10-24T17:16:56Z</DateUtc></StartTime><FrequencyChanges><FrequencyChange><Frequency dt:dt=""r8"">3215292</Frequency><Timestamp dt:dt=""r8"">1300472781907</Timestamp><Current dt:dt=""r8"">0</Current><DateUtc dt:dt=""string"">2018-10-24T17:16:56Z</DateUtc></FrequencyChange></FrequencyChanges></Clock>\n",KW_Experiment5A-40-1,59.946,1.0.0.105,1,-901694713,Professional,2.0.10.353,2.0.10.353,10/24/2018,10/24/2018 17:16,13:16:56,2.0.10.248,2,2,1,2,,,,,,,,TrainingProc,BlockList,27,2,Distractor1.bmp,1,0,,0,1,132964,600,,0,0,purple,600,3,600,,horizontal,purple,Distractor1.bmp,blue,Distractor1.bmp,cyan,Distractor1.bmp,yellow,Distractor1.bmp,lime,Distractor1.bmp,red,Target2.bmp,,,,TrialProc,5,TrainingTrialList,1,2,-999999,0,133564,0,2,564,134128,Target2.bmp,red,2,,,,12,2,27
KW_Experiment5A,40,1,"<?xml version=""1.0""?>\n<Clock xmlns:dt=""urn:schemas-microsoft-com:datatypes""><Description dt:dt=""string"">E-Prime Primary Realtime Clock</Description><StartTime><Timestamp dt:dt=""int"">0</Timestamp><DateUtc dt:dt=""string"">2018-10-24T17:16:56Z</DateUtc></StartTime><FrequencyChanges><FrequencyChange><Frequency dt:dt=""r8"">3215292</Frequency><Timestamp dt:dt=""r8"">1300472781907</Timestamp><Current dt:dt=""r8"">0</Current><DateUtc dt:dt=""string"">2018-10-24T17:16:56Z</DateUtc></FrequencyChange></FrequencyChanges></Clock>\n",KW_Experiment5A-40-1,59.946,1.0.0.105,1,-901694713,Professional,2.0.10.353,2.0.10.353,10/24/2018,10/24/2018 17:16,13:16:56,2.0.10.248,2,2,1,2,,,,,,,,TrainingProc,BlockList,28,2,Distractor1.bmp,1,0,,0,1,135149,600,,0,0,blue,600,3,600,3,horizontal,blue,Distractor1.bmp,purple,Distractor1.bmp,yellow,Distractor2.bmp,red,Distractor2.bmp,cyan,Distractor2.bmp,lime,Target2.bmp,,,,TrialProc,,TrainingTrialList,1,2,-999999,0,135749,0,2,555,136304,Target2.bmp,lime,2,,,,6,2,28
KW_Experiment5A,40,1,"<?xml version=""1.0""?>\n<Clock xmlns:dt=""urn:schemas-microsoft-com:datatypes""><Description dt:dt=""string"">E-Prime Primary Realtime Clock</Description><StartTime><Timestamp dt:dt=""int"">0</Timestamp><DateUtc dt:dt=""string"">2018-10-24T17:16:56Z</DateUtc></StartTime><FrequencyChanges><FrequencyChange><Frequency dt:dt=""r8"">3215292</Frequency><Timestamp dt:dt=""r8"">1300472781907</Timestamp><Current dt:dt=""r8"">0</Current><DateUtc dt:dt=""string"">2018-10-24T17:16:56Z</DateUtc></FrequencyChange></FrequencyChanges></Clock>\n",KW_Experiment5A-40-1,59.946,1.0.0.105,1,-901694713,Professional,2.0.10.353,2.0.10.353,10/24/2018,10/24/2018 17:16,13:16:56,2.0.10.248,2,2,1,2,,,,,,,,TrainingProc,BlockList,29,2,Distractor1.bmp,1,0,,0,1,137318,500,,0,0,purple,500,2,500,5,horizontal,purple,Distractor1.bmp,lime,Target2.bmp,red,Distractor1.bmp,blue,Distractor2.bmp,cyan,Distractor1.bmp,yellow,Distractor1.bmp,,,,TrialProc,,TrainingTrialList,1,2,-999999,0,137818,0,2,518,138336,Target2.bmp,lime,2,,,,2,2,29
KW_Experiment5A,40,1,"<?xml version=""1.0""?>\n<Clock xmlns:dt=""urn:schemas-microsoft-com:datatypes""><Description dt:dt=""string"">E-Prime Primary Realtime Clock</Description><StartTime><Timestamp dt:dt=""int"">0</Timestamp><DateUtc dt:dt=""string"">2018-10-24T17:16:56Z</DateUtc></StartTime><FrequencyChanges><FrequencyChange><Frequency dt:dt=""r8"">3215292</Frequency><Timestamp dt:dt=""r8"">1300472781907</Timestamp><Current dt:dt=""r8"">0</Current><DateUtc dt:dt=""string"">2018-10-24T17:16:56Z</DateUtc></FrequencyChange></FrequencyChanges></Clock>\n",KW_Experiment5A-40-1,59.946,1.0.0.105,1,-901694713,Professional,2.0.10.353,2.0.10.353,10/24/2018,10/24/2018 17:16,13:16:56,2.0.10.248,2,2,1,2,,,,,,,,TrainingProc,BlockList,30,1,Distractor1.bmp,1,0,,0,1,139353,500,,0,0,red,500,2,500,1,vertical,red,Distractor1.bmp,blue,Distractor1.bmp,cyan,Distractor1.bmp,yellow,Distractor1.bmp,purple,Distractor2.bmp,lime,Target1.bmp,,,,TrialProc,,TrainingTrialList,1,1,-999999,0,139853,0,1,499,140352,Target1.bmp,lime,1,,,,6,2,30
KW_Experiment5A,40,1,"<?xml version=""1.0""?>\n<Clock xmlns:dt=""urn:schemas-microsoft-com:datatypes""><Description dt:dt=""string"">E-Prime Primary Realtime Clock</Description><StartTime><Timestamp dt:dt=""int"">0</Timestamp><DateUtc dt:dt=""string"">2018-10-24T17:16:56Z</DateUtc></StartTime><FrequencyChanges><FrequencyChange><Frequency dt:dt=""r8"">3215292</Frequency><Timestamp dt:dt=""r8"">1300472781907</Timestamp><Current dt:dt=""r8"">0</Current><DateUtc dt:dt=""string"">2018-10-24T17:16:56Z</DateUtc></FrequencyChange></FrequencyChanges></Clock>\n",KW_Experiment5A-40-1,59.946,1.0.0.105,1,-901694713,Professional,2.0.10.353,2.0.10.353,10/24/2018,10/24/2018 17:16,13:16:56,2.0.10.248,2,2,1,2,,,,,,,,TrainingProc,BlockList,31,2,Distractor2.bmp,2,0,,0,1,141371,501,,0,0,red,500,2,500,1,horizontal,lime,Target2.bmp,red,Distractor2.bmp,blue,Distractor1.bmp,yellow,Distractor2.bmp,purple,Distractor2.bmp,cyan,Distractor2.bmp,,,,TrialProc,,TrainingTrialList,1,2,-999999,1,141872,0,2,456,142328,Target2.bmp,lime,2,,,,1,2,31
KW_Experiment5A,40,1,"<?xml version=""1.0""?>\n<Clock xmlns:dt=""urn:schemas-microsoft-com:datatypes""><Description dt:dt=""string"">E-Prime Primary Realtime Clock</Description><StartTime><Timestamp dt:dt=""int"">0</Timestamp><DateUtc dt:dt=""string"">2018-10-24T17:16:56Z</DateUtc></StartTime><FrequencyChanges><FrequencyChange><Frequency dt:dt=""r8"">3215292</Frequency><Timestamp dt:dt=""r8"">1300472781907</Timestamp><Current dt:dt=""r8"">0</Current><DateUtc dt:dt=""string"">2018-10-24T17:16:56Z</DateUtc></FrequencyChange></FrequencyChanges></Clock>\n",KW_Experiment5A-40-1,59.946,1.0.0.105,1,-901694713,Professional,2.0.10.353,2.0.10.353,10/24/2018,10/24/2018 17:16,13:16:56,2.0.10.248,2,2,1,2,,,,,,,,TrainingProc,BlockList,32,2,Distractor2.bmp,2,0,,0,1,143340,500,,0,0,purple,500,2,500,5,horizontal,lime,Target2.bmp,purple,Distractor2.bmp,cyan,Distractor1.bmp,blue,Distractor2.bmp,yellow,Distractor1.bmp,red,Distractor1.bmp,,,,TrialProc,,TrainingTrialList,1,2,-999999,0,143840,0,2,472,144312,Target2.bmp,lime,2,,,,1,2,32
KW_Experiment5A,40,1,"<?xml version=""1.0""?>\n<Clock xmlns:dt=""urn:schemas-microsoft-com:datatypes""><Description dt:dt=""string"">E-Prime Primary Realtime Clock</Description><StartTime><Timestamp dt:dt=""int"">0</Timestamp><DateUtc dt:dt=""string"">2018-10-24T17:16:56Z</DateUtc></StartTime><FrequencyChanges><FrequencyChange><Frequency dt:dt=""r8"">3215292</Frequency><Timestamp dt:dt=""r8"">1300472781907</Timestamp><Current dt:dt=""r8"">0</Current><DateUtc dt:dt=""string"">2018-10-24T17:16:56Z</DateUtc></FrequencyChange></FrequencyChanges></Clock>\n",KW_Experiment5A-40-1,59.946,1.0.0.105,1,-901694713,Professional,2.0.10.353,2.0.10.353,10/24/2018,10/24/2018 17:16,13:16:56,2.0.10.248,2,2,1,2,,,,,,,,TrainingProc,BlockList,33,2,Distractor2.bmp,2,0,,0,1,145325,400,,0,0,blue,400,1,400,,horizontal,red,Target2.bmp,purple,Distractor2.bmp,cyan,Distractor2.bmp,lime,Distractor1.bmp,yellow,Distractor2.bmp,blue,Distractor2.bmp,,,,TrialProc,3,TrainingTrialList,1,2,-999999,0,145725,0,2,435,146160,Target2.bmp,red,2,,,,7,2,33
KW_Experiment5A,40,1,"<?xml version=""1.0""?>\n<Clock xmlns:dt=""urn:schemas-microsoft-com:datatypes""><Description dt:dt=""string"">E-Prime Primary Realtime Clock</Description><StartTime><Timestamp dt:dt=""int"">0</Timestamp><DateUtc dt:dt=""string"">2018-10-24T17:16:56Z</DateUtc></StartTime><FrequencyChanges><FrequencyChange><Frequency dt:dt=""r8"">3215292</Frequency><Timestamp dt:dt=""r8"">1300472781907</Timestamp><Current dt:dt=""r8"">0</Current><DateUtc dt:dt=""string"">2018-10-24T17:16:56Z</DateUtc></FrequencyChange></FrequencyChanges></Clock>\n",KW_Experiment5A-40-1,59.946,1.0.0.105,1,-901694713,Professional,2.0.10.353,2.0.10.353,10/24/2018,10/24/2018 17:16,13:16:56,2.0.10.248,2,2,1,2,,,,,,,,TrainingProc,BlockList,34,1,Distractor2.bmp,2,0,,1,0,147176,501,,0,0,purple,500,2,500,,vertical,purple,Distractor1.bmp,blue,Distractor1.bmp,cyan,Distractor2.bmp,red,Target1.bmp,yellow,Distractor2.bmp,lime,Distractor2.bmp,,,,TrialProc,5,TrainingTrialList,1,1,-999999,1,147677,0,1,763,148440,Target1.bmp,red,1,,,,10,2,34
KW_Experiment5A,40,1,"<?xml version=""1.0""?>\n<Clock xmlns:dt=""urn:schemas-microsoft-com:datatypes""><Description dt:dt=""string"">E-Prime Primary Realtime Clock</Description><StartTime><Timestamp dt:dt=""int"">0</Timestamp><DateUtc dt:dt=""string"">2018-10-24T17:16:56Z</DateUtc></StartTime><FrequencyChanges><FrequencyChange><Frequency dt:dt=""r8"">3215292</Frequency><Timestamp dt:dt=""r8"">1300472781907</Timestamp><Current dt:dt=""r8"">0</Current><DateUtc dt:dt=""string"">2018-10-24T17:16:56Z</DateUtc></FrequencyChange></FrequencyChanges></Clock>\n",KW_Experiment5A-40-1,59.946,1.0.0.105,1,-901694713,Professional,2.0.10.353,2.0.10.353,10/24/2018,10/24/2018 17:16,13:16:56,2.0.10.248,2,2,1,2,,,,,,,,TrainingProc,BlockList,35,2,Distractor1.bmp,1,0,,0,1,149462,500,,0,0,yellow,500,2,500,2,horizontal,yellow,Distractor1.bmp,purple,Distractor2.bmp,cyan,Distractor1.bmp,lime,Target2.bmp,blue,Distractor1.bmp,red,Distractor1.bmp,,,,TrialProc,,TrainingTrialList,1,2,-999999,0,149962,0,2,670,150632,Target2.bmp,lime,2,,,,4,2,35
KW_Experiment5A,40,1,"<?xml version=""1.0""?>\n<Clock xmlns:dt=""urn:schemas-microsoft-com:datatypes""><Description dt:dt=""string"">E-Prime Primary Realtime Clock</Description><StartTime><Timestamp dt:dt=""int"">0</Timestamp><DateUtc dt:dt=""string"">2018-10-24T17:16:56Z</DateUtc></StartTime><FrequencyChanges><FrequencyChange><Frequency dt:dt=""r8"">3215292</Frequency><Timestamp dt:dt=""r8"">1300472781907</Timestamp><Current dt:dt=""r8"">0</Current><DateUtc dt:dt=""string"">2018-10-24T17:16:56Z</DateUtc></FrequencyChange></FrequencyChanges></Clock>\n",KW_Experiment5A-40-1,59.946,1.0.0.105,1,-901694713,Professional,2.0.10.353,2.0.10.353,10/24/2018,10/24/2018 17:16,13:16:56,2.0.10.248,2,2,1,2,,,,,,,,TrainingProc,BlockList,36,2,Distractor1.bmp,1,0,,0,1,151647,501,,0,0,yellow,500,2,500,2,horizontal,yellow,Distractor1.bmp,lime,Target2.bmp,blue,Distractor1.bmp,purple,Distractor2.bmp,red,Distractor1.bmp,cyan,Distractor2.bmp,,,,TrialProc,,TrainingTrialList,0,2,-999999,1,152148,0,1,612,152760,Target2.bmp,lime,2,,,,2,2,36
KW_Experiment5A,40,1,"<?xml version=""1.0""?>\n<Clock xmlns:dt=""urn:schemas-microsoft-com:datatypes""><Description dt:dt=""string"">E-Prime Primary Realtime Clock</Description><StartTime><Timestamp dt:dt=""int"">0</Timestamp><DateUtc dt:dt=""string"">2018-10-24T17:16:56Z</DateUtc></StartTime><FrequencyChanges><FrequencyChange><Frequency dt:dt=""r8"">3215292</Frequency><Timestamp dt:dt=""r8"">1300472781907</Timestamp><Current dt:dt=""r8"">0</Current><DateUtc dt:dt=""string"">2018-10-24T17:16:56Z</DateUtc></FrequencyChange></FrequencyChanges></Clock>\n",KW_Experiment5A-40-1,59.946,1.0.0.105,1,-901694713,Professional,2.0.10.353,2.0.10.353,10/24/2018,10/24/2018 17:16,13:16:56,2.0.10.248,2,2,1,2,,,,,,,,TrainingProc,BlockList,37,1,Distractor2.bmp,2,0,,1,0,153782,501,,0,0,blue,500,2,500,3,vertical,blue,Distractor1.bmp,yellow,Distractor1.bmp,purple,Distractor1.bmp,cyan,Distractor1.bmp,lime,Target1.bmp,red,Distractor2.bmp,,,,TrialProc,,TrainingTrialList,1,1,-999999,1,154283,0,1,660,154943,Target1.bmp,lime,1,,,,5,2,37
KW_Experiment5A,40,1,"<?xml version=""1.0""?>\n<Clock xmlns:dt=""urn:schemas-microsoft-com:datatypes""><Description dt:dt=""string"">E-Prime Primary Realtime Clock</Description><StartTime><Timestamp dt:dt=""int"">0</Timestamp><DateUtc dt:dt=""string"">2018-10-24T17:16:56Z</DateUtc></StartTime><FrequencyChanges><FrequencyChange><Frequency dt:dt=""r8"">3215292</Frequency><Timestamp dt:dt=""r8"">1300472781907</Timestamp><Current dt:dt=""r8"">0</Current><DateUtc dt:dt=""string"">2018-10-24T17:16:56Z</DateUtc></FrequencyChange></FrequencyChanges></Clock>\n",KW_Experiment5A-40-1,59.946,1.0.0.105,1,-901694713,Professional,2.0.10.353,2.0.10.353,10/24/2018,10/24/2018 17:16,13:16:56,2.0.10.248,2,2,1,2,,,,,,,,TrainingProc,BlockList,38,1,Distractor2.bmp,2,0,,0,1,155968,600,,0,0,lime,600,3,600,,vertical,lime,Distractor1.bmp,purple,Distractor1.bmp,red,Target1.bmp,cyan,Distractor2.bmp,yellow,Distractor2.bmp,blue,Distractor1.bmp,,,,TrialProc,6,TrainingTrialList,0,1,-999999,0,156568,0,2,583,157151,Target1.bmp,red,1,,,,9,2,38
KW_Experiment5A,40,1,"<?xml version=""1.0""?>\n<Clock xmlns:dt=""urn:schemas-microsoft-com:datatypes""><Description dt:dt=""string"">E-Prime Primary Realtime Clock</Description><StartTime><Timestamp dt:dt=""int"">0</Timestamp><DateUtc dt:dt=""string"">2018-10-24T17:16:56Z</DateUtc></StartTime><FrequencyChanges><FrequencyChange><Frequency dt:dt=""r8"">3215292</Frequency><Timestamp dt:dt=""r8"">1300472781907</Timestamp><Current dt:dt=""r8"">0</Current><DateUtc dt:dt=""string"">2018-10-24T17:16:56Z</DateUtc></FrequencyChange></FrequencyChanges></Clock>\n",KW_Experiment5A-40-1,59.946,1.0.0.105,1,-901694713,Professional,2.0.10.353,2.0.10.353,10/24/2018,10/24/2018 17:16,13:16:56,2.0.10.248,2,2,1,2,,,,,,,,TrainingProc,BlockList,39,1,Distractor1.bmp,1,0,,0,1,158170,500,,0,0,blue,500,2,500,3,vertical,lime,Target1.bmp,blue,Distractor1.bmp,red,Distractor2.bmp,purple,Distractor2.bmp,cyan,Distractor2.bmp,yellow,Distractor1.bmp,,,,TrialProc,,TrainingTrialList,1,1,-999999,0,158670,0,1,593,159263,Target1.bmp,lime,1,,,,1,2,39
KW_Experiment5A,40,1,"<?xml version=""1.0""?>\n<Clock xmlns:dt=""urn:schemas-microsoft-com:datatypes""><Description dt:dt=""string"">E-Prime Primary Realtime Clock</Description><StartTime><Timestamp dt:dt=""int"">0</Timestamp><DateUtc dt:dt=""string"">2018-10-24T17:16:56Z</DateUtc></StartTime><FrequencyChanges><FrequencyChange><Frequency dt:dt=""r8"">3215292</Frequency><Timestamp dt:dt=""r8"">1300472781907</Timestamp><Current dt:dt=""r8"">0</Current><DateUtc dt:dt=""string"">2018-10-24T17:16:56Z</DateUtc></FrequencyChange></FrequencyChanges></Clock>\n",KW_Experiment5A-40-1,59.946,1.0.0.105,1,-901694713,Professional,2.0.10.353,2.0.10.353,10/24/2018,10/24/2018 17:16,13:16:56,2.0.10.248,2,2,1,2,,,,,,,,TrainingProc,BlockList,40,2,Distractor2.bmp,2,0,,0,1,160288,401,,0,0,blue,400,1,400,3,horizontal,blue,Distractor2.bmp,red,Distractor1.bmp,cyan,Distractor2.bmp,yellow,Distractor1.bmp,purple,Distractor1.bmp,lime,Target2.bmp,,,,TrialProc,,TrainingTrialList,1,2,-999999,1,160689,0,2,702,161391,Target2.bmp,lime,2,,,,6,2,40
KW_Experiment5A,40,1,"<?xml version=""1.0""?>\n<Clock xmlns:dt=""urn:schemas-microsoft-com:datatypes""><Description dt:dt=""string"">E-Prime Primary Realtime Clock</Description><StartTime><Timestamp dt:dt=""int"">0</Timestamp><DateUtc dt:dt=""string"">2018-10-24T17:16:56Z</DateUtc></StartTime><FrequencyChanges><FrequencyChange><Frequency dt:dt=""r8"">3215292</Frequency><Timestamp dt:dt=""r8"">1300472781907</Timestamp><Current dt:dt=""r8"">0</Current><DateUtc dt:dt=""string"">2018-10-24T17:16:56Z</DateUtc></FrequencyChange></FrequencyChanges></Clock>\n",KW_Experiment5A-40-1,59.946,1.0.0.105,1,-901694713,Professional,2.0.10.353,2.0.10.353,10/24/2018,10/24/2018 17:16,13:16:56,2.0.10.248,2,2,1,2,,,,,,,,TrainingProc,BlockList,41,2,Distractor2.bmp,2,0,,0,1,162407,400,,0,0,cyan,400,1,400,4,horizontal,cyan,Distractor1.bmp,yellow,Distractor2.bmp,red,Distractor1.bmp,lime,Target2.bmp,blue,Distractor2.bmp,purple,Distractor2.bmp,,,,TrialProc,,TrainingTrialList,1,2,-999999,0,162807,0,2,656,163463,Target2.bmp,lime,2,,,,4,2,41
KW_Experiment5A,40,1,"<?xml version=""1.0""?>\n<Clock xmlns:dt=""urn:schemas-microsoft-com:datatypes""><Description dt:dt=""string"">E-Prime Primary Realtime Clock</Description><StartTime><Timestamp dt:dt=""int"">0</Timestamp><DateUtc dt:dt=""string"">2018-10-24T17:16:56Z</DateUtc></StartTime><FrequencyChanges><FrequencyChange><Frequency dt:dt=""r8"">3215292</Frequency><Timestamp dt:dt=""r8"">1300472781907</Timestamp><Current dt:dt=""r8"">0</Current><DateUtc dt:dt=""string"">2018-10-24T17:16:56Z</DateUtc></FrequencyChange></FrequencyChanges></Clock>\n",KW_Experiment5A-40-1,59.946,1.0.0.105,1,-901694713,Professional,2.0.10.353,2.0.10.353,10/24/2018,10/24/2018 17:16,13:16:56,2.0.10.248,2,2,1,2,,,,,,,,TrainingProc,BlockList,42,2,Distractor1.bmp,1,0,,0,1,164476,500,,0,0,red,500,2,500,1,horizontal,red,Distractor2.bmp,purple,Distractor1.bmp,lime,Target2.bmp,yellow,Distractor1.bmp,cyan,Distractor1.bmp,blue,Distractor2.bmp,,,,TrialProc,,TrainingTrialList,1,2,-999999,0,164976,0,2,551,165527,Target2.bmp,lime,2,,,,3,2,42
KW_Experiment5A,40,1,"<?xml version=""1.0""?>\n<Clock xmlns:dt=""urn:schemas-microsoft-com:datatypes""><Description dt:dt=""string"">E-Prime Primary Realtime Clock</Description><StartTime><Timestamp dt:dt=""int"">0</Timestamp><DateUtc dt:dt=""string"">2018-10-24T17:16:56Z</DateUtc></StartTime><FrequencyChanges><FrequencyChange><Frequency dt:dt=""r8"">3215292</Frequency><Timestamp dt:dt=""r8"">1300472781907</Timestamp><Current dt:dt=""r8"">0</Current><DateUtc dt:dt=""string"">2018-10-24T17:16:56Z</DateUtc></FrequencyChange></FrequencyChanges></Clock>\n",KW_Experiment5A-40-1,59.946,1.0.0.105,1,-901694713,Professional,2.0.10.353,2.0.10.353,10/24/2018,10/24/2018 17:16,13:16:56,2.0.10.248,2,2,1,2,,,,,,,,TrainingProc,BlockList,43,1,Distractor2.bmp,2,0,,0,1,166544,601,,0,0,blue,600,3,600,3,vertical,blue,Distractor1.bmp,lime,Target1.bmp,yellow,Distractor2.bmp,red,Distractor2.bmp,cyan,Distractor2.bmp,purple,Distractor2.bmp,,,,TrialProc,,TrainingTrialList,1,1,-999999,1,167145,0,1,486,167631,Target1.bmp,lime,1,,,,2,2,43
KW_Experiment5A,40,1,"<?xml version=""1.0""?>\n<Clock xmlns:dt=""urn:schemas-microsoft-com:datatypes""><Description dt:dt=""string"">E-Prime Primary Realtime Clock</Description><StartTime><Timestamp dt:dt=""int"">0</Timestamp><DateUtc dt:dt=""string"">2018-10-24T17:16:56Z</DateUtc></StartTime><FrequencyChanges><FrequencyChange><Frequency dt:dt=""r8"">3215292</Frequency><Timestamp dt:dt=""r8"">1300472781907</Timestamp><Current dt:dt=""r8"">0</Current><DateUtc dt:dt=""string"">2018-10-24T17:16:56Z</DateUtc></FrequencyChange></FrequencyChanges></Clock>\n",KW_Experiment5A-40-1,59.946,1.0.0.105,1,-901694713,Professional,2.0.10.353,2.0.10.353,10/24/2018,10/24/2018 17:16,13:16:56,2.0.10.248,2,2,1,2,,,,,,,,TrainingProc,BlockList,44,2,Distractor2.bmp,2,0,,0,1,168646,600,,0,0,blue,600,3,600,3,horizontal,blue,Distractor1.bmp,purple,Distractor2.bmp,yellow,Distractor1.bmp,red,Distractor2.bmp,lime,Target2.bmp,cyan,Distractor2.bmp,,,,TrialProc,,TrainingTrialList,1,2,-999999,0,169246,0,2,569,169815,Target2.bmp,lime,2,,,,5,2,44
KW_Experiment5A,40,1,"<?xml version=""1.0""?>\n<Clock xmlns:dt=""urn:schemas-microsoft-com:datatypes""><Description dt:dt=""string"">E-Prime Primary Realtime Clock</Description><StartTime><Timestamp dt:dt=""int"">0</Timestamp><DateUtc dt:dt=""string"">2018-10-24T17:16:56Z</DateUtc></StartTime><FrequencyChanges><FrequencyChange><Frequency dt:dt=""r8"">3215292</Frequency><Timestamp dt:dt=""r8"">1300472781907</Timestamp><Current dt:dt=""r8"">0</Current><DateUtc dt:dt=""string"">2018-10-24T17:16:56Z</DateUtc></FrequencyChange></FrequencyChanges></Clock>\n",KW_Experiment5A-40-1,59.946,1.0.0.105,1,-901694713,Professional,2.0.10.353,2.0.10.353,10/24/2018,10/24/2018 17:16,13:16:56,2.0.10.248,2,2,1,2,,,,,,,,TrainingProc,BlockList,45,1,Distractor2.bmp,2,0,,0,1,170831,501,,0,0,blue,500,2,500,3,vertical,blue,Distractor1.bmp,yellow,Distractor2.bmp,cyan,Distractor2.bmp,lime,Target1.bmp,red,Distractor2.bmp,purple,Distractor2.bmp,,,,TrialProc,,TrainingTrialList,1,1,-999999,1,171332,0,1,635,171967,Target1.bmp,lime,1,,,,4,2,45
KW_Experiment5A,40,1,"<?xml version=""1.0""?>\n<Clock xmlns:dt=""urn:schemas-microsoft-com:datatypes""><Description dt:dt=""string"">E-Prime Primary Realtime Clock</Description><StartTime><Timestamp dt:dt=""int"">0</Timestamp><DateUtc dt:dt=""string"">2018-10-24T17:16:56Z</DateUtc></StartTime><FrequencyChanges><FrequencyChange><Frequency dt:dt=""r8"">3215292</Frequency><Timestamp dt:dt=""r8"">1300472781907</Timestamp><Current dt:dt=""r8"">0</Current><DateUtc dt:dt=""string"">2018-10-24T17:16:56Z</DateUtc></FrequencyChange></FrequencyChanges></Clock>\n",KW_Experiment5A-40-1,59.946,1.0.0.105,1,-901694713,Professional,2.0.10.353,2.0.10.353,10/24/2018,10/24/2018 17:16,13:16:56,2.0.10.248,2,2,1,2,,,,,,,,TrainingProc,BlockList,46,2,Distractor2.bmp,2,0,,0,1,172983,501,,0,0,blue,500,2,500,3,horizontal,blue,Distractor2.bmp,red,Distractor2.bmp,cyan,Distractor1.bmp,purple,Distractor2.bmp,lime,Target2.bmp,yellow,Distractor2.bmp,,,,TrialProc,,TrainingTrialList,1,2,-999999,1,173484,0,2,587,174071,Target2.bmp,lime,2,,,,5,2,46
KW_Experiment5A,40,1,"<?xml version=""1.0""?>\n<Clock xmlns:dt=""urn:schemas-microsoft-com:datatypes""><Description dt:dt=""string"">E-Prime Primary Realtime Clock</Description><StartTime><Timestamp dt:dt=""int"">0</Timestamp><DateUtc dt:dt=""string"">2018-10-24T17:16:56Z</DateUtc></StartTime><FrequencyChanges><FrequencyChange><Frequency dt:dt=""r8"">3215292</Frequency><Timestamp dt:dt=""r8"">1300472781907</Timestamp><Current dt:dt=""r8"">0</Current><DateUtc dt:dt=""string"">2018-10-24T17:16:56Z</DateUtc></FrequencyChange></FrequencyChanges></Clock>\n",KW_Experiment5A-40-1,59.946,1.0.0.105,1,-901694713,Professional,2.0.10.353,2.0.10.353,10/24/2018,10/24/2018 17:16,13:16:56,2.0.10.248,2,2,1,2,,,,,,,,TrainingProc,BlockList,47,1,Distractor1.bmp,1,0,,0,1,175085,601,,0,0,cyan,600,3,600,,vertical,cyan,Distractor2.bmp,red,Target1.bmp,blue,Distractor1.bmp,yellow,Distractor1.bmp,purple,Distractor2.bmp,lime,Distractor2.bmp,,,,TrialProc,4,TrainingTrialList,1,1,-999999,1,175686,0,1,505,176191,Target1.bmp,red,1,,,,8,2,47
KW_Experiment5A,40,1,"<?xml version=""1.0""?>\n<Clock xmlns:dt=""urn:schemas-microsoft-com:datatypes""><Description dt:dt=""string"">E-Prime Primary Realtime Clock</Description><StartTime><Timestamp dt:dt=""int"">0</Timestamp><DateUtc dt:dt=""string"">2018-10-24T17:16:56Z</DateUtc></StartTime><FrequencyChanges><FrequencyChange><Frequency dt:dt=""r8"">3215292</Frequency><Timestamp dt:dt=""r8"">1300472781907</Timestamp><Current dt:dt=""r8"">0</Current><DateUtc dt:dt=""string"">2018-10-24T17:16:56Z</DateUtc></FrequencyChange></FrequencyChanges></Clock>\n",KW_Experiment5A-40-1,59.946,1.0.0.105,1,-901694713,Professional,2.0.10.353,2.0.10.353,10/24/2018,10/24/2018 17:16,13:16:56,2.0.10.248,2,2,1,2,,,,,,,,TrainingProc,BlockList,48,1,Distractor2.bmp,2,0,,0,0,177220,501,,0,0,red,500,2,500,1,vertical,red,Distractor2.bmp,yellow,Distractor1.bmp,lime,Target1.bmp,cyan,Distractor2.bmp,purple,Distractor2.bmp,blue,Distractor1.bmp,,,,TrialProc,,TrainingTrialList,1,1,-999999,1,177721,0,1,846,178567,Target1.bmp,lime,1,,,,3,2,48
KW_Experiment5A,40,1,"<?xml version=""1.0""?>\n<Clock xmlns:dt=""urn:schemas-microsoft-com:datatypes""><Description dt:dt=""string"">E-Prime Primary Realtime Clock</Description><StartTime><Timestamp dt:dt=""int"">0</Timestamp><DateUtc dt:dt=""string"">2018-10-24T17:16:56Z</DateUtc></StartTime><FrequencyChanges><FrequencyChange><Frequency dt:dt=""r8"">3215292</Frequency><Timestamp dt:dt=""r8"">1300472781907</Timestamp><Current dt:dt=""r8"">0</Current><DateUtc dt:dt=""string"">2018-10-24T17:16:56Z</DateUtc></FrequencyChange></FrequencyChanges></Clock>\n",KW_Experiment5A-40-1,59.946,1.0.0.105,1,-901694713,Professional,2.0.10.353,2.0.10.353,10/24/2018,10/24/2018 17:16,13:16:56,2.0.10.248,3,2,1,3,,,,,,,,TrainingProc,BlockList,1,1,Distractor1.bmp,1,0,,0,18,181841,401,,0,0,cyan,400,1,400,4,vertical,lime,Target1.bmp,cyan,Distractor1.bmp,red,Distractor2.bmp,yellow,Distractor2.bmp,purple,Distractor2.bmp,blue,Distractor2.bmp,,,,TrialProc,,TrainingTrialList,1,1,-999999,1,182242,0,1,789,183031,Target1.bmp,lime,1,,,,1,3,49
KW_Experiment5A,40,1,"<?xml version=""1.0""?>\n<Clock xmlns:dt=""urn:schemas-microsoft-com:datatypes""><Description dt:dt=""string"">E-Prime Primary Realtime Clock</Description><StartTime><Timestamp dt:dt=""int"">0</Timestamp><DateUtc dt:dt=""string"">2018-10-24T17:16:56Z</DateUtc></StartTime><FrequencyChanges><FrequencyChange><Frequency dt:dt=""r8"">3215292</Frequency><Timestamp dt:dt=""r8"">1300472781907</Timestamp><Current dt:dt=""r8"">0</Current><DateUtc dt:dt=""string"">2018-10-24T17:16:56Z</DateUtc></FrequencyChange></FrequencyChanges></Clock>\n",KW_Experiment5A-40-1,59.946,1.0.0.105,1,-901694713,Professional,2.0.10.353,2.0.10.353,10/24/2018,10/24/2018 17:16,13:16:56,2.0.10.248,3,2,1,3,,,,,,,,TrainingProc,BlockList,2,1,Distractor2.bmp,2,0,,0,1,184043,401,,0,0,red,400,1,400,1,vertical,red,Distractor2.bmp,cyan,Distractor1.bmp,purple,Distractor2.bmp,lime,Target1.bmp,yellow,Distractor2.bmp,blue,Distractor2.bmp,,,,TrialProc,,TrainingTrialList,1,1,-999999,1,184444,0,1,579,185023,Target1.bmp,lime,1,,,,4,3,50
KW_Experiment5A,40,1,"<?xml version=""1.0""?>\n<Clock xmlns:dt=""urn:schemas-microsoft-com:datatypes""><Description dt:dt=""string"">E-Prime Primary Realtime Clock</Description><StartTime><Timestamp dt:dt=""int"">0</Timestamp><DateUtc dt:dt=""string"">2018-10-24T17:16:56Z</DateUtc></StartTime><FrequencyChanges><FrequencyChange><Frequency dt:dt=""r8"">3215292</Frequency><Timestamp dt:dt=""r8"">1300472781907</Timestamp><Current dt:dt=""r8"">0</Current><DateUtc dt:dt=""string"">2018-10-24T17:16:56Z</DateUtc></FrequencyChange></FrequencyChanges></Clock>\n",KW_Experiment5A-40-1,59.946,1.0.0.105,1,-901694713,Professional,2.0.10.353,2.0.10.353,10/24/2018,10/24/2018 17:16,13:16:56,2.0.10.248,3,2,1,3,,,,,,,,TrainingProc,BlockList,3,1,Distractor1.bmp,1,0,,0,1,186045,400,,0,0,cyan,400,1,400,,vertical,cyan,Distractor2.bmp,purple,Distractor2.bmp,lime,Distractor1.bmp,blue,Distractor2.bmp,red,Target1.bmp,yellow,Distractor1.bmp,,,,TrialProc,4,TrainingTrialList,1,1,-999999,0,186445,0,1,1018,187463,Target1.bmp,red,1,,,,11,3,51
KW_Experiment5A,40,1,"<?xml version=""1.0""?>\n<Clock xmlns:dt=""urn:schemas-microsoft-com:datatypes""><Description dt:dt=""string"">E-Prime Primary Realtime Clock</Description><StartTime><Timestamp dt:dt=""int"">0</Timestamp><DateUtc dt:dt=""string"">2018-10-24T17:16:56Z</DateUtc></StartTime><FrequencyChanges><FrequencyChange><Frequency dt:dt=""r8"">3215292</Frequency><Timestamp dt:dt=""r8"">1300472781907</Timestamp><Current dt:dt=""r8"">0</Current><DateUtc dt:dt=""string"">2018-10-24T17:16:56Z</DateUtc></FrequencyChange></FrequencyChanges></Clock>\n",KW_Experiment5A-40-1,59.946,1.0.0.105,1,-901694713,Professional,2.0.10.353,2.0.10.353,10/24/2018,10/24/2018 17:16,13:16:56,2.0.10.248,3,2,1,3,,,,,,,,TrainingProc,BlockList,4,2,Distractor2.bmp,2,0,,0,1,188481,400,,0,0,purple,400,1,400,5,horizontal,purple,Distractor2.bmp,yellow,Distractor1.bmp,lime,Target2.bmp,cyan,Distractor2.bmp,blue,Distractor1.bmp,red,Distractor2.bmp,,,,TrialProc,,TrainingTrialList,1,2,-999999,0,188881,0,2,982,189863,Target2.bmp,lime,2,,,,3,3,52
KW_Experiment5A,40,1,"<?xml version=""1.0""?>\n<Clock xmlns:dt=""urn:schemas-microsoft-com:datatypes""><Description dt:dt=""string"">E-Prime Primary Realtime Clock</Description><StartTime><Timestamp dt:dt=""int"">0</Timestamp><DateUtc dt:dt=""string"">2018-10-24T17:16:56Z</DateUtc></StartTime><FrequencyChanges><FrequencyChange><Frequency dt:dt=""r8"">3215292</Frequency><Timestamp dt:dt=""r8"">1300472781907</Timestamp><Current dt:dt=""r8"">0</Current><DateUtc dt:dt=""string"">2018-10-24T17:16:56Z</DateUtc></FrequencyChange></FrequencyChanges></Clock>\n",KW_Experiment5A-40-1,59.946,1.0.0.105,1,-901694713,Professional,2.0.10.353,2.0.10.353,10/24/2018,10/24/2018 17:16,13:16:56,2.0.10.248,3,2,1,3,,,,,,,,TrainingProc,BlockList,5,1,Distractor2.bmp,2,0,,0,1,190883,400,,0,0,purple,400,1,400,,vertical,purple,Distractor1.bmp,lime,Distractor2.bmp,red,Target1.bmp,blue,Distractor2.bmp,yellow,Distractor1.bmp,cyan,Distractor2.bmp,,,,TrialProc,5,TrainingTrialList,1,1,-999999,0,191283,0,1,604,191887,Target1.bmp,red,1,,,,9,3,53
KW_Experiment5A,40,1,"<?xml version=""1.0""?>\n<Clock xmlns:dt=""urn:schemas-microsoft-com:datatypes""><Description dt:dt=""string"">E-Prime Primary Realtime Clock</Description><StartTime><Timestamp dt:dt=""int"">0</Timestamp><DateUtc dt:dt=""string"">2018-10-24T17:16:56Z</DateUtc></StartTime><FrequencyChanges><FrequencyChange><Frequency dt:dt=""r8"">3215292</Frequency><Timestamp dt:dt=""r8"">1300472781907</Timestamp><Current dt:dt=""r8"">0</Current><DateUtc dt:dt=""string"">2018-10-24T17:16:56Z</DateUtc></FrequencyChange></FrequencyChanges></Clock>\n",KW_Experiment5A-40-1,59.946,1.0.0.105,1,-901694713,Professional,2.0.10.353,2.0.10.353,10/24/2018,10/24/2018 17:16,13:16:56,2.0.10.248,3,2,1,3,,,,,,,,TrainingProc,BlockList,6,1,Distractor2.bmp,2,0,,0,1,192901,501,,0,0,blue,500,2,500,3,vertical,blue,Distractor1.bmp,cyan,Distractor1.bmp,yellow,Distractor2.bmp,lime,Target1.bmp,purple,Distractor2.bmp,red,Distractor2.bmp,,,,TrialProc,,TrainingTrialList,1,1,-999999,1,193402,0,1,661,194063,Target1.bmp,lime,1,,,,4,3,54
KW_Experiment5A,40,1,"<?xml version=""1.0""?>\n<Clock xmlns:dt=""urn:schemas-microsoft-com:datatypes""><Description dt:dt=""string"">E-Prime Primary Realtime Clock</Description><StartTime><Timestamp dt:dt=""int"">0</Timestamp><DateUtc dt:dt=""string"">2018-10-24T17:16:56Z</DateUtc></StartTime><FrequencyChanges><FrequencyChange><Frequency dt:dt=""r8"">3215292</Frequency><Timestamp dt:dt=""r8"">1300472781907</Timestamp><Current dt:dt=""r8"">0</Current><DateUtc dt:dt=""string"">2018-10-24T17:16:56Z</DateUtc></FrequencyChange></FrequencyChanges></Clock>\n",KW_Experiment5A-40-1,59.946,1.0.0.105,1,-901694713,Professional,2.0.10.353,2.0.10.353,10/24/2018,10/24/2018 17:16,13:16:56,2.0.10.248,3,2,1,3,,,,,,,,TrainingProc,BlockList,7,1,Distractor1.bmp,1,0,,0,1,195087,400,,0,0,purple,400,1,400,5,vertical,lime,Target1.bmp,purple,Distractor1.bmp,blue,Distractor1.bmp,red,Distractor1.bmp,cyan,Distractor2.bmp,yellow,Distractor1.bmp,,,,TrialProc,,TrainingTrialList,1,1,-999999,0,195487,0,1,552,196039,Target1.bmp,lime,1,,,,1,3,55
KW_Experiment5A,40,1,"<?xml version=""1.0""?>\n<Clock xmlns:dt=""urn:schemas-microsoft-com:datatypes""><Description dt:dt=""string"">E-Prime Primary Realtime Clock</Description><StartTime><Timestamp dt:dt=""int"">0</Timestamp><DateUtc dt:dt=""string"">2018-10-24T17:16:56Z</DateUtc></StartTime><FrequencyChanges><FrequencyChange><Frequency dt:dt=""r8"">3215292</Frequency><Timestamp dt:dt=""r8"">1300472781907</Timestamp><Current dt:dt=""r8"">0</Current><DateUtc dt:dt=""string"">2018-10-24T17:16:56Z</DateUtc></FrequencyChange></FrequencyChanges></Clock>\n",KW_Experiment5A-40-1,59.946,1.0.0.105,1,-901694713,Professional,2.0.10.353,2.0.10.353,10/24/2018,10/24/2018 17:16,13:16:56,2.0.10.248,3,2,1,3,,,,,,,,TrainingProc,BlockList,8,1,Distractor2.bmp,2,0,,0,1,197055,400,,0,0,blue,400,1,400,3,vertical,blue,Distractor2.bmp,lime,Target1.bmp,red,Distractor2.bmp,cyan,Distractor1.bmp,yellow,Distractor1.bmp,purple,Distractor2.bmp,,,,TrialProc,,TrainingTrialList,1,1,-999999,0,197455,0,1,487,197942,Target1.bmp,lime,1,,,,2,3,56
KW_Experiment5A,40,1,"<?xml version=""1.0""?>\n<Clock xmlns:dt=""urn:schemas-microsoft-com:datatypes""><Description dt:dt=""string"">E-Prime Primary Realtime Clock</Description><StartTime><Timestamp dt:dt=""int"">0</Timestamp><DateUtc dt:dt=""string"">2018-10-24T17:16:56Z</DateUtc></StartTime><FrequencyChanges><FrequencyChange><Frequency dt:dt=""r8"">3215292</Frequency><Timestamp dt:dt=""r8"">1300472781907</Timestamp><Current dt:dt=""r8"">0</Current><DateUtc dt:dt=""string"">2018-10-24T17:16:56Z</DateUtc></FrequencyChange></FrequencyChanges></Clock>\n",KW_Experiment5A-40-1,59.946,1.0.0.105,1,-901694713,Professional,2.0.10.353,2.0.10.353,10/24/2018,10/24/2018 17:16,13:16:56,2.0.10.248,3,2,1,3,,,,,,,,TrainingProc,BlockList,9,1,Distractor1.bmp,1,0,,0,1,198957,600,,0,0,red,600,3,600,1,vertical,red,Distractor2.bmp,lime,Target1.bmp,yellow,Distractor1.bmp,cyan,Distractor2.bmp,blue,Distractor1.bmp,purple,Distractor2.bmp,,,,TrialProc,,TrainingTrialList,1,1,-999999,0,199557,0,1,409,199966,Target1.bmp,lime,1,,,,2,3,57
KW_Experiment5A,40,1,"<?xml version=""1.0""?>\n<Clock xmlns:dt=""urn:schemas-microsoft-com:datatypes""><Description dt:dt=""string"">E-Prime Primary Realtime Clock</Description><StartTime><Timestamp dt:dt=""int"">0</Timestamp><DateUtc dt:dt=""string"">2018-10-24T17:16:56Z</DateUtc></StartTime><FrequencyChanges><FrequencyChange><Frequency dt:dt=""r8"">3215292</Frequency><Timestamp dt:dt=""r8"">1300472781907</Timestamp><Current dt:dt=""r8"">0</Current><DateUtc dt:dt=""string"">2018-10-24T17:16:56Z</DateUtc></FrequencyChange></FrequencyChanges></Clock>\n",KW_Experiment5A-40-1,59.946,1.0.0.105,1,-901694713,Professional,2.0.10.353,2.0.10.353,10/24/2018,10/24/2018 17:16,13:16:56,2.0.10.248,3,2,1,3,,,,,,,,TrainingProc,BlockList,10,1,Distractor2.bmp,2,0,,0,1,200992,600,,0,0,blue,600,3,600,3,vertical,blue,Distractor1.bmp,yellow,Distractor1.bmp,lime,Target1.bmp,cyan,Distractor2.bmp,purple,Distractor2.bmp,red,Distractor2.bmp,,,,TrialProc,,TrainingTrialList,1,1,-999999,0,201592,0,1,774,202366,Target1.bmp,lime,1,,,,3,3,58
KW_Experiment5A,40,1,"<?xml version=""1.0""?>\n<Clock xmlns:dt=""urn:schemas-microsoft-com:datatypes""><Description dt:dt=""string"">E-Prime Primary Realtime Clock</Description><StartTime><Timestamp dt:dt=""int"">0</Timestamp><DateUtc dt:dt=""string"">2018-10-24T17:16:56Z</DateUtc></StartTime><FrequencyChanges><FrequencyChange><Frequency dt:dt=""r8"">3215292</Frequency><Timestamp dt:dt=""r8"">1300472781907</Timestamp><Current dt:dt=""r8"">0</Current><DateUtc dt:dt=""string"">2018-10-24T17:16:56Z</DateUtc></FrequencyChange></FrequencyChanges></Clock>\n",KW_Experiment5A-40-1,59.946,1.0.0.105,1,-901694713,Professional,2.0.10.353,2.0.10.353,10/24/2018,10/24/2018 17:16,13:16:56,2.0.10.248,3,2,1,3,,,,,,,,TrainingProc,BlockList,11,1,Distractor1.bmp,1,0,,1,0,203377,601,,0,0,cyan,600,3,600,4,vertical,cyan,Distractor1.bmp,yellow,Distractor2.bmp,red,Distractor2.bmp,purple,Distractor1.bmp,blue,Distractor2.bmp,lime,Target1.bmp,,,,TrialProc,,TrainingTrialList,1,1,-999999,1,203978,0,1,460,204438,Target1.bmp,lime,1,,,,6,3,59
KW_Experiment5A,40,1,"<?xml version=""1.0""?>\n<Clock xmlns:dt=""urn:schemas-microsoft-com:datatypes""><Description dt:dt=""string"">E-Prime Primary Realtime Clock</Description><StartTime><Timestamp dt:dt=""int"">0</Timestamp><DateUtc dt:dt=""string"">2018-10-24T17:16:56Z</DateUtc></StartTime><FrequencyChanges><FrequencyChange><Frequency dt:dt=""r8"">3215292</Frequency><Timestamp dt:dt=""r8"">1300472781907</Timestamp><Current dt:dt=""r8"">0</Current><DateUtc dt:dt=""string"">2018-10-24T17:16:56Z</DateUtc></FrequencyChange></FrequencyChanges></Clock>\n",KW_Experiment5A-40-1,59.946,1.0.0.105,1,-901694713,Professional,2.0.10.353,2.0.10.353,10/24/2018,10/24/2018 17:16,13:16:56,2.0.10.248,3,2,1,3,,,,,,,,TrainingProc,BlockList,12,1,Distractor1.bmp,1,0,,0,1,205463,500,,0,0,cyan,500,2,500,4,vertical,cyan,Distractor1.bmp,blue,Distractor1.bmp,yellow,Distractor2.bmp,red,Distractor1.bmp,lime,Target1.bmp,purple,Distractor1.bmp,,,,TrialProc,,TrainingTrialList,1,1,-999999,0,205963,0,1,435,206398,Target1.bmp,lime,1,,,,5,3,60
KW_Experiment5A,40,1,"<?xml version=""1.0""?>\n<Clock xmlns:dt=""urn:schemas-microsoft-com:datatypes""><Description dt:dt=""string"">E-Prime Primary Realtime Clock</Description><StartTime><Timestamp dt:dt=""int"">0</Timestamp><DateUtc dt:dt=""string"">2018-10-24T17:16:56Z</DateUtc></StartTime><FrequencyChanges><FrequencyChange><Frequency dt:dt=""r8"">3215292</Frequency><Timestamp dt:dt=""r8"">1300472781907</Timestamp><Current dt:dt=""r8"">0</Current><DateUtc dt:dt=""string"">2018-10-24T17:16:56Z</DateUtc></FrequencyChange></FrequencyChanges></Clock>\n",KW_Experiment5A-40-1,59.946,1.0.0.105,1,-901694713,Professional,2.0.10.353,2.0.10.353,10/24/2018,10/24/2018 17:16,13:16:56,2.0.10.248,3,2,1,3,,,,,,,,TrainingProc,BlockList,13,2,Distractor1.bmp,1,0,,1,0,207414,401,,0,0,red,400,1,400,1,horizontal,lime,Target2.bmp,red,Distractor1.bmp,blue,Distractor1.bmp,yellow,Distractor1.bmp,purple,Distractor2.bmp,cyan,Distractor2.bmp,,,,TrialProc,,TrainingTrialList,0,2,-999999,1,207815,0,1,471,208286,Target2.bmp,lime,2,,,,1,3,61
KW_Experiment5A,40,1,"<?xml version=""1.0""?>\n<Clock xmlns:dt=""urn:schemas-microsoft-com:datatypes""><Description dt:dt=""string"">E-Prime Primary Realtime Clock</Description><StartTime><Timestamp dt:dt=""int"">0</Timestamp><DateUtc dt:dt=""string"">2018-10-24T17:16:56Z</DateUtc></StartTime><FrequencyChanges><FrequencyChange><Frequency dt:dt=""r8"">3215292</Frequency><Timestamp dt:dt=""r8"">1300472781907</Timestamp><Current dt:dt=""r8"">0</Current><DateUtc dt:dt=""string"">2018-10-24T17:16:56Z</DateUtc></FrequencyChange></FrequencyChanges></Clock>\n",KW_Experiment5A-40-1,59.946,1.0.0.105,1,-901694713,Professional,2.0.10.353,2.0.10.353,10/24/2018,10/24/2018 17:16,13:16:56,2.0.10.248,3,2,1,3,,,,,,,,TrainingProc,BlockList,14,2,Distractor1.bmp,1,0,,1,0,209299,601,,0,0,cyan,600,3,600,,horizontal,cyan,Distractor2.bmp,yellow,Distractor2.bmp,purple,Distractor1.bmp,red,Target2.bmp,lime,Distractor1.bmp,blue,Distractor2.bmp,,,,TrialProc,4,TrainingTrialList,1,2,-999999,1,209900,0,2,962,210862,Target2.bmp,red,2,,,,10,3,62
KW_Experiment5A,40,1,"<?xml version=""1.0""?>\n<Clock xmlns:dt=""urn:schemas-microsoft-com:datatypes""><Description dt:dt=""string"">E-Prime Primary Realtime Clock</Description><StartTime><Timestamp dt:dt=""int"">0</Timestamp><DateUtc dt:dt=""string"">2018-10-24T17:16:56Z</DateUtc></StartTime><FrequencyChanges><FrequencyChange><Frequency dt:dt=""r8"">3215292</Frequency><Timestamp dt:dt=""r8"">1300472781907</Timestamp><Current dt:dt=""r8"">0</Current><DateUtc dt:dt=""string"">2018-10-24T17:16:56Z</DateUtc></FrequencyChange></FrequencyChanges></Clock>\n",KW_Experiment5A-40-1,59.946,1.0.0.105,1,-901694713,Professional,2.0.10.353,2.0.10.353,10/24/2018,10/24/2018 17:16,13:16:56,2.0.10.248,3,2,1,3,,,,,,,,TrainingProc,BlockList,15,2,Distractor1.bmp,1,0,,0,1,211885,601,,0,0,lime,600,3,600,,horizontal,lime,Distractor1.bmp,cyan,Distractor1.bmp,blue,Distractor2.bmp,yellow,Distractor1.bmp,purple,Distractor1.bmp,red,Target2.bmp,,,,TrialProc,6,TrainingTrialList,1,2,-999999,1,212486,0,2,504,212990,Target2.bmp,red,2,,,,12,3,63
KW_Experiment5A,40,1,"<?xml version=""1.0""?>\n<Clock xmlns:dt=""urn:schemas-microsoft-com:datatypes""><Description dt:dt=""string"">E-Prime Primary Realtime Clock</Description><StartTime><Timestamp dt:dt=""int"">0</Timestamp><DateUtc dt:dt=""string"">2018-10-24T17:16:56Z</DateUtc></StartTime><FrequencyChanges><FrequencyChange><Frequency dt:dt=""r8"">3215292</Frequency><Timestamp dt:dt=""r8"">1300472781907</Timestamp><Current dt:dt=""r8"">0</Current><DateUtc dt:dt=""string"">2018-10-24T17:16:56Z</DateUtc></FrequencyChange></FrequencyChanges></Clock>\n",KW_Experiment5A-40-1,59.946,1.0.0.105,1,-901694713,Professional,2.0.10.353,2.0.10.353,10/24/2018,10/24/2018 17:16,13:16:56,2.0.10.248,3,2,1,3,,,,,,,,TrainingProc,BlockList,16,1,Distractor2.bmp,2,0,,0,1,214004,400,,0,0,blue,400,1,400,3,vertical,blue,Distractor1.bmp,purple,Distractor2.bmp,yellow,Distractor1.bmp,red,Distractor2.bmp,lime,Target1.bmp,cyan,Distractor2.bmp,,,,TrialProc,,TrainingTrialList,1,1,-999999,0,214404,0,1,1026,215430,Target1.bmp,lime,1,,,,5,3,64
KW_Experiment5A,40,1,"<?xml version=""1.0""?>\n<Clock xmlns:dt=""urn:schemas-microsoft-com:datatypes""><Description dt:dt=""string"">E-Prime Primary Realtime Clock</Description><StartTime><Timestamp dt:dt=""int"">0</Timestamp><DateUtc dt:dt=""string"">2018-10-24T17:16:56Z</DateUtc></StartTime><FrequencyChanges><FrequencyChange><Frequency dt:dt=""r8"">3215292</Frequency><Timestamp dt:dt=""r8"">1300472781907</Timestamp><Current dt:dt=""r8"">0</Current><DateUtc dt:dt=""string"">2018-10-24T17:16:56Z</DateUtc></FrequencyChange></FrequencyChanges></Clock>\n",KW_Experiment5A-40-1,59.946,1.0.0.105,1,-901694713,Professional,2.0.10.353,2.0.10.353,10/24/2018,10/24/2018 17:16,13:16:56,2.0.10.248,3,2,1,3,,,,,,,,TrainingProc,BlockList,17,2,Distractor1.bmp,1,0,,0,1,216456,500,,0,0,cyan,500,2,500,4,horizontal,cyan,Distractor1.bmp,lime,Target2.bmp,blue,Distractor1.bmp,yellow,Distractor1.bmp,red,Distractor1.bmp,purple,Distractor2.bmp,,,,TrialProc,,TrainingTrialList,1,2,-999999,0,216956,0,2,618,217574,Target2.bmp,lime,2,,,,2,3,65
KW_Experiment5A,40,1,"<?xml version=""1.0""?>\n<Clock xmlns:dt=""urn:schemas-microsoft-com:datatypes""><Description dt:dt=""string"">E-Prime Primary Realtime Clock</Description><StartTime><Timestamp dt:dt=""int"">0</Timestamp><DateUtc dt:dt=""string"">2018-10-24T17:16:56Z</DateUtc></StartTime><FrequencyChanges><FrequencyChange><Frequency dt:dt=""r8"">3215292</Frequency><Timestamp dt:dt=""r8"">1300472781907</Timestamp><Current dt:dt=""r8"">0</Current><DateUtc dt:dt=""string"">2018-10-24T17:16:56Z</DateUtc></FrequencyChange></FrequencyChanges></Clock>\n",KW_Experiment5A-40-1,59.946,1.0.0.105,1,-901694713,Professional,2.0.10.353,2.0.10.353,10/24/2018,10/24/2018 17:16,13:16:56,2.0.10.248,3,2,1,3,,,,,,,,TrainingProc,BlockList,18,2,Distractor1.bmp,1,0,,0,1,218591,401,,0,0,yellow,400,1,400,2,horizontal,yellow,Distractor2.bmp,purple,Distractor1.bmp,red,Distractor1.bmp,blue,Distractor2.bmp,lime,Target2.bmp,cyan,Distractor1.bmp,,,,TrialProc,,TrainingTrialList,1,2,-999999,1,218992,0,2,598,219590,Target2.bmp,lime,2,,,,5,3,66
KW_Experiment5A,40,1,"<?xml version=""1.0""?>\n<Clock xmlns:dt=""urn:schemas-microsoft-com:datatypes""><Description dt:dt=""string"">E-Prime Primary Realtime Clock</Description><StartTime><Timestamp dt:dt=""int"">0</Timestamp><DateUtc dt:dt=""string"">2018-10-24T17:16:56Z</DateUtc></StartTime><FrequencyChanges><FrequencyChange><Frequency dt:dt=""r8"">3215292</Frequency><Timestamp dt:dt=""r8"">1300472781907</Timestamp><Current dt:dt=""r8"">0</Current><DateUtc dt:dt=""string"">2018-10-24T17:16:56Z</DateUtc></FrequencyChange></FrequencyChanges></Clock>\n",KW_Experiment5A-40-1,59.946,1.0.0.105,1,-901694713,Professional,2.0.10.353,2.0.10.353,10/24/2018,10/24/2018 17:16,13:16:56,2.0.10.248,3,2,1,3,,,,,,,,TrainingProc,BlockList,19,1,Distractor2.bmp,2,0,,0,1,220610,600,,0,0,yellow,600,3,600,2,vertical,yellow,Distractor2.bmp,blue,Distractor1.bmp,lime,Target1.bmp,cyan,Distractor2.bmp,purple,Distractor2.bmp,red,Distractor1.bmp,,,,TrialProc,,TrainingTrialList,1,1,-999999,0,221210,0,1,660,221870,Target1.bmp,lime,1,,,,3,3,67
KW_Experiment5A,40,1,"<?xml version=""1.0""?>\n<Clock xmlns:dt=""urn:schemas-microsoft-com:datatypes""><Description dt:dt=""string"">E-Prime Primary Realtime Clock</Description><StartTime><Timestamp dt:dt=""int"">0</Timestamp><DateUtc dt:dt=""string"">2018-10-24T17:16:56Z</DateUtc></StartTime><FrequencyChanges><FrequencyChange><Frequency dt:dt=""r8"">3215292</Frequency><Timestamp dt:dt=""r8"">1300472781907</Timestamp><Current dt:dt=""r8"">0</Current><DateUtc dt:dt=""string"">2018-10-24T17:16:56Z</DateUtc></FrequencyChange></FrequencyChanges></Clock>\n",KW_Experiment5A-40-1,59.946,1.0.0.105,1,-901694713,Professional,2.0.10.353,2.0.10.353,10/24/2018,10/24/2018 17:16,13:16:56,2.0.10.248,3,2,1,3,,,,,,,,TrainingProc,BlockList,20,1,Distractor1.bmp,1,0,,0,1,222895,401,,0,0,red,400,1,400,1,vertical,red,Distractor1.bmp,blue,Distractor2.bmp,purple,Distractor1.bmp,cyan,Distractor1.bmp,yellow,Distractor1.bmp,lime,Target1.bmp,,,,TrialProc,,TrainingTrialList,1,1,-999999,1,223296,0,1,478,223774,Target1.bmp,lime,1,,,,6,3,68
KW_Experiment5A,40,1,"<?xml version=""1.0""?>\n<Clock xmlns:dt=""urn:schemas-microsoft-com:datatypes""><Description dt:dt=""string"">E-Prime Primary Realtime Clock</Description><StartTime><Timestamp dt:dt=""int"">0</Timestamp><DateUtc dt:dt=""string"">2018-10-24T17:16:56Z</DateUtc></StartTime><FrequencyChanges><FrequencyChange><Frequency dt:dt=""r8"">3215292</Frequency><Timestamp dt:dt=""r8"">1300472781907</Timestamp><Current dt:dt=""r8"">0</Current><DateUtc dt:dt=""string"">2018-10-24T17:16:56Z</DateUtc></FrequencyChange></FrequencyChanges></Clock>\n",KW_Experiment5A-40-1,59.946,1.0.0.105,1,-901694713,Professional,2.0.10.353,2.0.10.353,10/24/2018,10/24/2018 17:16,13:16:56,2.0.10.248,3,2,1,3,,,,,,,,TrainingProc,BlockList,21,1,Distractor1.bmp,1,0,,0,1,224797,400,,0,0,cyan,400,1,400,4,vertical,cyan,Distractor2.bmp,red,Distractor1.bmp,blue,Distractor1.bmp,lime,Target1.bmp,purple,Distractor1.bmp,yellow,Distractor1.bmp,,,,TrialProc,,TrainingTrialList,1,1,-999999,0,225197,0,1,601,225798,Target1.bmp,lime,1,,,,4,3,69
KW_Experiment5A,40,1,"<?xml version=""1.0""?>\n<Clock xmlns:dt=""urn:schemas-microsoft-com:datatypes""><Description dt:dt=""string"">E-Prime Primary Realtime Clock</Description><StartTime><Timestamp dt:dt=""int"">0</Timestamp><DateUtc dt:dt=""string"">2018-10-24T17:16:56Z</DateUtc></StartTime><FrequencyChanges><FrequencyChange><Frequency dt:dt=""r8"">3215292</Frequency><Timestamp dt:dt=""r8"">1300472781907</Timestamp><Current dt:dt=""r8"">0</Current><DateUtc dt:dt=""string"">2018-10-24T17:16:56Z</DateUtc></FrequencyChange></FrequencyChanges></Clock>\n",KW_Experiment5A-40-1,59.946,1.0.0.105,1,-901694713,Professional,2.0.10.353,2.0.10.353,10/24/2018,10/24/2018 17:16,13:16:56,2.0.10.248,3,2,1,3,,,,,,,,TrainingProc,BlockList,22,2,Distractor1.bmp,1,0,,1,0,226815,501,,0,0,blue,500,2,500,,horizontal,red,Target2.bmp,cyan,Distractor1.bmp,yellow,Distractor1.bmp,lime,Distractor1.bmp,purple,Distractor1.bmp,blue,Distractor2.bmp,,,,TrialProc,3,TrainingTrialList,1,2,-999999,1,227316,0,2,706,228022,Target2.bmp,red,2,,,,7,3,70
KW_Experiment5A,40,1,"<?xml version=""1.0""?>\n<Clock xmlns:dt=""urn:schemas-microsoft-com:datatypes""><Description dt:dt=""string"">E-Prime Primary Realtime Clock</Description><StartTime><Timestamp dt:dt=""int"">0</Timestamp><DateUtc dt:dt=""string"">2018-10-24T17:16:56Z</DateUtc></StartTime><FrequencyChanges><FrequencyChange><Frequency dt:dt=""r8"">3215292</Frequency><Timestamp dt:dt=""r8"">1300472781907</Timestamp><Current dt:dt=""r8"">0</Current><DateUtc dt:dt=""string"">2018-10-24T17:16:56Z</DateUtc></FrequencyChange></FrequencyChanges></Clock>\n",KW_Experiment5A-40-1,59.946,1.0.0.105,1,-901694713,Professional,2.0.10.353,2.0.10.353,10/24/2018,10/24/2018 17:16,13:16:56,2.0.10.248,3,2,1,3,,,,,,,,TrainingProc,BlockList,23,1,Distractor1.bmp,1,0,,0,1,229034,400,,0,0,purple,400,1,400,5,vertical,purple,Distractor1.bmp,blue,Distractor1.bmp,cyan,Distractor1.bmp,red,Distractor2.bmp,yellow,Distractor2.bmp,lime,Target1.bmp,,,,TrialProc,,TrainingTrialList,1,1,-999999,0,229434,0,1,2092,231526,Target1.bmp,lime,1,,,,6,3,71
KW_Experiment5A,40,1,"<?xml version=""1.0""?>\n<Clock xmlns:dt=""urn:schemas-microsoft-com:datatypes""><Description dt:dt=""string"">E-Prime Primary Realtime Clock</Description><StartTime><Timestamp dt:dt=""int"">0</Timestamp><DateUtc dt:dt=""string"">2018-10-24T17:16:56Z</DateUtc></StartTime><FrequencyChanges><FrequencyChange><Frequency dt:dt=""r8"">3215292</Frequency><Timestamp dt:dt=""r8"">1300472781907</Timestamp><Current dt:dt=""r8"">0</Current><DateUtc dt:dt=""string"">2018-10-24T17:16:56Z</DateUtc></FrequencyChange></FrequencyChanges></Clock>\n",KW_Experiment5A-40-1,59.946,1.0.0.105,1,-901694713,Professional,2.0.10.353,2.0.10.353,10/24/2018,10/24/2018 17:16,13:16:56,2.0.10.248,3,2,1,3,,,,,,,,TrainingProc,BlockList,24,1,Distractor1.bmp,1,0,,0,1,232537,601,,0,0,blue,600,3,600,,vertical,blue,Distractor1.bmp,red,Target1.bmp,lime,Distractor1.bmp,yellow,Distractor2.bmp,cyan,Distractor1.bmp,purple,Distractor1.bmp,,,,TrialProc,3,TrainingTrialList,1,1,-999999,1,233138,0,1,756,233894,Target1.bmp,red,1,,,,8,3,72
KW_Experiment5A,40,1,"<?xml version=""1.0""?>\n<Clock xmlns:dt=""urn:schemas-microsoft-com:datatypes""><Description dt:dt=""string"">E-Prime Primary Realtime Clock</Description><StartTime><Timestamp dt:dt=""int"">0</Timestamp><DateUtc dt:dt=""string"">2018-10-24T17:16:56Z</DateUtc></StartTime><FrequencyChanges><FrequencyChange><Frequency dt:dt=""r8"">3215292</Frequency><Timestamp dt:dt=""r8"">1300472781907</Timestamp><Current dt:dt=""r8"">0</Current><DateUtc dt:dt=""string"">2018-10-24T17:16:56Z</DateUtc></FrequencyChange></FrequencyChanges></Clock>\n",KW_Experiment5A-40-1,59.946,1.0.0.105,1,-901694713,Professional,2.0.10.353,2.0.10.353,10/24/2018,10/24/2018 17:16,13:16:56,2.0.10.248,3,2,1,3,,,,,,,,TrainingProc,BlockList,25,2,Distractor2.bmp,2,0,,0,1,234906,400,,0,0,red,400,1,400,1,horizontal,red,Distractor2.bmp,cyan,Distractor2.bmp,purple,Distractor1.bmp,blue,Distractor2.bmp,lime,Target2.bmp,yellow,Distractor2.bmp,,,,TrialProc,,TrainingTrialList,1,2,-999999,0,235306,0,2,643,235949,Target2.bmp,lime,2,,,,5,4,73
KW_Experiment5A,40,1,"<?xml version=""1.0""?>\n<Clock xmlns:dt=""urn:schemas-microsoft-com:datatypes""><Description dt:dt=""string"">E-Prime Primary Realtime Clock</Description><StartTime><Timestamp dt:dt=""int"">0</Timestamp><DateUtc dt:dt=""string"">2018-10-24T17:16:56Z</DateUtc></StartTime><FrequencyChanges><FrequencyChange><Frequency dt:dt=""r8"">3215292</Frequency><Timestamp dt:dt=""r8"">1300472781907</Timestamp><Current dt:dt=""r8"">0</Current><DateUtc dt:dt=""string"">2018-10-24T17:16:56Z</DateUtc></FrequencyChange></FrequencyChanges></Clock>\n",KW_Experiment5A-40-1,59.946,1.0.0.105,1,-901694713,Professional,2.0.10.353,2.0.10.353,10/24/2018,10/24/2018 17:16,13:16:56,2.0.10.248,3,2,1,3,,,,,,,,TrainingProc,BlockList,26,2,Distractor2.bmp,2,0,,0,1,236975,600,,0,0,purple,600,3,600,5,horizontal,purple,Distractor2.bmp,red,Distractor1.bmp,cyan,Distractor1.bmp,blue,Distractor2.bmp,yellow,Distractor1.bmp,lime,Target2.bmp,,,,TrialProc,,TrainingTrialList,1,2,-999999,0,237575,0,2,686,238261,Target2.bmp,lime,2,,,,6,4,74
KW_Experiment5A,40,1,"<?xml version=""1.0""?>\n<Clock xmlns:dt=""urn:schemas-microsoft-com:datatypes""><Description dt:dt=""string"">E-Prime Primary Realtime Clock</Description><StartTime><Timestamp dt:dt=""int"">0</Timestamp><DateUtc dt:dt=""string"">2018-10-24T17:16:56Z</DateUtc></StartTime><FrequencyChanges><FrequencyChange><Frequency dt:dt=""r8"">3215292</Frequency><Timestamp dt:dt=""r8"">1300472781907</Timestamp><Current dt:dt=""r8"">0</Current><DateUtc dt:dt=""string"">2018-10-24T17:16:56Z</DateUtc></FrequencyChange></FrequencyChanges></Clock>\n",KW_Experiment5A-40-1,59.946,1.0.0.105,1,-901694713,Professional,2.0.10.353,2.0.10.353,10/24/2018,10/24/2018 17:16,13:16:56,2.0.10.248,3,2,1,3,,,,,,,,TrainingProc,BlockList,27,2,Distractor2.bmp,2,0,,0,1,239277,600,,0,0,red,600,3,600,1,horizontal,lime,Target2.bmp,red,Distractor2.bmp,purple,Distractor1.bmp,yellow,Distractor1.bmp,cyan,Distractor2.bmp,blue,Distractor2.bmp,,,,TrialProc,,TrainingTrialList,1,2,-999999,0,239877,0,2,696,240573,Target2.bmp,lime,2,,,,1,4,75
KW_Experiment5A,40,1,"<?xml version=""1.0""?>\n<Clock xmlns:dt=""urn:schemas-microsoft-com:datatypes""><Description dt:dt=""string"">E-Prime Primary Realtime Clock</Description><StartTime><Timestamp dt:dt=""int"">0</Timestamp><DateUtc dt:dt=""string"">2018-10-24T17:16:56Z</DateUtc></StartTime><FrequencyChanges><FrequencyChange><Frequency dt:dt=""r8"">3215292</Frequency><Timestamp dt:dt=""r8"">1300472781907</Timestamp><Current dt:dt=""r8"">0</Current><DateUtc dt:dt=""string"">2018-10-24T17:16:56Z</DateUtc></FrequencyChange></FrequencyChanges></Clock>\n",KW_Experiment5A-40-1,59.946,1.0.0.105,1,-901694713,Professional,2.0.10.353,2.0.10.353,10/24/2018,10/24/2018 17:16,13:16:56,2.0.10.248,3,2,1,3,,,,,,,,TrainingProc,BlockList,28,2,Distractor2.bmp,2,0,,1,0,241595,501,,0,0,purple,500,2,500,5,horizontal,purple,Distractor2.bmp,lime,Target2.bmp,red,Distractor2.bmp,yellow,Distractor2.bmp,cyan,Distractor1.bmp,blue,Distractor1.bmp,,,,TrialProc,,TrainingTrialList,1,2,-999999,1,242096,0,2,501,242597,Target2.bmp,lime,2,,,,2,4,76
KW_Experiment5A,40,1,"<?xml version=""1.0""?>\n<Clock xmlns:dt=""urn:schemas-microsoft-com:datatypes""><Description dt:dt=""string"">E-Prime Primary Realtime Clock</Description><StartTime><Timestamp dt:dt=""int"">0</Timestamp><DateUtc dt:dt=""string"">2018-10-24T17:16:56Z</DateUtc></StartTime><FrequencyChanges><FrequencyChange><Frequency dt:dt=""r8"">3215292</Frequency><Timestamp dt:dt=""r8"">1300472781907</Timestamp><Current dt:dt=""r8"">0</Current><DateUtc dt:dt=""string"">2018-10-24T17:16:56Z</DateUtc></FrequencyChange></FrequencyChanges></Clock>\n",KW_Experiment5A-40-1,59.946,1.0.0.105,1,-901694713,Professional,2.0.10.353,2.0.10.353,10/24/2018,10/24/2018 17:16,13:16:56,2.0.10.248,3,2,1,3,,,,,,,,TrainingProc,BlockList,29,1,Distractor2.bmp,2,0,,0,1,243614,400,,0,0,yellow,400,1,400,2,vertical,yellow,Distractor2.bmp,lime,Target1.bmp,purple,Distractor2.bmp,red,Distractor1.bmp,blue,Distractor2.bmp,cyan,Distractor1.bmp,,,,TrialProc,,TrainingTrialList,1,1,-999999,0,244014,0,1,519,244533,Target1.bmp,lime,1,,,,2,4,77
KW_Experiment5A,40,1,"<?xml version=""1.0""?>\n<Clock xmlns:dt=""urn:schemas-microsoft-com:datatypes""><Description dt:dt=""string"">E-Prime Primary Realtime Clock</Description><StartTime><Timestamp dt:dt=""int"">0</Timestamp><DateUtc dt:dt=""string"">2018-10-24T17:16:56Z</DateUtc></StartTime><FrequencyChanges><FrequencyChange><Frequency dt:dt=""r8"">3215292</Frequency><Timestamp dt:dt=""r8"">1300472781907</Timestamp><Current dt:dt=""r8"">0</Current><DateUtc dt:dt=""string"">2018-10-24T17:16:56Z</DateUtc></FrequencyChange></FrequencyChanges></Clock>\n",KW_Experiment5A-40-1,59.946,1.0.0.105,1,-901694713,Professional,2.0.10.353,2.0.10.353,10/24/2018,10/24/2018 17:16,13:16:56,2.0.10.248,3,2,1,3,,,,,,,,TrainingProc,BlockList,30,1,Distractor1.bmp,1,0,,0,1,245549,501,,0,0,blue,500,2,500,3,vertical,blue,Distractor1.bmp,red,Distractor2.bmp,yellow,Distractor2.bmp,cyan,Distractor2.bmp,purple,Distractor2.bmp,lime,Target1.bmp,,,,TrialProc,,TrainingTrialList,1,1,-999999,1,246050,0,1,555,246605,Target1.bmp,lime,1,,,,6,4,78
KW_Experiment5A,40,1,"<?xml version=""1.0""?>\n<Clock xmlns:dt=""urn:schemas-microsoft-com:datatypes""><Description dt:dt=""string"">E-Prime Primary Realtime Clock</Description><StartTime><Timestamp dt:dt=""int"">0</Timestamp><DateUtc dt:dt=""string"">2018-10-24T17:16:56Z</DateUtc></StartTime><FrequencyChanges><FrequencyChange><Frequency dt:dt=""r8"">3215292</Frequency><Timestamp dt:dt=""r8"">1300472781907</Timestamp><Current dt:dt=""r8"">0</Current><DateUtc dt:dt=""string"">2018-10-24T17:16:56Z</DateUtc></FrequencyChange></FrequencyChanges></Clock>\n",KW_Experiment5A-40-1,59.946,1.0.0.105,1,-901694713,Professional,2.0.10.353,2.0.10.353,10/24/2018,10/24/2018 17:16,13:16:56,2.0.10.248,3,2,1,3,,,,,,,,TrainingProc,BlockList,31,2,Distractor2.bmp,2,0,,0,1,247618,400,,0,0,blue,400,1,400,3,horizontal,blue,Distractor2.bmp,lime,Target2.bmp,red,Distractor2.bmp,yellow,Distractor2.bmp,cyan,Distractor2.bmp,purple,Distractor1.bmp,,,,TrialProc,,TrainingTrialList,1,2,-999999,0,248018,0,2,467,248485,Target2.bmp,lime,2,,,,2,4,79
KW_Experiment5A,40,1,"<?xml version=""1.0""?>\n<Clock xmlns:dt=""urn:schemas-microsoft-com:datatypes""><Description dt:dt=""string"">E-Prime Primary Realtime Clock</Description><StartTime><Timestamp dt:dt=""int"">0</Timestamp><DateUtc dt:dt=""string"">2018-10-24T17:16:56Z</DateUtc></StartTime><FrequencyChanges><FrequencyChange><Frequency dt:dt=""r8"">3215292</Frequency><Timestamp dt:dt=""r8"">1300472781907</Timestamp><Current dt:dt=""r8"">0</Current><DateUtc dt:dt=""string"">2018-10-24T17:16:56Z</DateUtc></FrequencyChange></FrequencyChanges></Clock>\n",KW_Experiment5A-40-1,59.946,1.0.0.105,1,-901694713,Professional,2.0.10.353,2.0.10.353,10/24/2018,10/24/2018 17:16,13:16:56,2.0.10.248,3,2,1,3,,,,,,,,TrainingProc,BlockList,32,1,Distractor1.bmp,1,0,,0,1,249503,600,,0,0,lime,600,3,600,,vertical,lime,Distractor1.bmp,cyan,Distractor1.bmp,red,Target1.bmp,yellow,Distractor1.bmp,purple,Distractor1.bmp,blue,Distractor1.bmp,,,,TrialProc,6,TrainingTrialList,1,1,-999999,0,250103,0,1,1166,251269,Target1.bmp,red,1,,,,9,4,80
KW_Experiment5A,40,1,"<?xml version=""1.0""?>\n<Clock xmlns:dt=""urn:schemas-microsoft-com:datatypes""><Description dt:dt=""string"">E-Prime Primary Realtime Clock</Description><StartTime><Timestamp dt:dt=""int"">0</Timestamp><DateUtc dt:dt=""string"">2018-10-24T17:16:56Z</DateUtc></StartTime><FrequencyChanges><FrequencyChange><Frequency dt:dt=""r8"">3215292</Frequency><Timestamp dt:dt=""r8"">1300472781907</Timestamp><Current dt:dt=""r8"">0</Current><DateUtc dt:dt=""string"">2018-10-24T17:16:56Z</DateUtc></FrequencyChange></FrequencyChanges></Clock>\n",KW_Experiment5A-40-1,59.946,1.0.0.105,1,-901694713,Professional,2.0.10.353,2.0.10.353,10/24/2018,10/24/2018 17:16,13:16:56,2.0.10.248,3,2,1,3,,,,,,,,TrainingProc,BlockList,33,1,Distractor1.bmp,1,0,,0,1,252289,600,,0,0,purple,600,3,600,5,vertical,lime,Target1.bmp,purple,Distractor1.bmp,cyan,Distractor2.bmp,blue,Distractor2.bmp,yellow,Distractor2.bmp,red,Distractor2.bmp,,,,TrialProc,,TrainingTrialList,1,1,-999999,0,252889,0,1,500,253389,Target1.bmp,lime,1,,,,1,4,81
KW_Experiment5A,40,1,"<?xml version=""1.0""?>\n<Clock xmlns:dt=""urn:schemas-microsoft-com:datatypes""><Description dt:dt=""string"">E-Prime Primary Realtime Clock</Description><StartTime><Timestamp dt:dt=""int"">0</Timestamp><DateUtc dt:dt=""string"">2018-10-24T17:16:56Z</DateUtc></StartTime><FrequencyChanges><FrequencyChange><Frequency dt:dt=""r8"">3215292</Frequency><Timestamp dt:dt=""r8"">1300472781907</Timestamp><Current dt:dt=""r8"">0</Current><DateUtc dt:dt=""string"">2018-10-24T17:16:56Z</DateUtc></FrequencyChange></FrequencyChanges></Clock>\n",KW_Experiment5A-40-1,59.946,1.0.0.105,1,-901694713,Professional,2.0.10.353,2.0.10.353,10/24/2018,10/24/2018 17:16,13:16:56,2.0.10.248,3,2,1,3,,,,,,,,TrainingProc,BlockList,34,1,Distractor1.bmp,1,0,,0,1,254407,401,,0,0,purple,400,1,400,5,vertical,purple,Distractor1.bmp,red,Distractor1.bmp,yellow,Distractor2.bmp,blue,Distractor2.bmp,lime,Target1.bmp,cyan,Distractor1.bmp,,,,TrialProc,,TrainingTrialList,1,1,-999999,1,254808,0,1,565,255373,Target1.bmp,lime,1,,,,5,4,82
KW_Experiment5A,40,1,"<?xml version=""1.0""?>\n<Clock xmlns:dt=""urn:schemas-microsoft-com:datatypes""><Description dt:dt=""string"">E-Prime Primary Realtime Clock</Description><StartTime><Timestamp dt:dt=""int"">0</Timestamp><DateUtc dt:dt=""string"">2018-10-24T17:16:56Z</DateUtc></StartTime><FrequencyChanges><FrequencyChange><Frequency dt:dt=""r8"">3215292</Frequency><Timestamp dt:dt=""r8"">1300472781907</Timestamp><Current dt:dt=""r8"">0</Current><DateUtc dt:dt=""string"">2018-10-24T17:16:56Z</DateUtc></FrequencyChange></FrequencyChanges></Clock>\n",KW_Experiment5A-40-1,59.946,1.0.0.105,1,-901694713,Professional,2.0.10.353,2.0.10.353,10/24/2018,10/24/2018 17:16,13:16:56,2.0.10.248,3,2,1,3,,,,,,,,TrainingProc,BlockList,35,2,Distractor2.bmp,2,0,,0,1,256392,401,,0,0,purple,400,1,400,,horizontal,purple,Distractor2.bmp,cyan,Distractor1.bmp,yellow,Distractor2.bmp,lime,Distractor1.bmp,blue,Distractor1.bmp,red,Target2.bmp,,,,TrialProc,5,TrainingTrialList,1,2,-999999,1,256793,0,2,876,257669,Target2.bmp,red,2,,,,12,4,83
KW_Experiment5A,40,1,"<?xml version=""1.0""?>\n<Clock xmlns:dt=""urn:schemas-microsoft-com:datatypes""><Description dt:dt=""string"">E-Prime Primary Realtime Clock</Description><StartTime><Timestamp dt:dt=""int"">0</Timestamp><DateUtc dt:dt=""string"">2018-10-24T17:16:56Z</DateUtc></StartTime><FrequencyChanges><FrequencyChange><Frequency dt:dt=""r8"">3215292</Frequency><Timestamp dt:dt=""r8"">1300472781907</Timestamp><Current dt:dt=""r8"">0</Current><DateUtc dt:dt=""string"">2018-10-24T17:16:56Z</DateUtc></FrequencyChange></FrequencyChanges></Clock>\n",KW_Experiment5A-40-1,59.946,1.0.0.105,1,-901694713,Professional,2.0.10.353,2.0.10.353,10/24/2018,10/24/2018 17:16,13:16:56,2.0.10.248,3,2,1,3,,,,,,,,TrainingProc,BlockList,36,1,Distractor2.bmp,2,0,,0,1,258694,501,,0,0,cyan,500,2,500,4,vertical,cyan,Distractor2.bmp,blue,Distractor2.bmp,lime,Target1.bmp,purple,Distractor2.bmp,yellow,Distractor1.bmp,red,Distractor1.bmp,,,,TrialProc,,TrainingTrialList,1,1,-999999,1,259195,0,1,1170,260365,Target1.bmp,lime,1,,,,3,4,84
KW_Experiment5A,40,1,"<?xml version=""1.0""?>\n<Clock xmlns:dt=""urn:schemas-microsoft-com:datatypes""><Description dt:dt=""string"">E-Prime Primary Realtime Clock</Description><StartTime><Timestamp dt:dt=""int"">0</Timestamp><DateUtc dt:dt=""string"">2018-10-24T17:16:56Z</DateUtc></StartTime><FrequencyChanges><FrequencyChange><Frequency dt:dt=""r8"">3215292</Frequency><Timestamp dt:dt=""r8"">1300472781907</Timestamp><Current dt:dt=""r8"">0</Current><DateUtc dt:dt=""string"">2018-10-24T17:16:56Z</DateUtc></FrequencyChange></FrequencyChanges></Clock>\n",KW_Experiment5A-40-1,59.946,1.0.0.105,1,-901694713,Professional,2.0.10.353,2.0.10.353,10/24/2018,10/24/2018 17:16,13:16:56,2.0.10.248,3,2,1,3,,,,,,,,TrainingProc,BlockList,37,2,Distractor1.bmp,1,0,,0,1,261380,501,,0,0,cyan,500,2,500,4,horizontal,cyan,Distractor2.bmp,red,Distractor2.bmp,lime,Target2.bmp,blue,Distractor1.bmp,yellow,Distractor1.bmp,purple,Distractor2.bmp,,,,TrialProc,,TrainingTrialList,1,2,-999999,1,261881,0,2,572,262453,Target2.bmp,lime,2,,,,3,4,85
KW_Experiment5A,40,1,"<?xml version=""1.0""?>\n<Clock xmlns:dt=""urn:schemas-microsoft-com:datatypes""><Description dt:dt=""string"">E-Prime Primary Realtime Clock</Description><StartTime><Timestamp dt:dt=""int"">0</Timestamp><DateUtc dt:dt=""string"">2018-10-24T17:16:56Z</DateUtc></StartTime><FrequencyChanges><FrequencyChange><Frequency dt:dt=""r8"">3215292</Frequency><Timestamp dt:dt=""r8"">1300472781907</Timestamp><Current dt:dt=""r8"">0</Current><DateUtc dt:dt=""string"">2018-10-24T17:16:56Z</DateUtc></FrequencyChange></FrequencyChanges></Clock>\n",KW_Experiment5A-40-1,59.946,1.0.0.105,1,-901694713,Professional,2.0.10.353,2.0.10.353,10/24/2018,10/24/2018 17:16,13:16:56,2.0.10.248,3,2,1,3,,,,,,,,TrainingProc,BlockList,38,2,Distractor2.bmp,2,0,,0,1,263465,401,,0,0,blue,400,1,400,,horizontal,blue,Distractor2.bmp,yellow,Distractor2.bmp,cyan,Distractor2.bmp,red,Target2.bmp,purple,Distractor2.bmp,lime,Distractor2.bmp,,,,TrialProc,3,TrainingTrialList,1,2,-999999,1,263866,0,2,675,264541,Target2.bmp,red,2,,,,10,4,86
KW_Experiment5A,40,1,"<?xml version=""1.0""?>\n<Clock xmlns:dt=""urn:schemas-microsoft-com:datatypes""><Description dt:dt=""string"">E-Prime Primary Realtime Clock</Description><StartTime><Timestamp dt:dt=""int"">0</Timestamp><DateUtc dt:dt=""string"">2018-10-24T17:16:56Z</DateUtc></StartTime><FrequencyChanges><FrequencyChange><Frequency dt:dt=""r8"">3215292</Frequency><Timestamp dt:dt=""r8"">1300472781907</Timestamp><Current dt:dt=""r8"">0</Current><DateUtc dt:dt=""string"">2018-10-24T17:16:56Z</DateUtc></FrequencyChange></FrequencyChanges></Clock>\n",KW_Experiment5A-40-1,59.946,1.0.0.105,1,-901694713,Professional,2.0.10.353,2.0.10.353,10/24/2018,10/24/2018 17:16,13:16:56,2.0.10.248,3,2,1,3,,,,,,,,TrainingProc,BlockList,39,2,Distractor2.bmp,2,0,,0,1,265551,400,,0,0,yellow,400,1,400,2,horizontal,yellow,Distractor2.bmp,red,Distractor1.bmp,lime,Target2.bmp,cyan,Distractor2.bmp,purple,Distractor1.bmp,blue,Distractor1.bmp,,,,TrialProc,,TrainingTrialList,1,2,-999999,0,265951,0,2,566,266517,Target2.bmp,lime,2,,,,3,4,87
KW_Experiment5A,40,1,"<?xml version=""1.0""?>\n<Clock xmlns:dt=""urn:schemas-microsoft-com:datatypes""><Description dt:dt=""string"">E-Prime Primary Realtime Clock</Description><StartTime><Timestamp dt:dt=""int"">0</Timestamp><DateUtc dt:dt=""string"">2018-10-24T17:16:56Z</DateUtc></StartTime><FrequencyChanges><FrequencyChange><Frequency dt:dt=""r8"">3215292</Frequency><Timestamp dt:dt=""r8"">1300472781907</Timestamp><Current dt:dt=""r8"">0</Current><DateUtc dt:dt=""string"">2018-10-24T17:16:56Z</DateUtc></FrequencyChange></FrequencyChanges></Clock>\n",KW_Experiment5A-40-1,59.946,1.0.0.105,1,-901694713,Professional,2.0.10.353,2.0.10.353,10/24/2018,10/24/2018 17:16,13:16:56,2.0.10.248,3,2,1,3,,,,,,,,TrainingProc,BlockList,40,1,Distractor2.bmp,2,0,,0,1,267536,400,,0,0,yellow,400,1,400,,vertical,red,Target1.bmp,blue,Distractor2.bmp,purple,Distractor2.bmp,lime,Distractor2.bmp,cyan,Distractor2.bmp,yellow,Distractor2.bmp,,,,TrialProc,2,TrainingTrialList,1,1,-999999,0,267936,0,1,461,268397,Target1.bmp,red,1,,,,7,4,88
KW_Experiment5A,40,1,"<?xml version=""1.0""?>\n<Clock xmlns:dt=""urn:schemas-microsoft-com:datatypes""><Description dt:dt=""string"">E-Prime Primary Realtime Clock</Description><StartTime><Timestamp dt:dt=""int"">0</Timestamp><DateUtc dt:dt=""string"">2018-10-24T17:16:56Z</DateUtc></StartTime><FrequencyChanges><FrequencyChange><Frequency dt:dt=""r8"">3215292</Frequency><Timestamp dt:dt=""r8"">1300472781907</Timestamp><Current dt:dt=""r8"">0</Current><DateUtc dt:dt=""string"">2018-10-24T17:16:56Z</DateUtc></FrequencyChange></FrequencyChanges></Clock>\n",KW_Experiment5A-40-1,59.946,1.0.0.105,1,-901694713,Professional,2.0.10.353,2.0.10.353,10/24/2018,10/24/2018 17:16,13:16:56,2.0.10.248,3,2,1,3,,,,,,,,TrainingProc,BlockList,41,2,Distractor2.bmp,2,0,,0,1,269421,400,,0,0,cyan,400,1,400,4,horizontal,cyan,Distractor2.bmp,purple,Distractor1.bmp,blue,Distractor2.bmp,lime,Target2.bmp,red,Distractor2.bmp,yellow,Distractor2.bmp,,,,TrialProc,,TrainingTrialList,1,2,-999999,0,269821,0,2,680,270501,Target2.bmp,lime,2,,,,4,4,89
KW_Experiment5A,40,1,"<?xml version=""1.0""?>\n<Clock xmlns:dt=""urn:schemas-microsoft-com:datatypes""><Description dt:dt=""string"">E-Prime Primary Realtime Clock</Description><StartTime><Timestamp dt:dt=""int"">0</Timestamp><DateUtc dt:dt=""string"">2018-10-24T17:16:56Z</DateUtc></StartTime><FrequencyChanges><FrequencyChange><Frequency dt:dt=""r8"">3215292</Frequency><Timestamp dt:dt=""r8"">1300472781907</Timestamp><Current dt:dt=""r8"">0</Current><DateUtc dt:dt=""string"">2018-10-24T17:16:56Z</DateUtc></FrequencyChange></FrequencyChanges></Clock>\n",KW_Experiment5A-40-1,59.946,1.0.0.105,1,-901694713,Professional,2.0.10.353,2.0.10.353,10/24/2018,10/24/2018 17:16,13:16:56,2.0.10.248,3,2,1,3,,,,,,,,TrainingProc,BlockList,42,2,Distractor2.bmp,2,0,,0,1,271523,500,,0,0,cyan,500,2,500,4,horizontal,cyan,Distractor1.bmp,red,Distractor1.bmp,purple,Distractor2.bmp,lime,Target2.bmp,yellow,Distractor2.bmp,blue,Distractor2.bmp,,,,TrialProc,,TrainingTrialList,1,2,-999999,0,272023,0,2,670,272693,Target2.bmp,lime,2,,,,4,4,90
