ExperimentName,Subject,Session,Clock.Information,DataFile.Basename,Display.RefreshRate,ExperimentVersion,Group,RandomSeed,RuntimeCapabilities,RuntimeVersion,RuntimeVersionExpected,SessionDate,SessionStartDateTimeUtc,SessionTime,StudioVersion,Block,BlockList,BlockList.Cycle,BlockList.Sample,PostTestQ1.RESP,PostTestQ1CJ.RESP,PostTestQ2.RESP,PostTestQ2CJ.RESP,PostTestQ3.RESP,PostTestQ3CJ.RESP,PostTestSlide.RESP,Procedure[Block],Running[Block],Trial,CorrectResponse,Distractor,DistractorList,Fixation.ACC,Fixation.CRESP,Fixation.DurationError,Fixation.OnsetDelay,Fixation.OnsetTime,Fixation.OnsetToOnsetTime,Fixation.RESP,Fixation.RT,Fixation.RTTime,ItemColor,Jitter,JitterList,JitterTime,Lime0List,Orientation,Pos1Color,Pos1Item,Pos2Color,Pos2Item,Pos3Color,Pos3Item,Pos4Color,Pos4Item,Pos5Color,Pos5Item,Pos6Color,Pos6Item,PracticeTrialList,PracticeTrialList.Cycle,PracticeTrialList.Sample,Procedure[Trial],Red0List,Running[Trial],Stimulus.ACC,Stimulus.CRESP,Stimulus.DurationError,Stimulus.OnsetDelay,Stimulus.OnsetTime,Stimulus.OnsetToOnsetTime,Stimulus.RESP,Stimulus.RT,Stimulus.RTTime,Target,TargetColor,TargetList,TestTrialList,TestTrialList.Cycle,TestTrialList.Sample,TrainingTrialList,TrainingTrialList.Cycle,TrainingTrialList.Sample
KW_Experiment5A,34,1,"<?xml version=""1.0""?>\n<Clock xmlns:dt=""urn:schemas-microsoft-com:datatypes""><Description dt:dt=""string"">E-Prime Primary Realtime Clock</Description><StartTime><Timestamp dt:dt=""int"">0</Timestamp><DateUtc dt:dt=""string"">2018-10-18T20:20:32Z</DateUtc></StartTime><FrequencyChanges><FrequencyChange><Frequency dt:dt=""r8"">3215244</Frequency><Timestamp dt:dt=""r8"">7447884124528</Timestamp><Current dt:dt=""r8"">0</Current><DateUtc dt:dt=""string"">2018-10-18T20:20:32Z</DateUtc></FrequencyChange></FrequencyChanges></Clock>\n",KW_Experiment5A-34-1,59.944,1.0.0.105,1,411456035,Professional,2.0.10.353,2.0.10.353,10/18/2018,10/18/2018 20:20,16:20:32,2.0.10.248,1,1,1,1,,,,,,,,PracticeProc,BlockList,1,2,Distractor1.bmp,1,0,,0,47,346547,400,,0,0,red,400,1,400,1,horizontal,purple,Distractor2.bmp,blue,Distractor1.bmp,yellow,Distractor2.bmp,red,Distractor2.bmp,lime,Target2.bmp,cyan,Distractor1.bmp,5,1,1,TrialProc,,PracticeTrialList,1,2,-999999,0,346947,0,2,6569,353516,Target2.bmp,lime,2,,,,,,
KW_Experiment5A,34,1,"<?xml version=""1.0""?>\n<Clock xmlns:dt=""urn:schemas-microsoft-com:datatypes""><Description dt:dt=""string"">E-Prime Primary Realtime Clock</Description><StartTime><Timestamp dt:dt=""int"">0</Timestamp><DateUtc dt:dt=""string"">2018-10-18T20:20:32Z</DateUtc></StartTime><FrequencyChanges><FrequencyChange><Frequency dt:dt=""r8"">3215244</Frequency><Timestamp dt:dt=""r8"">7447884124528</Timestamp><Current dt:dt=""r8"">0</Current><DateUtc dt:dt=""string"">2018-10-18T20:20:32Z</DateUtc></FrequencyChange></FrequencyChanges></Clock>\n",KW_Experiment5A-34-1,59.944,1.0.0.105,1,411456035,Professional,2.0.10.353,2.0.10.353,10/18/2018,10/18/2018 20:20,16:20:32,2.0.10.248,1,1,1,1,,,,,,,,PracticeProc,BlockList,2,2,Distractor1.bmp,1,0,,0,1,354538,500,,0,0,purple,500,2,500,5,horizontal,lime,Target2.bmp,cyan,Distractor1.bmp,blue,Distractor1.bmp,yellow,Distractor2.bmp,red,Distractor1.bmp,purple,Distractor2.bmp,1,1,2,TrialProc,,PracticeTrialList,1,2,-999999,0,355038,0,2,494,355532,Target2.bmp,lime,2,,,,,,
KW_Experiment5A,34,1,"<?xml version=""1.0""?>\n<Clock xmlns:dt=""urn:schemas-microsoft-com:datatypes""><Description dt:dt=""string"">E-Prime Primary Realtime Clock</Description><StartTime><Timestamp dt:dt=""int"">0</Timestamp><DateUtc dt:dt=""string"">2018-10-18T20:20:32Z</DateUtc></StartTime><FrequencyChanges><FrequencyChange><Frequency dt:dt=""r8"">3215244</Frequency><Timestamp dt:dt=""r8"">7447884124528</Timestamp><Current dt:dt=""r8"">0</Current><DateUtc dt:dt=""string"">2018-10-18T20:20:32Z</DateUtc></FrequencyChange></FrequencyChanges></Clock>\n",KW_Experiment5A-34-1,59.944,1.0.0.105,1,411456035,Professional,2.0.10.353,2.0.10.353,10/18/2018,10/18/2018 20:20,16:20:32,2.0.10.248,1,1,1,1,,,,,,,,PracticeProc,BlockList,3,1,Distractor1.bmp,1,0,,0,1,356556,601,,0,0,purple,600,3,600,,vertical,cyan,Distractor1.bmp,yellow,Distractor2.bmp,lime,Distractor1.bmp,blue,Distractor1.bmp,purple,Distractor2.bmp,red,Target1.bmp,6,1,3,TrialProc,5,PracticeTrialList,1,1,-999999,1,357157,0,1,1399,358556,Target1.bmp,red,1,,,,,,
KW_Experiment5A,34,1,"<?xml version=""1.0""?>\n<Clock xmlns:dt=""urn:schemas-microsoft-com:datatypes""><Description dt:dt=""string"">E-Prime Primary Realtime Clock</Description><StartTime><Timestamp dt:dt=""int"">0</Timestamp><DateUtc dt:dt=""string"">2018-10-18T20:20:32Z</DateUtc></StartTime><FrequencyChanges><FrequencyChange><Frequency dt:dt=""r8"">3215244</Frequency><Timestamp dt:dt=""r8"">7447884124528</Timestamp><Current dt:dt=""r8"">0</Current><DateUtc dt:dt=""string"">2018-10-18T20:20:32Z</DateUtc></FrequencyChange></FrequencyChanges></Clock>\n",KW_Experiment5A-34-1,59.944,1.0.0.105,1,411456035,Professional,2.0.10.353,2.0.10.353,10/18/2018,10/18/2018 20:20,16:20:32,2.0.10.248,1,1,1,1,,,,,,,,PracticeProc,BlockList,4,1,Distractor1.bmp,1,0,,0,1,359576,400,,0,0,lime,400,1,400,,vertical,yellow,Distractor2.bmp,cyan,Distractor1.bmp,lime,Distractor2.bmp,red,Target1.bmp,purple,Distractor1.bmp,blue,Distractor1.bmp,4,1,4,TrialProc,6,PracticeTrialList,0,1,-999999,0,359976,0,2,324,360300,Target1.bmp,red,1,,,,,,
KW_Experiment5A,34,1,"<?xml version=""1.0""?>\n<Clock xmlns:dt=""urn:schemas-microsoft-com:datatypes""><Description dt:dt=""string"">E-Prime Primary Realtime Clock</Description><StartTime><Timestamp dt:dt=""int"">0</Timestamp><DateUtc dt:dt=""string"">2018-10-18T20:20:32Z</DateUtc></StartTime><FrequencyChanges><FrequencyChange><Frequency dt:dt=""r8"">3215244</Frequency><Timestamp dt:dt=""r8"">7447884124528</Timestamp><Current dt:dt=""r8"">0</Current><DateUtc dt:dt=""string"">2018-10-18T20:20:32Z</DateUtc></FrequencyChange></FrequencyChanges></Clock>\n",KW_Experiment5A-34-1,59.944,1.0.0.105,1,411456035,Professional,2.0.10.353,2.0.10.353,10/18/2018,10/18/2018 20:20,16:20:32,2.0.10.248,1,1,1,1,,,,,,,,PracticeProc,BlockList,5,1,Distractor2.bmp,2,0,,0,1,361311,600,,0,0,lime,600,3,600,,vertical,lime,Distractor1.bmp,red,Target1.bmp,cyan,Distractor2.bmp,blue,Distractor1.bmp,yellow,Distractor1.bmp,purple,Distractor2.bmp,2,1,5,TrialProc,6,PracticeTrialList,1,1,-999999,0,361911,0,1,477,362388,Target1.bmp,red,1,,,,,,
KW_Experiment5A,34,1,"<?xml version=""1.0""?>\n<Clock xmlns:dt=""urn:schemas-microsoft-com:datatypes""><Description dt:dt=""string"">E-Prime Primary Realtime Clock</Description><StartTime><Timestamp dt:dt=""int"">0</Timestamp><DateUtc dt:dt=""string"">2018-10-18T20:20:32Z</DateUtc></StartTime><FrequencyChanges><FrequencyChange><Frequency dt:dt=""r8"">3215244</Frequency><Timestamp dt:dt=""r8"">7447884124528</Timestamp><Current dt:dt=""r8"">0</Current><DateUtc dt:dt=""string"">2018-10-18T20:20:32Z</DateUtc></FrequencyChange></FrequencyChanges></Clock>\n",KW_Experiment5A-34-1,59.944,1.0.0.105,1,411456035,Professional,2.0.10.353,2.0.10.353,10/18/2018,10/18/2018 20:20,16:20:32,2.0.10.248,1,1,1,1,,,,,,,,PracticeProc,BlockList,6,2,Distractor1.bmp,1,0,,0,1,363413,400,,0,0,blue,400,1,400,3,horizontal,cyan,Distractor2.bmp,blue,Distractor1.bmp,lime,Target2.bmp,purple,Distractor1.bmp,red,Distractor2.bmp,yellow,Distractor1.bmp,3,1,6,TrialProc,,PracticeTrialList,0,2,-999999,0,363813,0,1,591,364404,Target2.bmp,lime,2,,,,,,
KW_Experiment5A,34,1,"<?xml version=""1.0""?>\n<Clock xmlns:dt=""urn:schemas-microsoft-com:datatypes""><Description dt:dt=""string"">E-Prime Primary Realtime Clock</Description><StartTime><Timestamp dt:dt=""int"">0</Timestamp><DateUtc dt:dt=""string"">2018-10-18T20:20:32Z</DateUtc></StartTime><FrequencyChanges><FrequencyChange><Frequency dt:dt=""r8"">3215244</Frequency><Timestamp dt:dt=""r8"">7447884124528</Timestamp><Current dt:dt=""r8"">0</Current><DateUtc dt:dt=""string"">2018-10-18T20:20:32Z</DateUtc></FrequencyChange></FrequencyChanges></Clock>\n",KW_Experiment5A-34-1,59.944,1.0.0.105,1,411456035,Professional,2.0.10.353,2.0.10.353,10/18/2018,10/18/2018 20:20,16:20:32,2.0.10.248,2,2,1,2,,,,,,,,TrainingProc,BlockList,1,1,Distractor2.bmp,2,0,,0,16,371604,600,,0,0,yellow,600,3,600,2,vertical,yellow,Distractor1.bmp,lime,Target1.bmp,purple,Distractor2.bmp,cyan,Distractor2.bmp,blue,Distractor2.bmp,red,Distractor2.bmp,,,,TrialProc,,TrainingTrialList,0,1,-999999,0,372204,0,2,1208,373412,Target1.bmp,lime,1,,,,2,1,1
KW_Experiment5A,34,1,"<?xml version=""1.0""?>\n<Clock xmlns:dt=""urn:schemas-microsoft-com:datatypes""><Description dt:dt=""string"">E-Prime Primary Realtime Clock</Description><StartTime><Timestamp dt:dt=""int"">0</Timestamp><DateUtc dt:dt=""string"">2018-10-18T20:20:32Z</DateUtc></StartTime><FrequencyChanges><FrequencyChange><Frequency dt:dt=""r8"">3215244</Frequency><Timestamp dt:dt=""r8"">7447884124528</Timestamp><Current dt:dt=""r8"">0</Current><DateUtc dt:dt=""string"">2018-10-18T20:20:32Z</DateUtc></FrequencyChange></FrequencyChanges></Clock>\n",KW_Experiment5A-34-1,59.944,1.0.0.105,1,411456035,Professional,2.0.10.353,2.0.10.353,10/18/2018,10/18/2018 20:20,16:20:32,2.0.10.248,2,2,1,2,,,,,,,,TrainingProc,BlockList,2,2,Distractor2.bmp,2,0,,0,1,374423,400,,0,0,blue,400,1,400,3,horizontal,blue,Distractor1.bmp,lime,Target2.bmp,purple,Distractor2.bmp,red,Distractor1.bmp,yellow,Distractor1.bmp,cyan,Distractor1.bmp,,,,TrialProc,,TrainingTrialList,0,2,-999999,0,374823,0,1,613,375436,Target2.bmp,lime,2,,,,2,1,2
KW_Experiment5A,34,1,"<?xml version=""1.0""?>\n<Clock xmlns:dt=""urn:schemas-microsoft-com:datatypes""><Description dt:dt=""string"">E-Prime Primary Realtime Clock</Description><StartTime><Timestamp dt:dt=""int"">0</Timestamp><DateUtc dt:dt=""string"">2018-10-18T20:20:32Z</DateUtc></StartTime><FrequencyChanges><FrequencyChange><Frequency dt:dt=""r8"">3215244</Frequency><Timestamp dt:dt=""r8"">7447884124528</Timestamp><Current dt:dt=""r8"">0</Current><DateUtc dt:dt=""string"">2018-10-18T20:20:32Z</DateUtc></FrequencyChange></FrequencyChanges></Clock>\n",KW_Experiment5A-34-1,59.944,1.0.0.105,1,411456035,Professional,2.0.10.353,2.0.10.353,10/18/2018,10/18/2018 20:20,16:20:32,2.0.10.248,2,2,1,2,,,,,,,,TrainingProc,BlockList,3,2,Distractor2.bmp,2,0,,0,1,376458,500,,0,0,purple,500,2,500,5,horizontal,purple,Distractor2.bmp,cyan,Distractor2.bmp,yellow,Distractor1.bmp,blue,Distractor2.bmp,red,Distractor1.bmp,lime,Target2.bmp,,,,TrialProc,,TrainingTrialList,0,2,-999999,0,376958,0,1,6645,383603,Target2.bmp,lime,2,,,,6,1,3
KW_Experiment5A,34,1,"<?xml version=""1.0""?>\n<Clock xmlns:dt=""urn:schemas-microsoft-com:datatypes""><Description dt:dt=""string"">E-Prime Primary Realtime Clock</Description><StartTime><Timestamp dt:dt=""int"">0</Timestamp><DateUtc dt:dt=""string"">2018-10-18T20:20:32Z</DateUtc></StartTime><FrequencyChanges><FrequencyChange><Frequency dt:dt=""r8"">3215244</Frequency><Timestamp dt:dt=""r8"">7447884124528</Timestamp><Current dt:dt=""r8"">0</Current><DateUtc dt:dt=""string"">2018-10-18T20:20:32Z</DateUtc></FrequencyChange></FrequencyChanges></Clock>\n",KW_Experiment5A-34-1,59.944,1.0.0.105,1,411456035,Professional,2.0.10.353,2.0.10.353,10/18/2018,10/18/2018 20:20,16:20:32,2.0.10.248,2,2,1,2,,,,,,,,TrainingProc,BlockList,4,2,Distractor2.bmp,2,0,,0,1,384616,400,,0,0,purple,400,1,400,5,horizontal,purple,Distractor1.bmp,blue,Distractor2.bmp,yellow,Distractor1.bmp,lime,Target2.bmp,red,Distractor2.bmp,cyan,Distractor1.bmp,,,,TrialProc,,TrainingTrialList,1,2,-999999,0,385016,0,2,7467,392483,Target2.bmp,lime,2,,,,4,1,4
KW_Experiment5A,34,1,"<?xml version=""1.0""?>\n<Clock xmlns:dt=""urn:schemas-microsoft-com:datatypes""><Description dt:dt=""string"">E-Prime Primary Realtime Clock</Description><StartTime><Timestamp dt:dt=""int"">0</Timestamp><DateUtc dt:dt=""string"">2018-10-18T20:20:32Z</DateUtc></StartTime><FrequencyChanges><FrequencyChange><Frequency dt:dt=""r8"">3215244</Frequency><Timestamp dt:dt=""r8"">7447884124528</Timestamp><Current dt:dt=""r8"">0</Current><DateUtc dt:dt=""string"">2018-10-18T20:20:32Z</DateUtc></FrequencyChange></FrequencyChanges></Clock>\n",KW_Experiment5A-34-1,59.944,1.0.0.105,1,411456035,Professional,2.0.10.353,2.0.10.353,10/18/2018,10/18/2018 20:20,16:20:32,2.0.10.248,2,2,1,2,,,,,,,,TrainingProc,BlockList,5,1,Distractor1.bmp,1,0,,0,1,393507,500,,0,0,blue,500,2,500,3,vertical,blue,Distractor2.bmp,cyan,Distractor2.bmp,purple,Distractor1.bmp,red,Distractor2.bmp,lime,Target1.bmp,yellow,Distractor1.bmp,,,,TrialProc,,TrainingTrialList,1,1,-999999,0,394007,0,1,908,394915,Target1.bmp,lime,1,,,,5,1,5
KW_Experiment5A,34,1,"<?xml version=""1.0""?>\n<Clock xmlns:dt=""urn:schemas-microsoft-com:datatypes""><Description dt:dt=""string"">E-Prime Primary Realtime Clock</Description><StartTime><Timestamp dt:dt=""int"">0</Timestamp><DateUtc dt:dt=""string"">2018-10-18T20:20:32Z</DateUtc></StartTime><FrequencyChanges><FrequencyChange><Frequency dt:dt=""r8"">3215244</Frequency><Timestamp dt:dt=""r8"">7447884124528</Timestamp><Current dt:dt=""r8"">0</Current><DateUtc dt:dt=""string"">2018-10-18T20:20:32Z</DateUtc></FrequencyChange></FrequencyChanges></Clock>\n",KW_Experiment5A-34-1,59.944,1.0.0.105,1,411456035,Professional,2.0.10.353,2.0.10.353,10/18/2018,10/18/2018 20:20,16:20:32,2.0.10.248,2,2,1,2,,,,,,,,TrainingProc,BlockList,6,1,Distractor2.bmp,2,0,,0,1,395926,600,,0,0,purple,600,3,600,,vertical,purple,Distractor1.bmp,cyan,Distractor2.bmp,red,Target1.bmp,lime,Distractor2.bmp,blue,Distractor1.bmp,yellow,Distractor2.bmp,,,,TrialProc,5,TrainingTrialList,0,1,-999999,0,396526,0,2,3493,400019,Target1.bmp,red,1,,,,9,1,6
KW_Experiment5A,34,1,"<?xml version=""1.0""?>\n<Clock xmlns:dt=""urn:schemas-microsoft-com:datatypes""><Description dt:dt=""string"">E-Prime Primary Realtime Clock</Description><StartTime><Timestamp dt:dt=""int"">0</Timestamp><DateUtc dt:dt=""string"">2018-10-18T20:20:32Z</DateUtc></StartTime><FrequencyChanges><FrequencyChange><Frequency dt:dt=""r8"">3215244</Frequency><Timestamp dt:dt=""r8"">7447884124528</Timestamp><Current dt:dt=""r8"">0</Current><DateUtc dt:dt=""string"">2018-10-18T20:20:32Z</DateUtc></FrequencyChange></FrequencyChanges></Clock>\n",KW_Experiment5A-34-1,59.944,1.0.0.105,1,411456035,Professional,2.0.10.353,2.0.10.353,10/18/2018,10/18/2018 20:20,16:20:32,2.0.10.248,2,2,1,2,,,,,,,,TrainingProc,BlockList,7,1,Distractor2.bmp,2,0,,0,1,401047,501,,0,0,lime,500,2,500,,vertical,lime,Distractor1.bmp,yellow,Distractor1.bmp,purple,Distractor1.bmp,blue,Distractor1.bmp,red,Target1.bmp,cyan,Distractor2.bmp,,,,TrialProc,6,TrainingTrialList,1,1,-999999,1,401548,0,1,551,402099,Target1.bmp,red,1,,,,11,1,7
KW_Experiment5A,34,1,"<?xml version=""1.0""?>\n<Clock xmlns:dt=""urn:schemas-microsoft-com:datatypes""><Description dt:dt=""string"">E-Prime Primary Realtime Clock</Description><StartTime><Timestamp dt:dt=""int"">0</Timestamp><DateUtc dt:dt=""string"">2018-10-18T20:20:32Z</DateUtc></StartTime><FrequencyChanges><FrequencyChange><Frequency dt:dt=""r8"">3215244</Frequency><Timestamp dt:dt=""r8"">7447884124528</Timestamp><Current dt:dt=""r8"">0</Current><DateUtc dt:dt=""string"">2018-10-18T20:20:32Z</DateUtc></FrequencyChange></FrequencyChanges></Clock>\n",KW_Experiment5A-34-1,59.944,1.0.0.105,1,411456035,Professional,2.0.10.353,2.0.10.353,10/18/2018,10/18/2018 20:20,16:20:32,2.0.10.248,2,2,1,2,,,,,,,,TrainingProc,BlockList,8,2,Distractor1.bmp,1,0,,0,1,403116,600,,0,0,yellow,600,3,600,2,horizontal,yellow,Distractor2.bmp,red,Distractor1.bmp,blue,Distractor1.bmp,purple,Distractor2.bmp,lime,Target2.bmp,cyan,Distractor1.bmp,,,,TrialProc,,TrainingTrialList,0,2,-999999,0,403716,0,1,719,404435,Target2.bmp,lime,2,,,,5,1,8
KW_Experiment5A,34,1,"<?xml version=""1.0""?>\n<Clock xmlns:dt=""urn:schemas-microsoft-com:datatypes""><Description dt:dt=""string"">E-Prime Primary Realtime Clock</Description><StartTime><Timestamp dt:dt=""int"">0</Timestamp><DateUtc dt:dt=""string"">2018-10-18T20:20:32Z</DateUtc></StartTime><FrequencyChanges><FrequencyChange><Frequency dt:dt=""r8"">3215244</Frequency><Timestamp dt:dt=""r8"">7447884124528</Timestamp><Current dt:dt=""r8"">0</Current><DateUtc dt:dt=""string"">2018-10-18T20:20:32Z</DateUtc></FrequencyChange></FrequencyChanges></Clock>\n",KW_Experiment5A-34-1,59.944,1.0.0.105,1,411456035,Professional,2.0.10.353,2.0.10.353,10/18/2018,10/18/2018 20:20,16:20:32,2.0.10.248,2,2,1,2,,,,,,,,TrainingProc,BlockList,9,2,Distractor2.bmp,2,0,,0,1,405451,501,,0,0,red,500,2,500,1,horizontal,lime,Target2.bmp,red,Distractor2.bmp,blue,Distractor1.bmp,yellow,Distractor2.bmp,cyan,Distractor2.bmp,purple,Distractor1.bmp,,,,TrialProc,,TrainingTrialList,1,2,-999999,1,405952,0,2,2427,408379,Target2.bmp,lime,2,,,,1,1,9
KW_Experiment5A,34,1,"<?xml version=""1.0""?>\n<Clock xmlns:dt=""urn:schemas-microsoft-com:datatypes""><Description dt:dt=""string"">E-Prime Primary Realtime Clock</Description><StartTime><Timestamp dt:dt=""int"">0</Timestamp><DateUtc dt:dt=""string"">2018-10-18T20:20:32Z</DateUtc></StartTime><FrequencyChanges><FrequencyChange><Frequency dt:dt=""r8"">3215244</Frequency><Timestamp dt:dt=""r8"">7447884124528</Timestamp><Current dt:dt=""r8"">0</Current><DateUtc dt:dt=""string"">2018-10-18T20:20:32Z</DateUtc></FrequencyChange></FrequencyChanges></Clock>\n",KW_Experiment5A-34-1,59.944,1.0.0.105,1,411456035,Professional,2.0.10.353,2.0.10.353,10/18/2018,10/18/2018 20:20,16:20:32,2.0.10.248,2,2,1,2,,,,,,,,TrainingProc,BlockList,10,1,Distractor1.bmp,1,0,,0,1,409405,601,,0,0,purple,600,3,600,5,vertical,purple,Distractor1.bmp,blue,Distractor2.bmp,yellow,Distractor1.bmp,red,Distractor1.bmp,lime,Target1.bmp,cyan,Distractor1.bmp,,,,TrialProc,,TrainingTrialList,1,1,-999999,1,410006,0,1,637,410643,Target1.bmp,lime,1,,,,5,1,10
KW_Experiment5A,34,1,"<?xml version=""1.0""?>\n<Clock xmlns:dt=""urn:schemas-microsoft-com:datatypes""><Description dt:dt=""string"">E-Prime Primary Realtime Clock</Description><StartTime><Timestamp dt:dt=""int"">0</Timestamp><DateUtc dt:dt=""string"">2018-10-18T20:20:32Z</DateUtc></StartTime><FrequencyChanges><FrequencyChange><Frequency dt:dt=""r8"">3215244</Frequency><Timestamp dt:dt=""r8"">7447884124528</Timestamp><Current dt:dt=""r8"">0</Current><DateUtc dt:dt=""string"">2018-10-18T20:20:32Z</DateUtc></FrequencyChange></FrequencyChanges></Clock>\n",KW_Experiment5A-34-1,59.944,1.0.0.105,1,411456035,Professional,2.0.10.353,2.0.10.353,10/18/2018,10/18/2018 20:20,16:20:32,2.0.10.248,2,2,1,2,,,,,,,,TrainingProc,BlockList,11,1,Distractor2.bmp,2,0,,0,1,411657,501,,0,0,yellow,500,2,500,,vertical,red,Target1.bmp,blue,Distractor2.bmp,lime,Distractor2.bmp,purple,Distractor2.bmp,cyan,Distractor1.bmp,yellow,Distractor1.bmp,,,,TrialProc,2,TrainingTrialList,0,1,-999999,1,412158,0,2,717,412875,Target1.bmp,red,1,,,,7,1,11
KW_Experiment5A,34,1,"<?xml version=""1.0""?>\n<Clock xmlns:dt=""urn:schemas-microsoft-com:datatypes""><Description dt:dt=""string"">E-Prime Primary Realtime Clock</Description><StartTime><Timestamp dt:dt=""int"">0</Timestamp><DateUtc dt:dt=""string"">2018-10-18T20:20:32Z</DateUtc></StartTime><FrequencyChanges><FrequencyChange><Frequency dt:dt=""r8"">3215244</Frequency><Timestamp dt:dt=""r8"">7447884124528</Timestamp><Current dt:dt=""r8"">0</Current><DateUtc dt:dt=""string"">2018-10-18T20:20:32Z</DateUtc></FrequencyChange></FrequencyChanges></Clock>\n",KW_Experiment5A-34-1,59.944,1.0.0.105,1,411456035,Professional,2.0.10.353,2.0.10.353,10/18/2018,10/18/2018 20:20,16:20:32,2.0.10.248,2,2,1,2,,,,,,,,TrainingProc,BlockList,12,1,Distractor2.bmp,2,0,,1,0,413892,601,,0,0,yellow,600,3,600,,vertical,yellow,Distractor2.bmp,lime,Distractor2.bmp,purple,Distractor1.bmp,red,Target1.bmp,blue,Distractor2.bmp,cyan,Distractor2.bmp,,,,TrialProc,2,TrainingTrialList,1,1,-999999,1,414493,0,1,854,415347,Target1.bmp,red,1,,,,10,1,12
KW_Experiment5A,34,1,"<?xml version=""1.0""?>\n<Clock xmlns:dt=""urn:schemas-microsoft-com:datatypes""><Description dt:dt=""string"">E-Prime Primary Realtime Clock</Description><StartTime><Timestamp dt:dt=""int"">0</Timestamp><DateUtc dt:dt=""string"">2018-10-18T20:20:32Z</DateUtc></StartTime><FrequencyChanges><FrequencyChange><Frequency dt:dt=""r8"">3215244</Frequency><Timestamp dt:dt=""r8"">7447884124528</Timestamp><Current dt:dt=""r8"">0</Current><DateUtc dt:dt=""string"">2018-10-18T20:20:32Z</DateUtc></FrequencyChange></FrequencyChanges></Clock>\n",KW_Experiment5A-34-1,59.944,1.0.0.105,1,411456035,Professional,2.0.10.353,2.0.10.353,10/18/2018,10/18/2018 20:20,16:20:32,2.0.10.248,2,2,1,2,,,,,,,,TrainingProc,BlockList,13,2,Distractor1.bmp,1,0,,0,0,416361,501,,0,0,purple,500,2,500,5,horizontal,purple,Distractor1.bmp,blue,Distractor1.bmp,lime,Target2.bmp,red,Distractor1.bmp,cyan,Distractor1.bmp,yellow,Distractor2.bmp,,,,TrialProc,,TrainingTrialList,0,2,-999999,1,416862,0,1,669,417531,Target2.bmp,lime,2,,,,3,1,13
KW_Experiment5A,34,1,"<?xml version=""1.0""?>\n<Clock xmlns:dt=""urn:schemas-microsoft-com:datatypes""><Description dt:dt=""string"">E-Prime Primary Realtime Clock</Description><StartTime><Timestamp dt:dt=""int"">0</Timestamp><DateUtc dt:dt=""string"">2018-10-18T20:20:32Z</DateUtc></StartTime><FrequencyChanges><FrequencyChange><Frequency dt:dt=""r8"">3215244</Frequency><Timestamp dt:dt=""r8"">7447884124528</Timestamp><Current dt:dt=""r8"">0</Current><DateUtc dt:dt=""string"">2018-10-18T20:20:32Z</DateUtc></FrequencyChange></FrequencyChanges></Clock>\n",KW_Experiment5A-34-1,59.944,1.0.0.105,1,411456035,Professional,2.0.10.353,2.0.10.353,10/18/2018,10/18/2018 20:20,16:20:32,2.0.10.248,2,2,1,2,,,,,,,,TrainingProc,BlockList,14,1,Distractor1.bmp,1,0,,0,1,418547,500,,0,0,blue,500,2,500,,vertical,blue,Distractor2.bmp,red,Target1.bmp,cyan,Distractor1.bmp,yellow,Distractor2.bmp,lime,Distractor2.bmp,purple,Distractor2.bmp,,,,TrialProc,3,TrainingTrialList,0,1,-999999,0,419047,0,2,644,419691,Target1.bmp,red,1,,,,8,1,14
KW_Experiment5A,34,1,"<?xml version=""1.0""?>\n<Clock xmlns:dt=""urn:schemas-microsoft-com:datatypes""><Description dt:dt=""string"">E-Prime Primary Realtime Clock</Description><StartTime><Timestamp dt:dt=""int"">0</Timestamp><DateUtc dt:dt=""string"">2018-10-18T20:20:32Z</DateUtc></StartTime><FrequencyChanges><FrequencyChange><Frequency dt:dt=""r8"">3215244</Frequency><Timestamp dt:dt=""r8"">7447884124528</Timestamp><Current dt:dt=""r8"">0</Current><DateUtc dt:dt=""string"">2018-10-18T20:20:32Z</DateUtc></FrequencyChange></FrequencyChanges></Clock>\n",KW_Experiment5A-34-1,59.944,1.0.0.105,1,411456035,Professional,2.0.10.353,2.0.10.353,10/18/2018,10/18/2018 20:20,16:20:32,2.0.10.248,2,2,1,2,,,,,,,,TrainingProc,BlockList,15,2,Distractor1.bmp,1,0,,1,1,420715,601,,0,0,lime,600,3,600,,horizontal,lime,Distractor1.bmp,purple,Distractor1.bmp,cyan,Distractor2.bmp,yellow,Distractor1.bmp,blue,Distractor2.bmp,red,Target2.bmp,,,,TrialProc,6,TrainingTrialList,0,2,-999999,1,421316,0,1,2767,424083,Target2.bmp,red,2,,,,12,1,15
KW_Experiment5A,34,1,"<?xml version=""1.0""?>\n<Clock xmlns:dt=""urn:schemas-microsoft-com:datatypes""><Description dt:dt=""string"">E-Prime Primary Realtime Clock</Description><StartTime><Timestamp dt:dt=""int"">0</Timestamp><DateUtc dt:dt=""string"">2018-10-18T20:20:32Z</DateUtc></StartTime><FrequencyChanges><FrequencyChange><Frequency dt:dt=""r8"">3215244</Frequency><Timestamp dt:dt=""r8"">7447884124528</Timestamp><Current dt:dt=""r8"">0</Current><DateUtc dt:dt=""string"">2018-10-18T20:20:32Z</DateUtc></FrequencyChange></FrequencyChanges></Clock>\n",KW_Experiment5A-34-1,59.944,1.0.0.105,1,411456035,Professional,2.0.10.353,2.0.10.353,10/18/2018,10/18/2018 20:20,16:20:32,2.0.10.248,2,2,1,2,,,,,,,,TrainingProc,BlockList,16,1,Distractor2.bmp,2,0,,0,1,425103,500,,0,0,red,500,2,500,1,vertical,lime,Target1.bmp,red,Distractor2.bmp,purple,Distractor2.bmp,blue,Distractor2.bmp,yellow,Distractor2.bmp,cyan,Distractor1.bmp,,,,TrialProc,,TrainingTrialList,1,1,-999999,0,425603,0,1,1456,427059,Target1.bmp,lime,1,,,,1,1,16
KW_Experiment5A,34,1,"<?xml version=""1.0""?>\n<Clock xmlns:dt=""urn:schemas-microsoft-com:datatypes""><Description dt:dt=""string"">E-Prime Primary Realtime Clock</Description><StartTime><Timestamp dt:dt=""int"">0</Timestamp><DateUtc dt:dt=""string"">2018-10-18T20:20:32Z</DateUtc></StartTime><FrequencyChanges><FrequencyChange><Frequency dt:dt=""r8"">3215244</Frequency><Timestamp dt:dt=""r8"">7447884124528</Timestamp><Current dt:dt=""r8"">0</Current><DateUtc dt:dt=""string"">2018-10-18T20:20:32Z</DateUtc></FrequencyChange></FrequencyChanges></Clock>\n",KW_Experiment5A-34-1,59.944,1.0.0.105,1,411456035,Professional,2.0.10.353,2.0.10.353,10/18/2018,10/18/2018 20:20,16:20:32,2.0.10.248,2,2,1,2,,,,,,,,TrainingProc,BlockList,17,1,Distractor2.bmp,2,0,,0,1,428072,601,,0,0,red,600,3,600,1,vertical,red,Distractor2.bmp,blue,Distractor2.bmp,lime,Target1.bmp,purple,Distractor2.bmp,cyan,Distractor2.bmp,yellow,Distractor1.bmp,,,,TrialProc,,TrainingTrialList,0,1,-999999,1,428673,0,2,802,429475,Target1.bmp,lime,1,,,,3,1,17
KW_Experiment5A,34,1,"<?xml version=""1.0""?>\n<Clock xmlns:dt=""urn:schemas-microsoft-com:datatypes""><Description dt:dt=""string"">E-Prime Primary Realtime Clock</Description><StartTime><Timestamp dt:dt=""int"">0</Timestamp><DateUtc dt:dt=""string"">2018-10-18T20:20:32Z</DateUtc></StartTime><FrequencyChanges><FrequencyChange><Frequency dt:dt=""r8"">3215244</Frequency><Timestamp dt:dt=""r8"">7447884124528</Timestamp><Current dt:dt=""r8"">0</Current><DateUtc dt:dt=""string"">2018-10-18T20:20:32Z</DateUtc></FrequencyChange></FrequencyChanges></Clock>\n",KW_Experiment5A-34-1,59.944,1.0.0.105,1,411456035,Professional,2.0.10.353,2.0.10.353,10/18/2018,10/18/2018 20:20,16:20:32,2.0.10.248,2,2,1,2,,,,,,,,TrainingProc,BlockList,18,1,Distractor2.bmp,2,0,,0,1,430491,501,,0,0,cyan,500,2,500,4,vertical,cyan,Distractor2.bmp,lime,Target1.bmp,red,Distractor2.bmp,blue,Distractor1.bmp,purple,Distractor2.bmp,yellow,Distractor1.bmp,,,,TrialProc,,TrainingTrialList,1,1,-999999,1,430992,0,1,379,431371,Target1.bmp,lime,1,,,,2,1,18
KW_Experiment5A,34,1,"<?xml version=""1.0""?>\n<Clock xmlns:dt=""urn:schemas-microsoft-com:datatypes""><Description dt:dt=""string"">E-Prime Primary Realtime Clock</Description><StartTime><Timestamp dt:dt=""int"">0</Timestamp><DateUtc dt:dt=""string"">2018-10-18T20:20:32Z</DateUtc></StartTime><FrequencyChanges><FrequencyChange><Frequency dt:dt=""r8"">3215244</Frequency><Timestamp dt:dt=""r8"">7447884124528</Timestamp><Current dt:dt=""r8"">0</Current><DateUtc dt:dt=""string"">2018-10-18T20:20:32Z</DateUtc></FrequencyChange></FrequencyChanges></Clock>\n",KW_Experiment5A-34-1,59.944,1.0.0.105,1,411456035,Professional,2.0.10.353,2.0.10.353,10/18/2018,10/18/2018 20:20,16:20:32,2.0.10.248,2,2,1,2,,,,,,,,TrainingProc,BlockList,19,1,Distractor1.bmp,1,0,,0,1,432393,400,,0,0,cyan,400,1,400,4,vertical,lime,Target1.bmp,cyan,Distractor1.bmp,red,Distractor1.bmp,yellow,Distractor2.bmp,purple,Distractor2.bmp,blue,Distractor2.bmp,,,,TrialProc,,TrainingTrialList,1,1,-999999,0,432793,0,1,722,433515,Target1.bmp,lime,1,,,,1,1,19
KW_Experiment5A,34,1,"<?xml version=""1.0""?>\n<Clock xmlns:dt=""urn:schemas-microsoft-com:datatypes""><Description dt:dt=""string"">E-Prime Primary Realtime Clock</Description><StartTime><Timestamp dt:dt=""int"">0</Timestamp><DateUtc dt:dt=""string"">2018-10-18T20:20:32Z</DateUtc></StartTime><FrequencyChanges><FrequencyChange><Frequency dt:dt=""r8"">3215244</Frequency><Timestamp dt:dt=""r8"">7447884124528</Timestamp><Current dt:dt=""r8"">0</Current><DateUtc dt:dt=""string"">2018-10-18T20:20:32Z</DateUtc></FrequencyChange></FrequencyChanges></Clock>\n",KW_Experiment5A-34-1,59.944,1.0.0.105,1,411456035,Professional,2.0.10.353,2.0.10.353,10/18/2018,10/18/2018 20:20,16:20:32,2.0.10.248,2,2,1,2,,,,,,,,TrainingProc,BlockList,20,1,Distractor2.bmp,2,0,,0,1,434528,401,,0,0,purple,400,1,400,5,vertical,purple,Distractor2.bmp,blue,Distractor1.bmp,red,Distractor1.bmp,cyan,Distractor1.bmp,yellow,Distractor1.bmp,lime,Target1.bmp,,,,TrialProc,,TrainingTrialList,1,1,-999999,1,434929,0,1,570,435499,Target1.bmp,lime,1,,,,6,1,20
KW_Experiment5A,34,1,"<?xml version=""1.0""?>\n<Clock xmlns:dt=""urn:schemas-microsoft-com:datatypes""><Description dt:dt=""string"">E-Prime Primary Realtime Clock</Description><StartTime><Timestamp dt:dt=""int"">0</Timestamp><DateUtc dt:dt=""string"">2018-10-18T20:20:32Z</DateUtc></StartTime><FrequencyChanges><FrequencyChange><Frequency dt:dt=""r8"">3215244</Frequency><Timestamp dt:dt=""r8"">7447884124528</Timestamp><Current dt:dt=""r8"">0</Current><DateUtc dt:dt=""string"">2018-10-18T20:20:32Z</DateUtc></FrequencyChange></FrequencyChanges></Clock>\n",KW_Experiment5A-34-1,59.944,1.0.0.105,1,411456035,Professional,2.0.10.353,2.0.10.353,10/18/2018,10/18/2018 20:20,16:20:32,2.0.10.248,2,2,1,2,,,,,,,,TrainingProc,BlockList,21,1,Distractor2.bmp,2,0,,0,1,436513,501,,0,0,purple,500,2,500,5,vertical,purple,Distractor1.bmp,red,Distractor2.bmp,cyan,Distractor2.bmp,lime,Target1.bmp,blue,Distractor2.bmp,yellow,Distractor2.bmp,,,,TrialProc,,TrainingTrialList,1,1,-999999,1,437014,0,1,629,437643,Target1.bmp,lime,1,,,,4,1,21
KW_Experiment5A,34,1,"<?xml version=""1.0""?>\n<Clock xmlns:dt=""urn:schemas-microsoft-com:datatypes""><Description dt:dt=""string"">E-Prime Primary Realtime Clock</Description><StartTime><Timestamp dt:dt=""int"">0</Timestamp><DateUtc dt:dt=""string"">2018-10-18T20:20:32Z</DateUtc></StartTime><FrequencyChanges><FrequencyChange><Frequency dt:dt=""r8"">3215244</Frequency><Timestamp dt:dt=""r8"">7447884124528</Timestamp><Current dt:dt=""r8"">0</Current><DateUtc dt:dt=""string"">2018-10-18T20:20:32Z</DateUtc></FrequencyChange></FrequencyChanges></Clock>\n",KW_Experiment5A-34-1,59.944,1.0.0.105,1,411456035,Professional,2.0.10.353,2.0.10.353,10/18/2018,10/18/2018 20:20,16:20:32,2.0.10.248,2,2,1,2,,,,,,,,TrainingProc,BlockList,22,2,Distractor1.bmp,1,0,,0,1,438665,501,,0,0,red,500,2,500,1,horizontal,red,Distractor1.bmp,purple,Distractor2.bmp,lime,Target2.bmp,blue,Distractor1.bmp,cyan,Distractor2.bmp,yellow,Distractor1.bmp,,,,TrialProc,,TrainingTrialList,0,2,-999999,1,439166,0,1,533,439699,Target2.bmp,lime,2,,,,3,1,22
KW_Experiment5A,34,1,"<?xml version=""1.0""?>\n<Clock xmlns:dt=""urn:schemas-microsoft-com:datatypes""><Description dt:dt=""string"">E-Prime Primary Realtime Clock</Description><StartTime><Timestamp dt:dt=""int"">0</Timestamp><DateUtc dt:dt=""string"">2018-10-18T20:20:32Z</DateUtc></StartTime><FrequencyChanges><FrequencyChange><Frequency dt:dt=""r8"">3215244</Frequency><Timestamp dt:dt=""r8"">7447884124528</Timestamp><Current dt:dt=""r8"">0</Current><DateUtc dt:dt=""string"">2018-10-18T20:20:32Z</DateUtc></FrequencyChange></FrequencyChanges></Clock>\n",KW_Experiment5A-34-1,59.944,1.0.0.105,1,411456035,Professional,2.0.10.353,2.0.10.353,10/18/2018,10/18/2018 20:20,16:20:32,2.0.10.248,2,2,1,2,,,,,,,,TrainingProc,BlockList,23,1,Distractor2.bmp,2,0,,0,1,440717,501,,0,0,red,500,2,500,1,vertical,red,Distractor1.bmp,cyan,Distractor1.bmp,yellow,Distractor1.bmp,lime,Target1.bmp,purple,Distractor2.bmp,blue,Distractor1.bmp,,,,TrialProc,,TrainingTrialList,1,1,-999999,1,441218,0,1,745,441963,Target1.bmp,lime,1,,,,4,1,23
KW_Experiment5A,34,1,"<?xml version=""1.0""?>\n<Clock xmlns:dt=""urn:schemas-microsoft-com:datatypes""><Description dt:dt=""string"">E-Prime Primary Realtime Clock</Description><StartTime><Timestamp dt:dt=""int"">0</Timestamp><DateUtc dt:dt=""string"">2018-10-18T20:20:32Z</DateUtc></StartTime><FrequencyChanges><FrequencyChange><Frequency dt:dt=""r8"">3215244</Frequency><Timestamp dt:dt=""r8"">7447884124528</Timestamp><Current dt:dt=""r8"">0</Current><DateUtc dt:dt=""string"">2018-10-18T20:20:32Z</DateUtc></FrequencyChange></FrequencyChanges></Clock>\n",KW_Experiment5A-34-1,59.944,1.0.0.105,1,411456035,Professional,2.0.10.353,2.0.10.353,10/18/2018,10/18/2018 20:20,16:20:32,2.0.10.248,2,2,1,2,,,,,,,,TrainingProc,BlockList,24,1,Distractor2.bmp,2,0,,0,1,442986,601,,0,0,blue,600,3,600,3,vertical,blue,Distractor2.bmp,yellow,Distractor2.bmp,red,Distractor1.bmp,cyan,Distractor1.bmp,purple,Distractor1.bmp,lime,Target1.bmp,,,,TrialProc,,TrainingTrialList,1,1,-999999,1,443587,0,1,552,444139,Target1.bmp,lime,1,,,,6,1,24
KW_Experiment5A,34,1,"<?xml version=""1.0""?>\n<Clock xmlns:dt=""urn:schemas-microsoft-com:datatypes""><Description dt:dt=""string"">E-Prime Primary Realtime Clock</Description><StartTime><Timestamp dt:dt=""int"">0</Timestamp><DateUtc dt:dt=""string"">2018-10-18T20:20:32Z</DateUtc></StartTime><FrequencyChanges><FrequencyChange><Frequency dt:dt=""r8"">3215244</Frequency><Timestamp dt:dt=""r8"">7447884124528</Timestamp><Current dt:dt=""r8"">0</Current><DateUtc dt:dt=""string"">2018-10-18T20:20:32Z</DateUtc></FrequencyChange></FrequencyChanges></Clock>\n",KW_Experiment5A-34-1,59.944,1.0.0.105,1,411456035,Professional,2.0.10.353,2.0.10.353,10/18/2018,10/18/2018 20:20,16:20:32,2.0.10.248,2,2,1,2,,,,,,,,TrainingProc,BlockList,25,1,Distractor1.bmp,1,0,,0,1,445155,600,,0,0,blue,600,3,600,3,vertical,blue,Distractor1.bmp,cyan,Distractor1.bmp,yellow,Distractor2.bmp,purple,Distractor1.bmp,red,Distractor2.bmp,lime,Target1.bmp,,,,TrialProc,,TrainingTrialList,1,1,-999999,0,445755,0,1,456,446211,Target1.bmp,lime,1,,,,6,2,25
KW_Experiment5A,34,1,"<?xml version=""1.0""?>\n<Clock xmlns:dt=""urn:schemas-microsoft-com:datatypes""><Description dt:dt=""string"">E-Prime Primary Realtime Clock</Description><StartTime><Timestamp dt:dt=""int"">0</Timestamp><DateUtc dt:dt=""string"">2018-10-18T20:20:32Z</DateUtc></StartTime><FrequencyChanges><FrequencyChange><Frequency dt:dt=""r8"">3215244</Frequency><Timestamp dt:dt=""r8"">7447884124528</Timestamp><Current dt:dt=""r8"">0</Current><DateUtc dt:dt=""string"">2018-10-18T20:20:32Z</DateUtc></FrequencyChange></FrequencyChanges></Clock>\n",KW_Experiment5A-34-1,59.944,1.0.0.105,1,411456035,Professional,2.0.10.353,2.0.10.353,10/18/2018,10/18/2018 20:20,16:20:32,2.0.10.248,2,2,1,2,,,,,,,,TrainingProc,BlockList,26,1,Distractor1.bmp,1,0,,0,1,447223,401,,0,0,yellow,400,1,400,2,vertical,lime,Target1.bmp,yellow,Distractor1.bmp,purple,Distractor1.bmp,cyan,Distractor1.bmp,red,Distractor1.bmp,blue,Distractor2.bmp,,,,TrialProc,,TrainingTrialList,0,1,-999999,1,447624,0,2,699,448323,Target1.bmp,lime,1,,,,1,2,26
KW_Experiment5A,34,1,"<?xml version=""1.0""?>\n<Clock xmlns:dt=""urn:schemas-microsoft-com:datatypes""><Description dt:dt=""string"">E-Prime Primary Realtime Clock</Description><StartTime><Timestamp dt:dt=""int"">0</Timestamp><DateUtc dt:dt=""string"">2018-10-18T20:20:32Z</DateUtc></StartTime><FrequencyChanges><FrequencyChange><Frequency dt:dt=""r8"">3215244</Frequency><Timestamp dt:dt=""r8"">7447884124528</Timestamp><Current dt:dt=""r8"">0</Current><DateUtc dt:dt=""string"">2018-10-18T20:20:32Z</DateUtc></FrequencyChange></FrequencyChanges></Clock>\n",KW_Experiment5A-34-1,59.944,1.0.0.105,1,411456035,Professional,2.0.10.353,2.0.10.353,10/18/2018,10/18/2018 20:20,16:20:32,2.0.10.248,2,2,1,2,,,,,,,,TrainingProc,BlockList,27,2,Distractor1.bmp,1,0,,0,1,449342,600,,0,0,red,600,3,600,1,horizontal,red,Distractor2.bmp,cyan,Distractor1.bmp,lime,Target2.bmp,yellow,Distractor1.bmp,blue,Distractor2.bmp,purple,Distractor2.bmp,,,,TrialProc,,TrainingTrialList,1,2,-999999,0,449942,0,2,1021,450963,Target2.bmp,lime,2,,,,3,2,27
KW_Experiment5A,34,1,"<?xml version=""1.0""?>\n<Clock xmlns:dt=""urn:schemas-microsoft-com:datatypes""><Description dt:dt=""string"">E-Prime Primary Realtime Clock</Description><StartTime><Timestamp dt:dt=""int"">0</Timestamp><DateUtc dt:dt=""string"">2018-10-18T20:20:32Z</DateUtc></StartTime><FrequencyChanges><FrequencyChange><Frequency dt:dt=""r8"">3215244</Frequency><Timestamp dt:dt=""r8"">7447884124528</Timestamp><Current dt:dt=""r8"">0</Current><DateUtc dt:dt=""string"">2018-10-18T20:20:32Z</DateUtc></FrequencyChange></FrequencyChanges></Clock>\n",KW_Experiment5A-34-1,59.944,1.0.0.105,1,411456035,Professional,2.0.10.353,2.0.10.353,10/18/2018,10/18/2018 20:20,16:20:32,2.0.10.248,2,2,1,2,,,,,,,,TrainingProc,BlockList,28,2,Distractor2.bmp,2,0,,0,1,451978,500,,0,0,purple,500,2,500,5,horizontal,purple,Distractor1.bmp,blue,Distractor2.bmp,red,Distractor2.bmp,cyan,Distractor1.bmp,lime,Target2.bmp,yellow,Distractor2.bmp,,,,TrialProc,,TrainingTrialList,1,2,-999999,0,452478,0,2,701,453179,Target2.bmp,lime,2,,,,5,2,28
KW_Experiment5A,34,1,"<?xml version=""1.0""?>\n<Clock xmlns:dt=""urn:schemas-microsoft-com:datatypes""><Description dt:dt=""string"">E-Prime Primary Realtime Clock</Description><StartTime><Timestamp dt:dt=""int"">0</Timestamp><DateUtc dt:dt=""string"">2018-10-18T20:20:32Z</DateUtc></StartTime><FrequencyChanges><FrequencyChange><Frequency dt:dt=""r8"">3215244</Frequency><Timestamp dt:dt=""r8"">7447884124528</Timestamp><Current dt:dt=""r8"">0</Current><DateUtc dt:dt=""string"">2018-10-18T20:20:32Z</DateUtc></FrequencyChange></FrequencyChanges></Clock>\n",KW_Experiment5A-34-1,59.944,1.0.0.105,1,411456035,Professional,2.0.10.353,2.0.10.353,10/18/2018,10/18/2018 20:20,16:20:32,2.0.10.248,2,2,1,2,,,,,,,,TrainingProc,BlockList,29,1,Distractor1.bmp,1,0,,0,1,454196,501,,0,0,yellow,500,2,500,,vertical,yellow,Distractor1.bmp,lime,Distractor1.bmp,cyan,Distractor1.bmp,blue,Distractor1.bmp,purple,Distractor2.bmp,red,Target1.bmp,,,,TrialProc,2,TrainingTrialList,1,1,-999999,1,454697,0,1,1914,456611,Target1.bmp,red,1,,,,12,2,29
KW_Experiment5A,34,1,"<?xml version=""1.0""?>\n<Clock xmlns:dt=""urn:schemas-microsoft-com:datatypes""><Description dt:dt=""string"">E-Prime Primary Realtime Clock</Description><StartTime><Timestamp dt:dt=""int"">0</Timestamp><DateUtc dt:dt=""string"">2018-10-18T20:20:32Z</DateUtc></StartTime><FrequencyChanges><FrequencyChange><Frequency dt:dt=""r8"">3215244</Frequency><Timestamp dt:dt=""r8"">7447884124528</Timestamp><Current dt:dt=""r8"">0</Current><DateUtc dt:dt=""string"">2018-10-18T20:20:32Z</DateUtc></FrequencyChange></FrequencyChanges></Clock>\n",KW_Experiment5A-34-1,59.944,1.0.0.105,1,411456035,Professional,2.0.10.353,2.0.10.353,10/18/2018,10/18/2018 20:20,16:20:32,2.0.10.248,2,2,1,2,,,,,,,,TrainingProc,BlockList,30,2,Distractor2.bmp,2,0,,0,1,457633,500,,0,0,cyan,500,2,500,4,horizontal,cyan,Distractor1.bmp,red,Distractor2.bmp,lime,Target2.bmp,yellow,Distractor2.bmp,purple,Distractor1.bmp,blue,Distractor1.bmp,,,,TrialProc,,TrainingTrialList,1,2,-999999,0,458133,0,2,934,459067,Target2.bmp,lime,2,,,,3,2,30
KW_Experiment5A,34,1,"<?xml version=""1.0""?>\n<Clock xmlns:dt=""urn:schemas-microsoft-com:datatypes""><Description dt:dt=""string"">E-Prime Primary Realtime Clock</Description><StartTime><Timestamp dt:dt=""int"">0</Timestamp><DateUtc dt:dt=""string"">2018-10-18T20:20:32Z</DateUtc></StartTime><FrequencyChanges><FrequencyChange><Frequency dt:dt=""r8"">3215244</Frequency><Timestamp dt:dt=""r8"">7447884124528</Timestamp><Current dt:dt=""r8"">0</Current><DateUtc dt:dt=""string"">2018-10-18T20:20:32Z</DateUtc></FrequencyChange></FrequencyChanges></Clock>\n",KW_Experiment5A-34-1,59.944,1.0.0.105,1,411456035,Professional,2.0.10.353,2.0.10.353,10/18/2018,10/18/2018 20:20,16:20:32,2.0.10.248,2,2,1,2,,,,,,,,TrainingProc,BlockList,31,1,Distractor1.bmp,1,0,,0,1,460085,601,,0,0,red,600,3,600,1,vertical,red,Distractor2.bmp,lime,Target1.bmp,blue,Distractor1.bmp,purple,Distractor2.bmp,yellow,Distractor1.bmp,cyan,Distractor1.bmp,,,,TrialProc,,TrainingTrialList,1,1,-999999,1,460686,0,1,589,461275,Target1.bmp,lime,1,,,,2,2,31
KW_Experiment5A,34,1,"<?xml version=""1.0""?>\n<Clock xmlns:dt=""urn:schemas-microsoft-com:datatypes""><Description dt:dt=""string"">E-Prime Primary Realtime Clock</Description><StartTime><Timestamp dt:dt=""int"">0</Timestamp><DateUtc dt:dt=""string"">2018-10-18T20:20:32Z</DateUtc></StartTime><FrequencyChanges><FrequencyChange><Frequency dt:dt=""r8"">3215244</Frequency><Timestamp dt:dt=""r8"">7447884124528</Timestamp><Current dt:dt=""r8"">0</Current><DateUtc dt:dt=""string"">2018-10-18T20:20:32Z</DateUtc></FrequencyChange></FrequencyChanges></Clock>\n",KW_Experiment5A-34-1,59.944,1.0.0.105,1,411456035,Professional,2.0.10.353,2.0.10.353,10/18/2018,10/18/2018 20:20,16:20:32,2.0.10.248,2,2,1,2,,,,,,,,TrainingProc,BlockList,32,1,Distractor1.bmp,1,0,,0,1,462287,501,,0,0,yellow,500,2,500,2,vertical,yellow,Distractor1.bmp,lime,Target1.bmp,cyan,Distractor1.bmp,purple,Distractor1.bmp,red,Distractor2.bmp,blue,Distractor2.bmp,,,,TrialProc,,TrainingTrialList,1,1,-999999,1,462788,0,1,447,463235,Target1.bmp,lime,1,,,,2,2,32
KW_Experiment5A,34,1,"<?xml version=""1.0""?>\n<Clock xmlns:dt=""urn:schemas-microsoft-com:datatypes""><Description dt:dt=""string"">E-Prime Primary Realtime Clock</Description><StartTime><Timestamp dt:dt=""int"">0</Timestamp><DateUtc dt:dt=""string"">2018-10-18T20:20:32Z</DateUtc></StartTime><FrequencyChanges><FrequencyChange><Frequency dt:dt=""r8"">3215244</Frequency><Timestamp dt:dt=""r8"">7447884124528</Timestamp><Current dt:dt=""r8"">0</Current><DateUtc dt:dt=""string"">2018-10-18T20:20:32Z</DateUtc></FrequencyChange></FrequencyChanges></Clock>\n",KW_Experiment5A-34-1,59.944,1.0.0.105,1,411456035,Professional,2.0.10.353,2.0.10.353,10/18/2018,10/18/2018 20:20,16:20:32,2.0.10.248,2,2,1,2,,,,,,,,TrainingProc,BlockList,33,1,Distractor2.bmp,2,0,,0,1,464256,400,,0,0,blue,400,1,400,,vertical,red,Target1.bmp,lime,Distractor2.bmp,purple,Distractor2.bmp,cyan,Distractor1.bmp,yellow,Distractor1.bmp,blue,Distractor1.bmp,,,,TrialProc,3,TrainingTrialList,0,1,-999999,0,464656,0,2,739,465395,Target1.bmp,red,1,,,,7,2,33
KW_Experiment5A,34,1,"<?xml version=""1.0""?>\n<Clock xmlns:dt=""urn:schemas-microsoft-com:datatypes""><Description dt:dt=""string"">E-Prime Primary Realtime Clock</Description><StartTime><Timestamp dt:dt=""int"">0</Timestamp><DateUtc dt:dt=""string"">2018-10-18T20:20:32Z</DateUtc></StartTime><FrequencyChanges><FrequencyChange><Frequency dt:dt=""r8"">3215244</Frequency><Timestamp dt:dt=""r8"">7447884124528</Timestamp><Current dt:dt=""r8"">0</Current><DateUtc dt:dt=""string"">2018-10-18T20:20:32Z</DateUtc></FrequencyChange></FrequencyChanges></Clock>\n",KW_Experiment5A-34-1,59.944,1.0.0.105,1,411456035,Professional,2.0.10.353,2.0.10.353,10/18/2018,10/18/2018 20:20,16:20:32,2.0.10.248,2,2,1,2,,,,,,,,TrainingProc,BlockList,34,1,Distractor1.bmp,1,0,,0,1,466408,400,,0,0,lime,400,1,400,,vertical,lime,Distractor2.bmp,yellow,Distractor1.bmp,red,Target1.bmp,blue,Distractor1.bmp,cyan,Distractor1.bmp,purple,Distractor1.bmp,,,,TrialProc,6,TrainingTrialList,0,1,-999999,0,466808,0,2,923,467731,Target1.bmp,red,1,,,,9,2,34
KW_Experiment5A,34,1,"<?xml version=""1.0""?>\n<Clock xmlns:dt=""urn:schemas-microsoft-com:datatypes""><Description dt:dt=""string"">E-Prime Primary Realtime Clock</Description><StartTime><Timestamp dt:dt=""int"">0</Timestamp><DateUtc dt:dt=""string"">2018-10-18T20:20:32Z</DateUtc></StartTime><FrequencyChanges><FrequencyChange><Frequency dt:dt=""r8"">3215244</Frequency><Timestamp dt:dt=""r8"">7447884124528</Timestamp><Current dt:dt=""r8"">0</Current><DateUtc dt:dt=""string"">2018-10-18T20:20:32Z</DateUtc></FrequencyChange></FrequencyChanges></Clock>\n",KW_Experiment5A-34-1,59.944,1.0.0.105,1,411456035,Professional,2.0.10.353,2.0.10.353,10/18/2018,10/18/2018 20:20,16:20:32,2.0.10.248,2,2,1,2,,,,,,,,TrainingProc,BlockList,35,1,Distractor1.bmp,1,0,,0,1,468743,601,,0,0,purple,600,3,600,5,vertical,purple,Distractor2.bmp,blue,Distractor2.bmp,red,Distractor1.bmp,yellow,Distractor2.bmp,lime,Target1.bmp,cyan,Distractor1.bmp,,,,TrialProc,,TrainingTrialList,1,1,-999999,1,469344,0,1,659,470003,Target1.bmp,lime,1,,,,5,2,35
KW_Experiment5A,34,1,"<?xml version=""1.0""?>\n<Clock xmlns:dt=""urn:schemas-microsoft-com:datatypes""><Description dt:dt=""string"">E-Prime Primary Realtime Clock</Description><StartTime><Timestamp dt:dt=""int"">0</Timestamp><DateUtc dt:dt=""string"">2018-10-18T20:20:32Z</DateUtc></StartTime><FrequencyChanges><FrequencyChange><Frequency dt:dt=""r8"">3215244</Frequency><Timestamp dt:dt=""r8"">7447884124528</Timestamp><Current dt:dt=""r8"">0</Current><DateUtc dt:dt=""string"">2018-10-18T20:20:32Z</DateUtc></FrequencyChange></FrequencyChanges></Clock>\n",KW_Experiment5A-34-1,59.944,1.0.0.105,1,411456035,Professional,2.0.10.353,2.0.10.353,10/18/2018,10/18/2018 20:20,16:20:32,2.0.10.248,2,2,1,2,,,,,,,,TrainingProc,BlockList,36,2,Distractor2.bmp,2,0,,0,1,471029,500,,0,0,blue,500,2,500,3,horizontal,blue,Distractor1.bmp,yellow,Distractor1.bmp,cyan,Distractor2.bmp,purple,Distractor1.bmp,lime,Target2.bmp,red,Distractor2.bmp,,,,TrialProc,,TrainingTrialList,1,2,-999999,0,471529,0,2,954,472483,Target2.bmp,lime,2,,,,5,2,36
KW_Experiment5A,34,1,"<?xml version=""1.0""?>\n<Clock xmlns:dt=""urn:schemas-microsoft-com:datatypes""><Description dt:dt=""string"">E-Prime Primary Realtime Clock</Description><StartTime><Timestamp dt:dt=""int"">0</Timestamp><DateUtc dt:dt=""string"">2018-10-18T20:20:32Z</DateUtc></StartTime><FrequencyChanges><FrequencyChange><Frequency dt:dt=""r8"">3215244</Frequency><Timestamp dt:dt=""r8"">7447884124528</Timestamp><Current dt:dt=""r8"">0</Current><DateUtc dt:dt=""string"">2018-10-18T20:20:32Z</DateUtc></FrequencyChange></FrequencyChanges></Clock>\n",KW_Experiment5A-34-1,59.944,1.0.0.105,1,411456035,Professional,2.0.10.353,2.0.10.353,10/18/2018,10/18/2018 20:20,16:20:32,2.0.10.248,2,2,1,2,,,,,,,,TrainingProc,BlockList,37,1,Distractor2.bmp,2,0,,1,0,473497,601,,0,0,yellow,600,3,600,2,vertical,lime,Target1.bmp,yellow,Distractor2.bmp,purple,Distractor2.bmp,red,Distractor2.bmp,blue,Distractor2.bmp,cyan,Distractor1.bmp,,,,TrialProc,,TrainingTrialList,1,1,-999999,1,474098,0,1,625,474723,Target1.bmp,lime,1,,,,1,2,37
KW_Experiment5A,34,1,"<?xml version=""1.0""?>\n<Clock xmlns:dt=""urn:schemas-microsoft-com:datatypes""><Description dt:dt=""string"">E-Prime Primary Realtime Clock</Description><StartTime><Timestamp dt:dt=""int"">0</Timestamp><DateUtc dt:dt=""string"">2018-10-18T20:20:32Z</DateUtc></StartTime><FrequencyChanges><FrequencyChange><Frequency dt:dt=""r8"">3215244</Frequency><Timestamp dt:dt=""r8"">7447884124528</Timestamp><Current dt:dt=""r8"">0</Current><DateUtc dt:dt=""string"">2018-10-18T20:20:32Z</DateUtc></FrequencyChange></FrequencyChanges></Clock>\n",KW_Experiment5A-34-1,59.944,1.0.0.105,1,411456035,Professional,2.0.10.353,2.0.10.353,10/18/2018,10/18/2018 20:20,16:20:32,2.0.10.248,2,2,1,2,,,,,,,,TrainingProc,BlockList,38,2,Distractor1.bmp,1,0,,0,1,475733,400,,0,0,blue,400,1,400,3,horizontal,blue,Distractor2.bmp,red,Distractor1.bmp,lime,Target2.bmp,purple,Distractor1.bmp,cyan,Distractor2.bmp,yellow,Distractor2.bmp,,,,TrialProc,,TrainingTrialList,1,2,-999999,0,476133,0,2,886,477019,Target2.bmp,lime,2,,,,3,2,38
KW_Experiment5A,34,1,"<?xml version=""1.0""?>\n<Clock xmlns:dt=""urn:schemas-microsoft-com:datatypes""><Description dt:dt=""string"">E-Prime Primary Realtime Clock</Description><StartTime><Timestamp dt:dt=""int"">0</Timestamp><DateUtc dt:dt=""string"">2018-10-18T20:20:32Z</DateUtc></StartTime><FrequencyChanges><FrequencyChange><Frequency dt:dt=""r8"">3215244</Frequency><Timestamp dt:dt=""r8"">7447884124528</Timestamp><Current dt:dt=""r8"">0</Current><DateUtc dt:dt=""string"">2018-10-18T20:20:32Z</DateUtc></FrequencyChange></FrequencyChanges></Clock>\n",KW_Experiment5A-34-1,59.944,1.0.0.105,1,411456035,Professional,2.0.10.353,2.0.10.353,10/18/2018,10/18/2018 20:20,16:20:32,2.0.10.248,2,2,1,2,,,,,,,,TrainingProc,BlockList,39,2,Distractor1.bmp,1,0,,0,1,478035,400,,0,0,purple,400,1,400,5,horizontal,lime,Target2.bmp,purple,Distractor1.bmp,red,Distractor1.bmp,yellow,Distractor1.bmp,blue,Distractor1.bmp,cyan,Distractor2.bmp,,,,TrialProc,,TrainingTrialList,1,2,-999999,0,478435,0,2,712,479147,Target2.bmp,lime,2,,,,1,2,39
KW_Experiment5A,34,1,"<?xml version=""1.0""?>\n<Clock xmlns:dt=""urn:schemas-microsoft-com:datatypes""><Description dt:dt=""string"">E-Prime Primary Realtime Clock</Description><StartTime><Timestamp dt:dt=""int"">0</Timestamp><DateUtc dt:dt=""string"">2018-10-18T20:20:32Z</DateUtc></StartTime><FrequencyChanges><FrequencyChange><Frequency dt:dt=""r8"">3215244</Frequency><Timestamp dt:dt=""r8"">7447884124528</Timestamp><Current dt:dt=""r8"">0</Current><DateUtc dt:dt=""string"">2018-10-18T20:20:32Z</DateUtc></FrequencyChange></FrequencyChanges></Clock>\n",KW_Experiment5A-34-1,59.944,1.0.0.105,1,411456035,Professional,2.0.10.353,2.0.10.353,10/18/2018,10/18/2018 20:20,16:20:32,2.0.10.248,2,2,1,2,,,,,,,,TrainingProc,BlockList,40,2,Distractor1.bmp,1,0,,0,1,480170,401,,0,0,purple,400,1,400,5,horizontal,purple,Distractor1.bmp,lime,Target2.bmp,yellow,Distractor1.bmp,blue,Distractor2.bmp,cyan,Distractor1.bmp,red,Distractor2.bmp,,,,TrialProc,,TrainingTrialList,1,2,-999999,1,480571,0,2,696,481267,Target2.bmp,lime,2,,,,2,2,40
KW_Experiment5A,34,1,"<?xml version=""1.0""?>\n<Clock xmlns:dt=""urn:schemas-microsoft-com:datatypes""><Description dt:dt=""string"">E-Prime Primary Realtime Clock</Description><StartTime><Timestamp dt:dt=""int"">0</Timestamp><DateUtc dt:dt=""string"">2018-10-18T20:20:32Z</DateUtc></StartTime><FrequencyChanges><FrequencyChange><Frequency dt:dt=""r8"">3215244</Frequency><Timestamp dt:dt=""r8"">7447884124528</Timestamp><Current dt:dt=""r8"">0</Current><DateUtc dt:dt=""string"">2018-10-18T20:20:32Z</DateUtc></FrequencyChange></FrequencyChanges></Clock>\n",KW_Experiment5A-34-1,59.944,1.0.0.105,1,411456035,Professional,2.0.10.353,2.0.10.353,10/18/2018,10/18/2018 20:20,16:20:32,2.0.10.248,2,2,1,2,,,,,,,,TrainingProc,BlockList,41,1,Distractor2.bmp,2,0,,0,1,482289,400,,0,0,yellow,400,1,400,,vertical,yellow,Distractor2.bmp,red,Target1.bmp,lime,Distractor2.bmp,blue,Distractor1.bmp,cyan,Distractor1.bmp,purple,Distractor2.bmp,,,,TrialProc,2,TrainingTrialList,0,1,-999999,0,482689,0,2,850,483539,Target1.bmp,red,1,,,,8,2,41
KW_Experiment5A,34,1,"<?xml version=""1.0""?>\n<Clock xmlns:dt=""urn:schemas-microsoft-com:datatypes""><Description dt:dt=""string"">E-Prime Primary Realtime Clock</Description><StartTime><Timestamp dt:dt=""int"">0</Timestamp><DateUtc dt:dt=""string"">2018-10-18T20:20:32Z</DateUtc></StartTime><FrequencyChanges><FrequencyChange><Frequency dt:dt=""r8"">3215244</Frequency><Timestamp dt:dt=""r8"">7447884124528</Timestamp><Current dt:dt=""r8"">0</Current><DateUtc dt:dt=""string"">2018-10-18T20:20:32Z</DateUtc></FrequencyChange></FrequencyChanges></Clock>\n",KW_Experiment5A-34-1,59.944,1.0.0.105,1,411456035,Professional,2.0.10.353,2.0.10.353,10/18/2018,10/18/2018 20:20,16:20:32,2.0.10.248,2,2,1,2,,,,,,,,TrainingProc,BlockList,42,1,Distractor1.bmp,1,0,,0,1,484558,500,,0,0,cyan,500,2,500,4,vertical,cyan,Distractor1.bmp,purple,Distractor1.bmp,yellow,Distractor2.bmp,blue,Distractor2.bmp,red,Distractor1.bmp,lime,Target1.bmp,,,,TrialProc,,TrainingTrialList,1,1,-999999,0,485058,0,1,568,485626,Target1.bmp,lime,1,,,,6,2,42
KW_Experiment5A,34,1,"<?xml version=""1.0""?>\n<Clock xmlns:dt=""urn:schemas-microsoft-com:datatypes""><Description dt:dt=""string"">E-Prime Primary Realtime Clock</Description><StartTime><Timestamp dt:dt=""int"">0</Timestamp><DateUtc dt:dt=""string"">2018-10-18T20:20:32Z</DateUtc></StartTime><FrequencyChanges><FrequencyChange><Frequency dt:dt=""r8"">3215244</Frequency><Timestamp dt:dt=""r8"">7447884124528</Timestamp><Current dt:dt=""r8"">0</Current><DateUtc dt:dt=""string"">2018-10-18T20:20:32Z</DateUtc></FrequencyChange></FrequencyChanges></Clock>\n",KW_Experiment5A-34-1,59.944,1.0.0.105,1,411456035,Professional,2.0.10.353,2.0.10.353,10/18/2018,10/18/2018 20:20,16:20:32,2.0.10.248,2,2,1,2,,,,,,,,TrainingProc,BlockList,43,2,Distractor1.bmp,1,0,,0,1,486643,500,,0,0,purple,500,2,500,,horizontal,purple,Distractor2.bmp,cyan,Distractor2.bmp,yellow,Distractor2.bmp,lime,Distractor1.bmp,red,Target2.bmp,blue,Distractor1.bmp,,,,TrialProc,5,TrainingTrialList,0,2,-999999,0,487143,0,1,811,487954,Target2.bmp,red,2,,,,11,2,43
KW_Experiment5A,34,1,"<?xml version=""1.0""?>\n<Clock xmlns:dt=""urn:schemas-microsoft-com:datatypes""><Description dt:dt=""string"">E-Prime Primary Realtime Clock</Description><StartTime><Timestamp dt:dt=""int"">0</Timestamp><DateUtc dt:dt=""string"">2018-10-18T20:20:32Z</DateUtc></StartTime><FrequencyChanges><FrequencyChange><Frequency dt:dt=""r8"">3215244</Frequency><Timestamp dt:dt=""r8"">7447884124528</Timestamp><Current dt:dt=""r8"">0</Current><DateUtc dt:dt=""string"">2018-10-18T20:20:32Z</DateUtc></FrequencyChange></FrequencyChanges></Clock>\n",KW_Experiment5A-34-1,59.944,1.0.0.105,1,411456035,Professional,2.0.10.353,2.0.10.353,10/18/2018,10/18/2018 20:20,16:20:32,2.0.10.248,2,2,1,2,,,,,,,,TrainingProc,BlockList,44,1,Distractor2.bmp,2,0,,0,1,488978,601,,0,0,blue,600,3,600,3,vertical,blue,Distractor2.bmp,yellow,Distractor1.bmp,purple,Distractor1.bmp,cyan,Distractor1.bmp,red,Distractor2.bmp,lime,Target1.bmp,,,,TrialProc,,TrainingTrialList,1,1,-999999,1,489579,0,1,543,490122,Target1.bmp,lime,1,,,,6,2,44
KW_Experiment5A,34,1,"<?xml version=""1.0""?>\n<Clock xmlns:dt=""urn:schemas-microsoft-com:datatypes""><Description dt:dt=""string"">E-Prime Primary Realtime Clock</Description><StartTime><Timestamp dt:dt=""int"">0</Timestamp><DateUtc dt:dt=""string"">2018-10-18T20:20:32Z</DateUtc></StartTime><FrequencyChanges><FrequencyChange><Frequency dt:dt=""r8"">3215244</Frequency><Timestamp dt:dt=""r8"">7447884124528</Timestamp><Current dt:dt=""r8"">0</Current><DateUtc dt:dt=""string"">2018-10-18T20:20:32Z</DateUtc></FrequencyChange></FrequencyChanges></Clock>\n",KW_Experiment5A-34-1,59.944,1.0.0.105,1,411456035,Professional,2.0.10.353,2.0.10.353,10/18/2018,10/18/2018 20:20,16:20:32,2.0.10.248,2,2,1,2,,,,,,,,TrainingProc,BlockList,45,2,Distractor2.bmp,2,0,,0,1,491147,601,,0,0,red,600,3,600,1,horizontal,red,Distractor1.bmp,purple,Distractor1.bmp,yellow,Distractor1.bmp,lime,Target2.bmp,cyan,Distractor2.bmp,blue,Distractor1.bmp,,,,TrialProc,,TrainingTrialList,1,2,-999999,1,491748,0,2,830,492578,Target2.bmp,lime,2,,,,4,2,45
KW_Experiment5A,34,1,"<?xml version=""1.0""?>\n<Clock xmlns:dt=""urn:schemas-microsoft-com:datatypes""><Description dt:dt=""string"">E-Prime Primary Realtime Clock</Description><StartTime><Timestamp dt:dt=""int"">0</Timestamp><DateUtc dt:dt=""string"">2018-10-18T20:20:32Z</DateUtc></StartTime><FrequencyChanges><FrequencyChange><Frequency dt:dt=""r8"">3215244</Frequency><Timestamp dt:dt=""r8"">7447884124528</Timestamp><Current dt:dt=""r8"">0</Current><DateUtc dt:dt=""string"">2018-10-18T20:20:32Z</DateUtc></FrequencyChange></FrequencyChanges></Clock>\n",KW_Experiment5A-34-1,59.944,1.0.0.105,1,411456035,Professional,2.0.10.353,2.0.10.353,10/18/2018,10/18/2018 20:20,16:20:32,2.0.10.248,2,2,1,2,,,,,,,,TrainingProc,BlockList,46,2,Distractor1.bmp,1,0,,0,1,493599,501,,0,0,purple,500,2,500,,horizontal,purple,Distractor1.bmp,lime,Distractor1.bmp,cyan,Distractor2.bmp,red,Target2.bmp,yellow,Distractor1.bmp,blue,Distractor2.bmp,,,,TrialProc,5,TrainingTrialList,1,2,-999999,1,494100,0,2,2214,496314,Target2.bmp,red,2,,,,10,2,46
KW_Experiment5A,34,1,"<?xml version=""1.0""?>\n<Clock xmlns:dt=""urn:schemas-microsoft-com:datatypes""><Description dt:dt=""string"">E-Prime Primary Realtime Clock</Description><StartTime><Timestamp dt:dt=""int"">0</Timestamp><DateUtc dt:dt=""string"">2018-10-18T20:20:32Z</DateUtc></StartTime><FrequencyChanges><FrequencyChange><Frequency dt:dt=""r8"">3215244</Frequency><Timestamp dt:dt=""r8"">7447884124528</Timestamp><Current dt:dt=""r8"">0</Current><DateUtc dt:dt=""string"">2018-10-18T20:20:32Z</DateUtc></FrequencyChange></FrequencyChanges></Clock>\n",KW_Experiment5A-34-1,59.944,1.0.0.105,1,411456035,Professional,2.0.10.353,2.0.10.353,10/18/2018,10/18/2018 20:20,16:20:32,2.0.10.248,2,2,1,2,,,,,,,,TrainingProc,BlockList,47,1,Distractor2.bmp,2,0,,0,1,497336,400,,0,0,blue,400,1,400,3,vertical,blue,Distractor2.bmp,red,Distractor1.bmp,purple,Distractor2.bmp,lime,Target1.bmp,cyan,Distractor2.bmp,yellow,Distractor1.bmp,,,,TrialProc,,TrainingTrialList,1,1,-999999,0,497736,0,1,546,498282,Target1.bmp,lime,1,,,,4,2,47
KW_Experiment5A,34,1,"<?xml version=""1.0""?>\n<Clock xmlns:dt=""urn:schemas-microsoft-com:datatypes""><Description dt:dt=""string"">E-Prime Primary Realtime Clock</Description><StartTime><Timestamp dt:dt=""int"">0</Timestamp><DateUtc dt:dt=""string"">2018-10-18T20:20:32Z</DateUtc></StartTime><FrequencyChanges><FrequencyChange><Frequency dt:dt=""r8"">3215244</Frequency><Timestamp dt:dt=""r8"">7447884124528</Timestamp><Current dt:dt=""r8"">0</Current><DateUtc dt:dt=""string"">2018-10-18T20:20:32Z</DateUtc></FrequencyChange></FrequencyChanges></Clock>\n",KW_Experiment5A-34-1,59.944,1.0.0.105,1,411456035,Professional,2.0.10.353,2.0.10.353,10/18/2018,10/18/2018 20:20,16:20:32,2.0.10.248,2,2,1,2,,,,,,,,TrainingProc,BlockList,48,2,Distractor1.bmp,1,0,,0,1,499305,500,,0,0,purple,500,2,500,5,horizontal,purple,Distractor2.bmp,yellow,Distractor2.bmp,blue,Distractor1.bmp,lime,Target2.bmp,cyan,Distractor1.bmp,red,Distractor1.bmp,,,,TrialProc,,TrainingTrialList,0,2,-999999,0,499805,0,1,565,500370,Target2.bmp,lime,2,,,,4,2,48
KW_Experiment5A,34,1,"<?xml version=""1.0""?>\n<Clock xmlns:dt=""urn:schemas-microsoft-com:datatypes""><Description dt:dt=""string"">E-Prime Primary Realtime Clock</Description><StartTime><Timestamp dt:dt=""int"">0</Timestamp><DateUtc dt:dt=""string"">2018-10-18T20:20:32Z</DateUtc></StartTime><FrequencyChanges><FrequencyChange><Frequency dt:dt=""r8"">3215244</Frequency><Timestamp dt:dt=""r8"">7447884124528</Timestamp><Current dt:dt=""r8"">0</Current><DateUtc dt:dt=""string"">2018-10-18T20:20:32Z</DateUtc></FrequencyChange></FrequencyChanges></Clock>\n",KW_Experiment5A-34-1,59.944,1.0.0.105,1,411456035,Professional,2.0.10.353,2.0.10.353,10/18/2018,10/18/2018 20:20,16:20:32,2.0.10.248,3,2,1,3,,,,,,,,TrainingProc,BlockList,1,2,Distractor2.bmp,2,0,,0,13,504359,501,,0,0,red,500,2,500,1,horizontal,lime,Target2.bmp,red,Distractor2.bmp,blue,Distractor1.bmp,purple,Distractor2.bmp,cyan,Distractor2.bmp,yellow,Distractor1.bmp,,,,TrialProc,,TrainingTrialList,0,2,-999999,1,504860,0,1,750,505610,Target2.bmp,lime,2,,,,1,3,49
KW_Experiment5A,34,1,"<?xml version=""1.0""?>\n<Clock xmlns:dt=""urn:schemas-microsoft-com:datatypes""><Description dt:dt=""string"">E-Prime Primary Realtime Clock</Description><StartTime><Timestamp dt:dt=""int"">0</Timestamp><DateUtc dt:dt=""string"">2018-10-18T20:20:32Z</DateUtc></StartTime><FrequencyChanges><FrequencyChange><Frequency dt:dt=""r8"">3215244</Frequency><Timestamp dt:dt=""r8"">7447884124528</Timestamp><Current dt:dt=""r8"">0</Current><DateUtc dt:dt=""string"">2018-10-18T20:20:32Z</DateUtc></FrequencyChange></FrequencyChanges></Clock>\n",KW_Experiment5A-34-1,59.944,1.0.0.105,1,411456035,Professional,2.0.10.353,2.0.10.353,10/18/2018,10/18/2018 20:20,16:20:32,2.0.10.248,3,2,1,3,,,,,,,,TrainingProc,BlockList,2,1,Distractor1.bmp,1,0,,0,1,506628,400,,0,0,blue,400,1,400,,vertical,blue,Distractor2.bmp,red,Target1.bmp,lime,Distractor1.bmp,cyan,Distractor2.bmp,purple,Distractor2.bmp,yellow,Distractor1.bmp,,,,TrialProc,3,TrainingTrialList,0,1,-999999,0,507028,0,2,870,507898,Target1.bmp,red,1,,,,8,3,50
KW_Experiment5A,34,1,"<?xml version=""1.0""?>\n<Clock xmlns:dt=""urn:schemas-microsoft-com:datatypes""><Description dt:dt=""string"">E-Prime Primary Realtime Clock</Description><StartTime><Timestamp dt:dt=""int"">0</Timestamp><DateUtc dt:dt=""string"">2018-10-18T20:20:32Z</DateUtc></StartTime><FrequencyChanges><FrequencyChange><Frequency dt:dt=""r8"">3215244</Frequency><Timestamp dt:dt=""r8"">7447884124528</Timestamp><Current dt:dt=""r8"">0</Current><DateUtc dt:dt=""string"">2018-10-18T20:20:32Z</DateUtc></FrequencyChange></FrequencyChanges></Clock>\n",KW_Experiment5A-34-1,59.944,1.0.0.105,1,411456035,Professional,2.0.10.353,2.0.10.353,10/18/2018,10/18/2018 20:20,16:20:32,2.0.10.248,3,2,1,3,,,,,,,,TrainingProc,BlockList,3,1,Distractor1.bmp,1,0,,1,0,508913,601,,0,0,blue,600,3,600,3,vertical,blue,Distractor2.bmp,yellow,Distractor2.bmp,purple,Distractor1.bmp,lime,Target1.bmp,cyan,Distractor1.bmp,red,Distractor2.bmp,,,,TrialProc,,TrainingTrialList,1,1,-999999,1,509514,0,1,600,510114,Target1.bmp,lime,1,,,,4,3,51
KW_Experiment5A,34,1,"<?xml version=""1.0""?>\n<Clock xmlns:dt=""urn:schemas-microsoft-com:datatypes""><Description dt:dt=""string"">E-Prime Primary Realtime Clock</Description><StartTime><Timestamp dt:dt=""int"">0</Timestamp><DateUtc dt:dt=""string"">2018-10-18T20:20:32Z</DateUtc></StartTime><FrequencyChanges><FrequencyChange><Frequency dt:dt=""r8"">3215244</Frequency><Timestamp dt:dt=""r8"">7447884124528</Timestamp><Current dt:dt=""r8"">0</Current><DateUtc dt:dt=""string"">2018-10-18T20:20:32Z</DateUtc></FrequencyChange></FrequencyChanges></Clock>\n",KW_Experiment5A-34-1,59.944,1.0.0.105,1,411456035,Professional,2.0.10.353,2.0.10.353,10/18/2018,10/18/2018 20:20,16:20:32,2.0.10.248,3,2,1,3,,,,,,,,TrainingProc,BlockList,4,1,Distractor2.bmp,2,0,,0,1,511132,501,,0,0,cyan,500,2,500,,vertical,cyan,Distractor1.bmp,yellow,Distractor2.bmp,blue,Distractor2.bmp,purple,Distractor1.bmp,red,Target1.bmp,lime,Distractor2.bmp,,,,TrialProc,4,TrainingTrialList,0,1,-999999,1,511633,0,2,881,512514,Target1.bmp,red,1,,,,11,3,52
KW_Experiment5A,34,1,"<?xml version=""1.0""?>\n<Clock xmlns:dt=""urn:schemas-microsoft-com:datatypes""><Description dt:dt=""string"">E-Prime Primary Realtime Clock</Description><StartTime><Timestamp dt:dt=""int"">0</Timestamp><DateUtc dt:dt=""string"">2018-10-18T20:20:32Z</DateUtc></StartTime><FrequencyChanges><FrequencyChange><Frequency dt:dt=""r8"">3215244</Frequency><Timestamp dt:dt=""r8"">7447884124528</Timestamp><Current dt:dt=""r8"">0</Current><DateUtc dt:dt=""string"">2018-10-18T20:20:32Z</DateUtc></FrequencyChange></FrequencyChanges></Clock>\n",KW_Experiment5A-34-1,59.944,1.0.0.105,1,411456035,Professional,2.0.10.353,2.0.10.353,10/18/2018,10/18/2018 20:20,16:20:32,2.0.10.248,3,2,1,3,,,,,,,,TrainingProc,BlockList,5,2,Distractor1.bmp,1,0,,0,1,513534,501,,0,0,purple,500,2,500,5,horizontal,purple,Distractor1.bmp,yellow,Distractor1.bmp,blue,Distractor2.bmp,red,Distractor1.bmp,cyan,Distractor1.bmp,lime,Target2.bmp,,,,TrialProc,,TrainingTrialList,1,2,-999999,1,514035,0,2,3039,517074,Target2.bmp,lime,2,,,,6,3,53
KW_Experiment5A,34,1,"<?xml version=""1.0""?>\n<Clock xmlns:dt=""urn:schemas-microsoft-com:datatypes""><Description dt:dt=""string"">E-Prime Primary Realtime Clock</Description><StartTime><Timestamp dt:dt=""int"">0</Timestamp><DateUtc dt:dt=""string"">2018-10-18T20:20:32Z</DateUtc></StartTime><FrequencyChanges><FrequencyChange><Frequency dt:dt=""r8"">3215244</Frequency><Timestamp dt:dt=""r8"">7447884124528</Timestamp><Current dt:dt=""r8"">0</Current><DateUtc dt:dt=""string"">2018-10-18T20:20:32Z</DateUtc></FrequencyChange></FrequencyChanges></Clock>\n",KW_Experiment5A-34-1,59.944,1.0.0.105,1,411456035,Professional,2.0.10.353,2.0.10.353,10/18/2018,10/18/2018 20:20,16:20:32,2.0.10.248,3,2,1,3,,,,,,,,TrainingProc,BlockList,6,1,Distractor1.bmp,1,0,,0,1,518089,600,,0,0,cyan,600,3,600,4,vertical,cyan,Distractor1.bmp,yellow,Distractor2.bmp,blue,Distractor1.bmp,lime,Target1.bmp,purple,Distractor1.bmp,red,Distractor2.bmp,,,,TrialProc,,TrainingTrialList,1,1,-999999,0,518689,0,1,577,519266,Target1.bmp,lime,1,,,,4,3,54
KW_Experiment5A,34,1,"<?xml version=""1.0""?>\n<Clock xmlns:dt=""urn:schemas-microsoft-com:datatypes""><Description dt:dt=""string"">E-Prime Primary Realtime Clock</Description><StartTime><Timestamp dt:dt=""int"">0</Timestamp><DateUtc dt:dt=""string"">2018-10-18T20:20:32Z</DateUtc></StartTime><FrequencyChanges><FrequencyChange><Frequency dt:dt=""r8"">3215244</Frequency><Timestamp dt:dt=""r8"">7447884124528</Timestamp><Current dt:dt=""r8"">0</Current><DateUtc dt:dt=""string"">2018-10-18T20:20:32Z</DateUtc></FrequencyChange></FrequencyChanges></Clock>\n",KW_Experiment5A-34-1,59.944,1.0.0.105,1,411456035,Professional,2.0.10.353,2.0.10.353,10/18/2018,10/18/2018 20:20,16:20:32,2.0.10.248,3,2,1,3,,,,,,,,TrainingProc,BlockList,7,2,Distractor1.bmp,1,0,,0,1,520291,600,,0,0,red,600,3,600,1,horizontal,red,Distractor1.bmp,cyan,Distractor2.bmp,blue,Distractor2.bmp,lime,Target2.bmp,purple,Distractor1.bmp,yellow,Distractor2.bmp,,,,TrialProc,,TrainingTrialList,0,2,-999999,0,520891,0,1,615,521506,Target2.bmp,lime,2,,,,4,3,55
KW_Experiment5A,34,1,"<?xml version=""1.0""?>\n<Clock xmlns:dt=""urn:schemas-microsoft-com:datatypes""><Description dt:dt=""string"">E-Prime Primary Realtime Clock</Description><StartTime><Timestamp dt:dt=""int"">0</Timestamp><DateUtc dt:dt=""string"">2018-10-18T20:20:32Z</DateUtc></StartTime><FrequencyChanges><FrequencyChange><Frequency dt:dt=""r8"">3215244</Frequency><Timestamp dt:dt=""r8"">7447884124528</Timestamp><Current dt:dt=""r8"">0</Current><DateUtc dt:dt=""string"">2018-10-18T20:20:32Z</DateUtc></FrequencyChange></FrequencyChanges></Clock>\n",KW_Experiment5A-34-1,59.944,1.0.0.105,1,411456035,Professional,2.0.10.353,2.0.10.353,10/18/2018,10/18/2018 20:20,16:20:32,2.0.10.248,3,2,1,3,,,,,,,,TrainingProc,BlockList,8,2,Distractor2.bmp,2,0,,0,1,522526,500,,0,0,purple,500,2,500,5,horizontal,purple,Distractor2.bmp,blue,Distractor2.bmp,cyan,Distractor1.bmp,yellow,Distractor2.bmp,red,Distractor1.bmp,lime,Target2.bmp,,,,TrialProc,,TrainingTrialList,1,2,-999999,0,523026,0,2,776,523802,Target2.bmp,lime,2,,,,6,3,56
KW_Experiment5A,34,1,"<?xml version=""1.0""?>\n<Clock xmlns:dt=""urn:schemas-microsoft-com:datatypes""><Description dt:dt=""string"">E-Prime Primary Realtime Clock</Description><StartTime><Timestamp dt:dt=""int"">0</Timestamp><DateUtc dt:dt=""string"">2018-10-18T20:20:32Z</DateUtc></StartTime><FrequencyChanges><FrequencyChange><Frequency dt:dt=""r8"">3215244</Frequency><Timestamp dt:dt=""r8"">7447884124528</Timestamp><Current dt:dt=""r8"">0</Current><DateUtc dt:dt=""string"">2018-10-18T20:20:32Z</DateUtc></FrequencyChange></FrequencyChanges></Clock>\n",KW_Experiment5A-34-1,59.944,1.0.0.105,1,411456035,Professional,2.0.10.353,2.0.10.353,10/18/2018,10/18/2018 20:20,16:20:32,2.0.10.248,3,2,1,3,,,,,,,,TrainingProc,BlockList,9,1,Distractor1.bmp,1,0,,0,1,524828,400,,0,0,red,400,1,400,1,vertical,lime,Target1.bmp,red,Distractor1.bmp,cyan,Distractor2.bmp,yellow,Distractor1.bmp,purple,Distractor1.bmp,blue,Distractor1.bmp,,,,TrialProc,,TrainingTrialList,1,1,-999999,0,525228,0,1,694,525922,Target1.bmp,lime,1,,,,1,3,57
KW_Experiment5A,34,1,"<?xml version=""1.0""?>\n<Clock xmlns:dt=""urn:schemas-microsoft-com:datatypes""><Description dt:dt=""string"">E-Prime Primary Realtime Clock</Description><StartTime><Timestamp dt:dt=""int"">0</Timestamp><DateUtc dt:dt=""string"">2018-10-18T20:20:32Z</DateUtc></StartTime><FrequencyChanges><FrequencyChange><Frequency dt:dt=""r8"">3215244</Frequency><Timestamp dt:dt=""r8"">7447884124528</Timestamp><Current dt:dt=""r8"">0</Current><DateUtc dt:dt=""string"">2018-10-18T20:20:32Z</DateUtc></FrequencyChange></FrequencyChanges></Clock>\n",KW_Experiment5A-34-1,59.944,1.0.0.105,1,411456035,Professional,2.0.10.353,2.0.10.353,10/18/2018,10/18/2018 20:20,16:20:32,2.0.10.248,3,2,1,3,,,,,,,,TrainingProc,BlockList,10,1,Distractor2.bmp,2,0,,0,1,526947,400,,0,0,cyan,400,1,400,4,vertical,cyan,Distractor2.bmp,blue,Distractor1.bmp,yellow,Distractor2.bmp,purple,Distractor1.bmp,lime,Target1.bmp,red,Distractor2.bmp,,,,TrialProc,,TrainingTrialList,1,1,-999999,0,527347,0,1,663,528010,Target1.bmp,lime,1,,,,5,3,58
KW_Experiment5A,34,1,"<?xml version=""1.0""?>\n<Clock xmlns:dt=""urn:schemas-microsoft-com:datatypes""><Description dt:dt=""string"">E-Prime Primary Realtime Clock</Description><StartTime><Timestamp dt:dt=""int"">0</Timestamp><DateUtc dt:dt=""string"">2018-10-18T20:20:32Z</DateUtc></StartTime><FrequencyChanges><FrequencyChange><Frequency dt:dt=""r8"">3215244</Frequency><Timestamp dt:dt=""r8"">7447884124528</Timestamp><Current dt:dt=""r8"">0</Current><DateUtc dt:dt=""string"">2018-10-18T20:20:32Z</DateUtc></FrequencyChange></FrequencyChanges></Clock>\n",KW_Experiment5A-34-1,59.944,1.0.0.105,1,411456035,Professional,2.0.10.353,2.0.10.353,10/18/2018,10/18/2018 20:20,16:20:32,2.0.10.248,3,2,1,3,,,,,,,,TrainingProc,BlockList,11,2,Distractor2.bmp,2,0,,0,1,529032,500,,0,0,lime,500,2,500,,horizontal,lime,Distractor2.bmp,yellow,Distractor2.bmp,cyan,Distractor2.bmp,red,Target2.bmp,purple,Distractor2.bmp,blue,Distractor2.bmp,,,,TrialProc,6,TrainingTrialList,1,2,-999999,0,529532,0,2,646,530178,Target2.bmp,red,2,,,,10,3,59
KW_Experiment5A,34,1,"<?xml version=""1.0""?>\n<Clock xmlns:dt=""urn:schemas-microsoft-com:datatypes""><Description dt:dt=""string"">E-Prime Primary Realtime Clock</Description><StartTime><Timestamp dt:dt=""int"">0</Timestamp><DateUtc dt:dt=""string"">2018-10-18T20:20:32Z</DateUtc></StartTime><FrequencyChanges><FrequencyChange><Frequency dt:dt=""r8"">3215244</Frequency><Timestamp dt:dt=""r8"">7447884124528</Timestamp><Current dt:dt=""r8"">0</Current><DateUtc dt:dt=""string"">2018-10-18T20:20:32Z</DateUtc></FrequencyChange></FrequencyChanges></Clock>\n",KW_Experiment5A-34-1,59.944,1.0.0.105,1,411456035,Professional,2.0.10.353,2.0.10.353,10/18/2018,10/18/2018 20:20,16:20:32,2.0.10.248,3,2,1,3,,,,,,,,TrainingProc,BlockList,12,2,Distractor2.bmp,2,0,,0,1,531201,400,,0,0,purple,400,1,400,5,horizontal,purple,Distractor2.bmp,red,Distractor2.bmp,lime,Target2.bmp,yellow,Distractor2.bmp,blue,Distractor1.bmp,cyan,Distractor2.bmp,,,,TrialProc,,TrainingTrialList,1,2,-999999,0,531601,0,2,753,532354,Target2.bmp,lime,2,,,,3,3,60
KW_Experiment5A,34,1,"<?xml version=""1.0""?>\n<Clock xmlns:dt=""urn:schemas-microsoft-com:datatypes""><Description dt:dt=""string"">E-Prime Primary Realtime Clock</Description><StartTime><Timestamp dt:dt=""int"">0</Timestamp><DateUtc dt:dt=""string"">2018-10-18T20:20:32Z</DateUtc></StartTime><FrequencyChanges><FrequencyChange><Frequency dt:dt=""r8"">3215244</Frequency><Timestamp dt:dt=""r8"">7447884124528</Timestamp><Current dt:dt=""r8"">0</Current><DateUtc dt:dt=""string"">2018-10-18T20:20:32Z</DateUtc></FrequencyChange></FrequencyChanges></Clock>\n",KW_Experiment5A-34-1,59.944,1.0.0.105,1,411456035,Professional,2.0.10.353,2.0.10.353,10/18/2018,10/18/2018 20:20,16:20:32,2.0.10.248,3,2,1,3,,,,,,,,TrainingProc,BlockList,13,1,Distractor1.bmp,1,0,,0,1,533369,501,,0,0,yellow,500,2,500,2,vertical,yellow,Distractor2.bmp,red,Distractor1.bmp,lime,Target1.bmp,cyan,Distractor1.bmp,blue,Distractor1.bmp,purple,Distractor1.bmp,,,,TrialProc,,TrainingTrialList,1,1,-999999,1,533870,0,1,676,534546,Target1.bmp,lime,1,,,,3,3,61
KW_Experiment5A,34,1,"<?xml version=""1.0""?>\n<Clock xmlns:dt=""urn:schemas-microsoft-com:datatypes""><Description dt:dt=""string"">E-Prime Primary Realtime Clock</Description><StartTime><Timestamp dt:dt=""int"">0</Timestamp><DateUtc dt:dt=""string"">2018-10-18T20:20:32Z</DateUtc></StartTime><FrequencyChanges><FrequencyChange><Frequency dt:dt=""r8"">3215244</Frequency><Timestamp dt:dt=""r8"">7447884124528</Timestamp><Current dt:dt=""r8"">0</Current><DateUtc dt:dt=""string"">2018-10-18T20:20:32Z</DateUtc></FrequencyChange></FrequencyChanges></Clock>\n",KW_Experiment5A-34-1,59.944,1.0.0.105,1,411456035,Professional,2.0.10.353,2.0.10.353,10/18/2018,10/18/2018 20:20,16:20:32,2.0.10.248,3,2,1,3,,,,,,,,TrainingProc,BlockList,14,2,Distractor1.bmp,1,0,,0,1,535571,401,,0,0,purple,400,1,400,,horizontal,red,Target2.bmp,yellow,Distractor1.bmp,blue,Distractor1.bmp,cyan,Distractor2.bmp,lime,Distractor2.bmp,purple,Distractor2.bmp,,,,TrialProc,5,TrainingTrialList,1,2,-999999,1,535972,0,2,662,536634,Target2.bmp,red,2,,,,7,3,62
KW_Experiment5A,34,1,"<?xml version=""1.0""?>\n<Clock xmlns:dt=""urn:schemas-microsoft-com:datatypes""><Description dt:dt=""string"">E-Prime Primary Realtime Clock</Description><StartTime><Timestamp dt:dt=""int"">0</Timestamp><DateUtc dt:dt=""string"">2018-10-18T20:20:32Z</DateUtc></StartTime><FrequencyChanges><FrequencyChange><Frequency dt:dt=""r8"">3215244</Frequency><Timestamp dt:dt=""r8"">7447884124528</Timestamp><Current dt:dt=""r8"">0</Current><DateUtc dt:dt=""string"">2018-10-18T20:20:32Z</DateUtc></FrequencyChange></FrequencyChanges></Clock>\n",KW_Experiment5A-34-1,59.944,1.0.0.105,1,411456035,Professional,2.0.10.353,2.0.10.353,10/18/2018,10/18/2018 20:20,16:20:32,2.0.10.248,3,2,1,3,,,,,,,,TrainingProc,BlockList,15,2,Distractor1.bmp,1,0,,0,1,537657,500,,0,0,cyan,500,2,500,4,horizontal,cyan,Distractor1.bmp,yellow,Distractor1.bmp,purple,Distractor2.bmp,red,Distractor2.bmp,blue,Distractor1.bmp,lime,Target2.bmp,,,,TrialProc,,TrainingTrialList,1,2,-999999,0,538157,0,2,701,538858,Target2.bmp,lime,2,,,,6,3,63
KW_Experiment5A,34,1,"<?xml version=""1.0""?>\n<Clock xmlns:dt=""urn:schemas-microsoft-com:datatypes""><Description dt:dt=""string"">E-Prime Primary Realtime Clock</Description><StartTime><Timestamp dt:dt=""int"">0</Timestamp><DateUtc dt:dt=""string"">2018-10-18T20:20:32Z</DateUtc></StartTime><FrequencyChanges><FrequencyChange><Frequency dt:dt=""r8"">3215244</Frequency><Timestamp dt:dt=""r8"">7447884124528</Timestamp><Current dt:dt=""r8"">0</Current><DateUtc dt:dt=""string"">2018-10-18T20:20:32Z</DateUtc></FrequencyChange></FrequencyChanges></Clock>\n",KW_Experiment5A-34-1,59.944,1.0.0.105,1,411456035,Professional,2.0.10.353,2.0.10.353,10/18/2018,10/18/2018 20:20,16:20:32,2.0.10.248,3,2,1,3,,,,,,,,TrainingProc,BlockList,16,2,Distractor1.bmp,1,0,,0,1,539875,501,,0,0,purple,500,2,500,5,horizontal,purple,Distractor1.bmp,lime,Target2.bmp,cyan,Distractor1.bmp,yellow,Distractor2.bmp,blue,Distractor1.bmp,red,Distractor1.bmp,,,,TrialProc,,TrainingTrialList,1,2,-999999,1,540376,0,2,746,541122,Target2.bmp,lime,2,,,,2,3,64
KW_Experiment5A,34,1,"<?xml version=""1.0""?>\n<Clock xmlns:dt=""urn:schemas-microsoft-com:datatypes""><Description dt:dt=""string"">E-Prime Primary Realtime Clock</Description><StartTime><Timestamp dt:dt=""int"">0</Timestamp><DateUtc dt:dt=""string"">2018-10-18T20:20:32Z</DateUtc></StartTime><FrequencyChanges><FrequencyChange><Frequency dt:dt=""r8"">3215244</Frequency><Timestamp dt:dt=""r8"">7447884124528</Timestamp><Current dt:dt=""r8"">0</Current><DateUtc dt:dt=""string"">2018-10-18T20:20:32Z</DateUtc></FrequencyChange></FrequencyChanges></Clock>\n",KW_Experiment5A-34-1,59.944,1.0.0.105,1,411456035,Professional,2.0.10.353,2.0.10.353,10/18/2018,10/18/2018 20:20,16:20:32,2.0.10.248,3,2,1,3,,,,,,,,TrainingProc,BlockList,17,1,Distractor1.bmp,1,0,,0,1,542144,400,,0,0,blue,400,1,400,3,vertical,blue,Distractor1.bmp,purple,Distractor1.bmp,lime,Target1.bmp,red,Distractor1.bmp,cyan,Distractor1.bmp,yellow,Distractor1.bmp,,,,TrialProc,,TrainingTrialList,1,1,-999999,0,542544,0,1,706,543250,Target1.bmp,lime,1,,,,3,3,65
KW_Experiment5A,34,1,"<?xml version=""1.0""?>\n<Clock xmlns:dt=""urn:schemas-microsoft-com:datatypes""><Description dt:dt=""string"">E-Prime Primary Realtime Clock</Description><StartTime><Timestamp dt:dt=""int"">0</Timestamp><DateUtc dt:dt=""string"">2018-10-18T20:20:32Z</DateUtc></StartTime><FrequencyChanges><FrequencyChange><Frequency dt:dt=""r8"">3215244</Frequency><Timestamp dt:dt=""r8"">7447884124528</Timestamp><Current dt:dt=""r8"">0</Current><DateUtc dt:dt=""string"">2018-10-18T20:20:32Z</DateUtc></FrequencyChange></FrequencyChanges></Clock>\n",KW_Experiment5A-34-1,59.944,1.0.0.105,1,411456035,Professional,2.0.10.353,2.0.10.353,10/18/2018,10/18/2018 20:20,16:20:32,2.0.10.248,3,2,1,3,,,,,,,,TrainingProc,BlockList,18,1,Distractor2.bmp,2,0,,0,1,544263,400,,0,0,yellow,400,1,400,2,vertical,yellow,Distractor2.bmp,lime,Target1.bmp,blue,Distractor2.bmp,cyan,Distractor2.bmp,purple,Distractor2.bmp,red,Distractor1.bmp,,,,TrialProc,,TrainingTrialList,1,1,-999999,0,544663,0,1,803,545466,Target1.bmp,lime,1,,,,2,3,66
KW_Experiment5A,34,1,"<?xml version=""1.0""?>\n<Clock xmlns:dt=""urn:schemas-microsoft-com:datatypes""><Description dt:dt=""string"">E-Prime Primary Realtime Clock</Description><StartTime><Timestamp dt:dt=""int"">0</Timestamp><DateUtc dt:dt=""string"">2018-10-18T20:20:32Z</DateUtc></StartTime><FrequencyChanges><FrequencyChange><Frequency dt:dt=""r8"">3215244</Frequency><Timestamp dt:dt=""r8"">7447884124528</Timestamp><Current dt:dt=""r8"">0</Current><DateUtc dt:dt=""string"">2018-10-18T20:20:32Z</DateUtc></FrequencyChange></FrequencyChanges></Clock>\n",KW_Experiment5A-34-1,59.944,1.0.0.105,1,411456035,Professional,2.0.10.353,2.0.10.353,10/18/2018,10/18/2018 20:20,16:20:32,2.0.10.248,3,2,1,3,,,,,,,,TrainingProc,BlockList,19,1,Distractor1.bmp,1,0,,0,1,546481,601,,0,0,lime,600,3,600,,vertical,lime,Distractor1.bmp,purple,Distractor2.bmp,cyan,Distractor2.bmp,yellow,Distractor1.bmp,blue,Distractor2.bmp,red,Target1.bmp,,,,TrialProc,6,TrainingTrialList,0,1,-999999,1,547082,0,2,648,547730,Target1.bmp,red,1,,,,12,3,67
KW_Experiment5A,34,1,"<?xml version=""1.0""?>\n<Clock xmlns:dt=""urn:schemas-microsoft-com:datatypes""><Description dt:dt=""string"">E-Prime Primary Realtime Clock</Description><StartTime><Timestamp dt:dt=""int"">0</Timestamp><DateUtc dt:dt=""string"">2018-10-18T20:20:32Z</DateUtc></StartTime><FrequencyChanges><FrequencyChange><Frequency dt:dt=""r8"">3215244</Frequency><Timestamp dt:dt=""r8"">7447884124528</Timestamp><Current dt:dt=""r8"">0</Current><DateUtc dt:dt=""string"">2018-10-18T20:20:32Z</DateUtc></FrequencyChange></FrequencyChanges></Clock>\n",KW_Experiment5A-34-1,59.944,1.0.0.105,1,411456035,Professional,2.0.10.353,2.0.10.353,10/18/2018,10/18/2018 20:20,16:20:32,2.0.10.248,3,2,1,3,,,,,,,,TrainingProc,BlockList,20,1,Distractor2.bmp,2,0,,0,1,548750,601,,0,0,yellow,600,3,600,2,vertical,yellow,Distractor2.bmp,red,Distractor2.bmp,purple,Distractor1.bmp,cyan,Distractor1.bmp,lime,Target1.bmp,blue,Distractor2.bmp,,,,TrialProc,,TrainingTrialList,1,1,-999999,1,549351,0,1,539,549890,Target1.bmp,lime,1,,,,5,3,68
KW_Experiment5A,34,1,"<?xml version=""1.0""?>\n<Clock xmlns:dt=""urn:schemas-microsoft-com:datatypes""><Description dt:dt=""string"">E-Prime Primary Realtime Clock</Description><StartTime><Timestamp dt:dt=""int"">0</Timestamp><DateUtc dt:dt=""string"">2018-10-18T20:20:32Z</DateUtc></StartTime><FrequencyChanges><FrequencyChange><Frequency dt:dt=""r8"">3215244</Frequency><Timestamp dt:dt=""r8"">7447884124528</Timestamp><Current dt:dt=""r8"">0</Current><DateUtc dt:dt=""string"">2018-10-18T20:20:32Z</DateUtc></FrequencyChange></FrequencyChanges></Clock>\n",KW_Experiment5A-34-1,59.944,1.0.0.105,1,411456035,Professional,2.0.10.353,2.0.10.353,10/18/2018,10/18/2018 20:20,16:20:32,2.0.10.248,3,2,1,3,,,,,,,,TrainingProc,BlockList,21,1,Distractor2.bmp,2,0,,0,1,550902,601,,0,0,cyan,600,3,600,4,vertical,cyan,Distractor2.bmp,lime,Target1.bmp,red,Distractor2.bmp,yellow,Distractor1.bmp,blue,Distractor2.bmp,purple,Distractor1.bmp,,,,TrialProc,,TrainingTrialList,0,1,-999999,1,551503,0,2,555,552058,Target1.bmp,lime,1,,,,2,3,69
KW_Experiment5A,34,1,"<?xml version=""1.0""?>\n<Clock xmlns:dt=""urn:schemas-microsoft-com:datatypes""><Description dt:dt=""string"">E-Prime Primary Realtime Clock</Description><StartTime><Timestamp dt:dt=""int"">0</Timestamp><DateUtc dt:dt=""string"">2018-10-18T20:20:32Z</DateUtc></StartTime><FrequencyChanges><FrequencyChange><Frequency dt:dt=""r8"">3215244</Frequency><Timestamp dt:dt=""r8"">7447884124528</Timestamp><Current dt:dt=""r8"">0</Current><DateUtc dt:dt=""string"">2018-10-18T20:20:32Z</DateUtc></FrequencyChange></FrequencyChanges></Clock>\n",KW_Experiment5A-34-1,59.944,1.0.0.105,1,411456035,Professional,2.0.10.353,2.0.10.353,10/18/2018,10/18/2018 20:20,16:20:32,2.0.10.248,3,2,1,3,,,,,,,,TrainingProc,BlockList,22,1,Distractor1.bmp,1,0,,0,1,553071,400,,0,0,cyan,400,1,400,,vertical,cyan,Distractor2.bmp,yellow,Distractor2.bmp,red,Target1.bmp,purple,Distractor1.bmp,lime,Distractor1.bmp,blue,Distractor1.bmp,,,,TrialProc,4,TrainingTrialList,0,1,-999999,0,553471,0,2,731,554202,Target1.bmp,red,1,,,,9,3,70
KW_Experiment5A,34,1,"<?xml version=""1.0""?>\n<Clock xmlns:dt=""urn:schemas-microsoft-com:datatypes""><Description dt:dt=""string"">E-Prime Primary Realtime Clock</Description><StartTime><Timestamp dt:dt=""int"">0</Timestamp><DateUtc dt:dt=""string"">2018-10-18T20:20:32Z</DateUtc></StartTime><FrequencyChanges><FrequencyChange><Frequency dt:dt=""r8"">3215244</Frequency><Timestamp dt:dt=""r8"">7447884124528</Timestamp><Current dt:dt=""r8"">0</Current><DateUtc dt:dt=""string"">2018-10-18T20:20:32Z</DateUtc></FrequencyChange></FrequencyChanges></Clock>\n",KW_Experiment5A-34-1,59.944,1.0.0.105,1,411456035,Professional,2.0.10.353,2.0.10.353,10/18/2018,10/18/2018 20:20,16:20:32,2.0.10.248,3,2,1,3,,,,,,,,TrainingProc,BlockList,23,1,Distractor1.bmp,1,0,,0,1,555223,600,,0,0,red,600,3,600,1,vertical,lime,Target1.bmp,red,Distractor1.bmp,yellow,Distractor1.bmp,blue,Distractor1.bmp,purple,Distractor1.bmp,cyan,Distractor1.bmp,,,,TrialProc,,TrainingTrialList,1,1,-999999,0,555823,0,1,651,556474,Target1.bmp,lime,1,,,,1,3,71
KW_Experiment5A,34,1,"<?xml version=""1.0""?>\n<Clock xmlns:dt=""urn:schemas-microsoft-com:datatypes""><Description dt:dt=""string"">E-Prime Primary Realtime Clock</Description><StartTime><Timestamp dt:dt=""int"">0</Timestamp><DateUtc dt:dt=""string"">2018-10-18T20:20:32Z</DateUtc></StartTime><FrequencyChanges><FrequencyChange><Frequency dt:dt=""r8"">3215244</Frequency><Timestamp dt:dt=""r8"">7447884124528</Timestamp><Current dt:dt=""r8"">0</Current><DateUtc dt:dt=""string"">2018-10-18T20:20:32Z</DateUtc></FrequencyChange></FrequencyChanges></Clock>\n",KW_Experiment5A-34-1,59.944,1.0.0.105,1,411456035,Professional,2.0.10.353,2.0.10.353,10/18/2018,10/18/2018 20:20,16:20:32,2.0.10.248,3,2,1,3,,,,,,,,TrainingProc,BlockList,24,2,Distractor2.bmp,2,0,,0,1,557492,500,,0,0,red,500,2,500,1,horizontal,red,Distractor2.bmp,cyan,Distractor2.bmp,blue,Distractor1.bmp,yellow,Distractor1.bmp,lime,Target2.bmp,purple,Distractor2.bmp,,,,TrialProc,,TrainingTrialList,1,2,-999999,0,557992,0,2,634,558626,Target2.bmp,lime,2,,,,5,3,72
KW_Experiment5A,34,1,"<?xml version=""1.0""?>\n<Clock xmlns:dt=""urn:schemas-microsoft-com:datatypes""><Description dt:dt=""string"">E-Prime Primary Realtime Clock</Description><StartTime><Timestamp dt:dt=""int"">0</Timestamp><DateUtc dt:dt=""string"">2018-10-18T20:20:32Z</DateUtc></StartTime><FrequencyChanges><FrequencyChange><Frequency dt:dt=""r8"">3215244</Frequency><Timestamp dt:dt=""r8"">7447884124528</Timestamp><Current dt:dt=""r8"">0</Current><DateUtc dt:dt=""string"">2018-10-18T20:20:32Z</DateUtc></FrequencyChange></FrequencyChanges></Clock>\n",KW_Experiment5A-34-1,59.944,1.0.0.105,1,411456035,Professional,2.0.10.353,2.0.10.353,10/18/2018,10/18/2018 20:20,16:20:32,2.0.10.248,3,2,1,3,,,,,,,,TrainingProc,BlockList,25,2,Distractor1.bmp,1,0,,0,1,559644,600,,0,0,cyan,600,3,600,4,horizontal,cyan,Distractor1.bmp,purple,Distractor2.bmp,red,Distractor1.bmp,blue,Distractor1.bmp,yellow,Distractor1.bmp,lime,Target2.bmp,,,,TrialProc,,TrainingTrialList,1,2,-999999,0,560244,0,2,542,560786,Target2.bmp,lime,2,,,,6,4,73
KW_Experiment5A,34,1,"<?xml version=""1.0""?>\n<Clock xmlns:dt=""urn:schemas-microsoft-com:datatypes""><Description dt:dt=""string"">E-Prime Primary Realtime Clock</Description><StartTime><Timestamp dt:dt=""int"">0</Timestamp><DateUtc dt:dt=""string"">2018-10-18T20:20:32Z</DateUtc></StartTime><FrequencyChanges><FrequencyChange><Frequency dt:dt=""r8"">3215244</Frequency><Timestamp dt:dt=""r8"">7447884124528</Timestamp><Current dt:dt=""r8"">0</Current><DateUtc dt:dt=""string"">2018-10-18T20:20:32Z</DateUtc></FrequencyChange></FrequencyChanges></Clock>\n",KW_Experiment5A-34-1,59.944,1.0.0.105,1,411456035,Professional,2.0.10.353,2.0.10.353,10/18/2018,10/18/2018 20:20,16:20:32,2.0.10.248,3,2,1,3,,,,,,,,TrainingProc,BlockList,26,2,Distractor2.bmp,2,0,,0,1,561796,400,,0,0,yellow,400,1,400,,horizontal,yellow,Distractor2.bmp,red,Target2.bmp,lime,Distractor2.bmp,blue,Distractor1.bmp,purple,Distractor2.bmp,cyan,Distractor2.bmp,,,,TrialProc,2,TrainingTrialList,1,2,-999999,0,562196,0,2,902,563098,Target2.bmp,red,2,,,,8,4,74
KW_Experiment5A,34,1,"<?xml version=""1.0""?>\n<Clock xmlns:dt=""urn:schemas-microsoft-com:datatypes""><Description dt:dt=""string"">E-Prime Primary Realtime Clock</Description><StartTime><Timestamp dt:dt=""int"">0</Timestamp><DateUtc dt:dt=""string"">2018-10-18T20:20:32Z</DateUtc></StartTime><FrequencyChanges><FrequencyChange><Frequency dt:dt=""r8"">3215244</Frequency><Timestamp dt:dt=""r8"">7447884124528</Timestamp><Current dt:dt=""r8"">0</Current><DateUtc dt:dt=""string"">2018-10-18T20:20:32Z</DateUtc></FrequencyChange></FrequencyChanges></Clock>\n",KW_Experiment5A-34-1,59.944,1.0.0.105,1,411456035,Professional,2.0.10.353,2.0.10.353,10/18/2018,10/18/2018 20:20,16:20:32,2.0.10.248,3,2,1,3,,,,,,,,TrainingProc,BlockList,27,2,Distractor1.bmp,1,0,,0,1,564114,401,,0,0,cyan,400,1,400,,horizontal,cyan,Distractor1.bmp,purple,Distractor1.bmp,yellow,Distractor1.bmp,red,Target2.bmp,blue,Distractor1.bmp,lime,Distractor2.bmp,,,,TrialProc,4,TrainingTrialList,1,2,-999999,1,564515,0,2,663,565178,Target2.bmp,red,2,,,,10,4,75
KW_Experiment5A,34,1,"<?xml version=""1.0""?>\n<Clock xmlns:dt=""urn:schemas-microsoft-com:datatypes""><Description dt:dt=""string"">E-Prime Primary Realtime Clock</Description><StartTime><Timestamp dt:dt=""int"">0</Timestamp><DateUtc dt:dt=""string"">2018-10-18T20:20:32Z</DateUtc></StartTime><FrequencyChanges><FrequencyChange><Frequency dt:dt=""r8"">3215244</Frequency><Timestamp dt:dt=""r8"">7447884124528</Timestamp><Current dt:dt=""r8"">0</Current><DateUtc dt:dt=""string"">2018-10-18T20:20:32Z</DateUtc></FrequencyChange></FrequencyChanges></Clock>\n",KW_Experiment5A-34-1,59.944,1.0.0.105,1,411456035,Professional,2.0.10.353,2.0.10.353,10/18/2018,10/18/2018 20:20,16:20:32,2.0.10.248,3,2,1,3,,,,,,,,TrainingProc,BlockList,28,2,Distractor1.bmp,1,0,,0,1,566200,500,,0,0,yellow,500,2,500,2,horizontal,yellow,Distractor2.bmp,cyan,Distractor1.bmp,lime,Target2.bmp,blue,Distractor1.bmp,purple,Distractor1.bmp,red,Distractor2.bmp,,,,TrialProc,,TrainingTrialList,1,2,-999999,0,566700,0,2,974,567674,Target2.bmp,lime,2,,,,3,4,76
KW_Experiment5A,34,1,"<?xml version=""1.0""?>\n<Clock xmlns:dt=""urn:schemas-microsoft-com:datatypes""><Description dt:dt=""string"">E-Prime Primary Realtime Clock</Description><StartTime><Timestamp dt:dt=""int"">0</Timestamp><DateUtc dt:dt=""string"">2018-10-18T20:20:32Z</DateUtc></StartTime><FrequencyChanges><FrequencyChange><Frequency dt:dt=""r8"">3215244</Frequency><Timestamp dt:dt=""r8"">7447884124528</Timestamp><Current dt:dt=""r8"">0</Current><DateUtc dt:dt=""string"">2018-10-18T20:20:32Z</DateUtc></FrequencyChange></FrequencyChanges></Clock>\n",KW_Experiment5A-34-1,59.944,1.0.0.105,1,411456035,Professional,2.0.10.353,2.0.10.353,10/18/2018,10/18/2018 20:20,16:20:32,2.0.10.248,3,2,1,3,,,,,,,,TrainingProc,BlockList,29,2,Distractor1.bmp,1,0,,0,1,568685,501,,0,0,purple,500,2,500,5,horizontal,lime,Target2.bmp,purple,Distractor1.bmp,blue,Distractor1.bmp,red,Distractor1.bmp,yellow,Distractor2.bmp,cyan,Distractor1.bmp,,,,TrialProc,,TrainingTrialList,1,2,-999999,1,569186,0,2,584,569770,Target2.bmp,lime,2,,,,1,4,77
KW_Experiment5A,34,1,"<?xml version=""1.0""?>\n<Clock xmlns:dt=""urn:schemas-microsoft-com:datatypes""><Description dt:dt=""string"">E-Prime Primary Realtime Clock</Description><StartTime><Timestamp dt:dt=""int"">0</Timestamp><DateUtc dt:dt=""string"">2018-10-18T20:20:32Z</DateUtc></StartTime><FrequencyChanges><FrequencyChange><Frequency dt:dt=""r8"">3215244</Frequency><Timestamp dt:dt=""r8"">7447884124528</Timestamp><Current dt:dt=""r8"">0</Current><DateUtc dt:dt=""string"">2018-10-18T20:20:32Z</DateUtc></FrequencyChange></FrequencyChanges></Clock>\n",KW_Experiment5A-34-1,59.944,1.0.0.105,1,411456035,Professional,2.0.10.353,2.0.10.353,10/18/2018,10/18/2018 20:20,16:20:32,2.0.10.248,3,2,1,3,,,,,,,,TrainingProc,BlockList,30,2,Distractor1.bmp,1,0,,0,1,570787,401,,0,0,yellow,400,1,400,,horizontal,red,Target2.bmp,lime,Distractor1.bmp,cyan,Distractor1.bmp,blue,Distractor1.bmp,purple,Distractor1.bmp,yellow,Distractor2.bmp,,,,TrialProc,2,TrainingTrialList,1,2,-999999,1,571188,0,2,598,571786,Target2.bmp,red,2,,,,7,4,78
KW_Experiment5A,34,1,"<?xml version=""1.0""?>\n<Clock xmlns:dt=""urn:schemas-microsoft-com:datatypes""><Description dt:dt=""string"">E-Prime Primary Realtime Clock</Description><StartTime><Timestamp dt:dt=""int"">0</Timestamp><DateUtc dt:dt=""string"">2018-10-18T20:20:32Z</DateUtc></StartTime><FrequencyChanges><FrequencyChange><Frequency dt:dt=""r8"">3215244</Frequency><Timestamp dt:dt=""r8"">7447884124528</Timestamp><Current dt:dt=""r8"">0</Current><DateUtc dt:dt=""string"">2018-10-18T20:20:32Z</DateUtc></FrequencyChange></FrequencyChanges></Clock>\n",KW_Experiment5A-34-1,59.944,1.0.0.105,1,411456035,Professional,2.0.10.353,2.0.10.353,10/18/2018,10/18/2018 20:20,16:20:32,2.0.10.248,3,2,1,3,,,,,,,,TrainingProc,BlockList,31,2,Distractor1.bmp,1,0,,0,1,572806,500,,0,0,yellow,500,2,500,2,horizontal,yellow,Distractor2.bmp,lime,Target2.bmp,purple,Distractor1.bmp,blue,Distractor1.bmp,red,Distractor1.bmp,cyan,Distractor2.bmp,,,,TrialProc,,TrainingTrialList,1,2,-999999,0,573306,0,2,464,573770,Target2.bmp,lime,2,,,,2,4,79
KW_Experiment5A,34,1,"<?xml version=""1.0""?>\n<Clock xmlns:dt=""urn:schemas-microsoft-com:datatypes""><Description dt:dt=""string"">E-Prime Primary Realtime Clock</Description><StartTime><Timestamp dt:dt=""int"">0</Timestamp><DateUtc dt:dt=""string"">2018-10-18T20:20:32Z</DateUtc></StartTime><FrequencyChanges><FrequencyChange><Frequency dt:dt=""r8"">3215244</Frequency><Timestamp dt:dt=""r8"">7447884124528</Timestamp><Current dt:dt=""r8"">0</Current><DateUtc dt:dt=""string"">2018-10-18T20:20:32Z</DateUtc></FrequencyChange></FrequencyChanges></Clock>\n",KW_Experiment5A-34-1,59.944,1.0.0.105,1,411456035,Professional,2.0.10.353,2.0.10.353,10/18/2018,10/18/2018 20:20,16:20:32,2.0.10.248,3,2,1,3,,,,,,,,TrainingProc,BlockList,32,2,Distractor1.bmp,1,0,,0,1,574791,500,,0,0,purple,500,2,500,5,horizontal,purple,Distractor2.bmp,red,Distractor1.bmp,blue,Distractor2.bmp,lime,Target2.bmp,yellow,Distractor1.bmp,cyan,Distractor2.bmp,,,,TrialProc,,TrainingTrialList,1,2,-999999,0,575291,0,2,559,575850,Target2.bmp,lime,2,,,,4,4,80
KW_Experiment5A,34,1,"<?xml version=""1.0""?>\n<Clock xmlns:dt=""urn:schemas-microsoft-com:datatypes""><Description dt:dt=""string"">E-Prime Primary Realtime Clock</Description><StartTime><Timestamp dt:dt=""int"">0</Timestamp><DateUtc dt:dt=""string"">2018-10-18T20:20:32Z</DateUtc></StartTime><FrequencyChanges><FrequencyChange><Frequency dt:dt=""r8"">3215244</Frequency><Timestamp dt:dt=""r8"">7447884124528</Timestamp><Current dt:dt=""r8"">0</Current><DateUtc dt:dt=""string"">2018-10-18T20:20:32Z</DateUtc></FrequencyChange></FrequencyChanges></Clock>\n",KW_Experiment5A-34-1,59.944,1.0.0.105,1,411456035,Professional,2.0.10.353,2.0.10.353,10/18/2018,10/18/2018 20:20,16:20:32,2.0.10.248,3,2,1,3,,,,,,,,TrainingProc,BlockList,33,1,Distractor2.bmp,2,0,,0,0,576859,401,,0,0,purple,400,1,400,5,vertical,purple,Distractor1.bmp,yellow,Distractor2.bmp,cyan,Distractor1.bmp,blue,Distractor2.bmp,lime,Target1.bmp,red,Distractor2.bmp,,,,TrialProc,,TrainingTrialList,1,1,-999999,1,577260,0,1,622,577882,Target1.bmp,lime,1,,,,5,4,81
KW_Experiment5A,34,1,"<?xml version=""1.0""?>\n<Clock xmlns:dt=""urn:schemas-microsoft-com:datatypes""><Description dt:dt=""string"">E-Prime Primary Realtime Clock</Description><StartTime><Timestamp dt:dt=""int"">0</Timestamp><DateUtc dt:dt=""string"">2018-10-18T20:20:32Z</DateUtc></StartTime><FrequencyChanges><FrequencyChange><Frequency dt:dt=""r8"">3215244</Frequency><Timestamp dt:dt=""r8"">7447884124528</Timestamp><Current dt:dt=""r8"">0</Current><DateUtc dt:dt=""string"">2018-10-18T20:20:32Z</DateUtc></FrequencyChange></FrequencyChanges></Clock>\n",KW_Experiment5A-34-1,59.944,1.0.0.105,1,411456035,Professional,2.0.10.353,2.0.10.353,10/18/2018,10/18/2018 20:20,16:20:32,2.0.10.248,3,2,1,3,,,,,,,,TrainingProc,BlockList,34,2,Distractor2.bmp,2,0,,0,1,578895,500,,0,0,purple,500,2,500,5,horizontal,purple,Distractor1.bmp,red,Distractor2.bmp,lime,Target2.bmp,yellow,Distractor2.bmp,blue,Distractor1.bmp,cyan,Distractor1.bmp,,,,TrialProc,,TrainingTrialList,1,2,-999999,0,579395,0,2,495,579890,Target2.bmp,lime,2,,,,3,4,82
KW_Experiment5A,34,1,"<?xml version=""1.0""?>\n<Clock xmlns:dt=""urn:schemas-microsoft-com:datatypes""><Description dt:dt=""string"">E-Prime Primary Realtime Clock</Description><StartTime><Timestamp dt:dt=""int"">0</Timestamp><DateUtc dt:dt=""string"">2018-10-18T20:20:32Z</DateUtc></StartTime><FrequencyChanges><FrequencyChange><Frequency dt:dt=""r8"">3215244</Frequency><Timestamp dt:dt=""r8"">7447884124528</Timestamp><Current dt:dt=""r8"">0</Current><DateUtc dt:dt=""string"">2018-10-18T20:20:32Z</DateUtc></FrequencyChange></FrequencyChanges></Clock>\n",KW_Experiment5A-34-1,59.944,1.0.0.105,1,411456035,Professional,2.0.10.353,2.0.10.353,10/18/2018,10/18/2018 20:20,16:20:32,2.0.10.248,3,2,1,3,,,,,,,,TrainingProc,BlockList,35,2,Distractor1.bmp,1,0,,0,1,580913,601,,0,0,yellow,600,3,600,2,horizontal,yellow,Distractor1.bmp,red,Distractor1.bmp,blue,Distractor1.bmp,cyan,Distractor2.bmp,purple,Distractor1.bmp,lime,Target2.bmp,,,,TrialProc,,TrainingTrialList,1,2,-999999,1,581514,0,2,576,582090,Target2.bmp,lime,2,,,,6,4,83
KW_Experiment5A,34,1,"<?xml version=""1.0""?>\n<Clock xmlns:dt=""urn:schemas-microsoft-com:datatypes""><Description dt:dt=""string"">E-Prime Primary Realtime Clock</Description><StartTime><Timestamp dt:dt=""int"">0</Timestamp><DateUtc dt:dt=""string"">2018-10-18T20:20:32Z</DateUtc></StartTime><FrequencyChanges><FrequencyChange><Frequency dt:dt=""r8"">3215244</Frequency><Timestamp dt:dt=""r8"">7447884124528</Timestamp><Current dt:dt=""r8"">0</Current><DateUtc dt:dt=""string"">2018-10-18T20:20:32Z</DateUtc></FrequencyChange></FrequencyChanges></Clock>\n",KW_Experiment5A-34-1,59.944,1.0.0.105,1,411456035,Professional,2.0.10.353,2.0.10.353,10/18/2018,10/18/2018 20:20,16:20:32,2.0.10.248,3,2,1,3,,,,,,,,TrainingProc,BlockList,36,1,Distractor2.bmp,2,0,,0,1,583115,401,,0,0,purple,400,1,400,5,vertical,lime,Target1.bmp,purple,Distractor2.bmp,cyan,Distractor2.bmp,red,Distractor1.bmp,yellow,Distractor2.bmp,blue,Distractor1.bmp,,,,TrialProc,,TrainingTrialList,1,1,-999999,1,583516,0,1,670,584186,Target1.bmp,lime,1,,,,1,4,84
KW_Experiment5A,34,1,"<?xml version=""1.0""?>\n<Clock xmlns:dt=""urn:schemas-microsoft-com:datatypes""><Description dt:dt=""string"">E-Prime Primary Realtime Clock</Description><StartTime><Timestamp dt:dt=""int"">0</Timestamp><DateUtc dt:dt=""string"">2018-10-18T20:20:32Z</DateUtc></StartTime><FrequencyChanges><FrequencyChange><Frequency dt:dt=""r8"">3215244</Frequency><Timestamp dt:dt=""r8"">7447884124528</Timestamp><Current dt:dt=""r8"">0</Current><DateUtc dt:dt=""string"">2018-10-18T20:20:32Z</DateUtc></FrequencyChange></FrequencyChanges></Clock>\n",KW_Experiment5A-34-1,59.944,1.0.0.105,1,411456035,Professional,2.0.10.353,2.0.10.353,10/18/2018,10/18/2018 20:20,16:20:32,2.0.10.248,3,2,1,3,,,,,,,,TrainingProc,BlockList,37,1,Distractor2.bmp,2,0,,1,0,585200,501,,0,0,blue,500,2,500,3,vertical,blue,Distractor1.bmp,yellow,Distractor2.bmp,red,Distractor1.bmp,lime,Target1.bmp,cyan,Distractor2.bmp,purple,Distractor2.bmp,,,,TrialProc,,TrainingTrialList,1,1,-999999,1,585701,0,1,813,586514,Target1.bmp,lime,1,,,,4,4,85
KW_Experiment5A,34,1,"<?xml version=""1.0""?>\n<Clock xmlns:dt=""urn:schemas-microsoft-com:datatypes""><Description dt:dt=""string"">E-Prime Primary Realtime Clock</Description><StartTime><Timestamp dt:dt=""int"">0</Timestamp><DateUtc dt:dt=""string"">2018-10-18T20:20:32Z</DateUtc></StartTime><FrequencyChanges><FrequencyChange><Frequency dt:dt=""r8"">3215244</Frequency><Timestamp dt:dt=""r8"">7447884124528</Timestamp><Current dt:dt=""r8"">0</Current><DateUtc dt:dt=""string"">2018-10-18T20:20:32Z</DateUtc></FrequencyChange></FrequencyChanges></Clock>\n",KW_Experiment5A-34-1,59.944,1.0.0.105,1,411456035,Professional,2.0.10.353,2.0.10.353,10/18/2018,10/18/2018 20:20,16:20:32,2.0.10.248,3,2,1,3,,,,,,,,TrainingProc,BlockList,38,2,Distractor1.bmp,1,0,,0,1,587536,600,,0,0,yellow,600,3,600,2,horizontal,yellow,Distractor1.bmp,blue,Distractor2.bmp,red,Distractor1.bmp,cyan,Distractor1.bmp,purple,Distractor2.bmp,lime,Target2.bmp,,,,TrialProc,,TrainingTrialList,1,2,-999999,0,588136,0,2,754,588890,Target2.bmp,lime,2,,,,6,4,86
KW_Experiment5A,34,1,"<?xml version=""1.0""?>\n<Clock xmlns:dt=""urn:schemas-microsoft-com:datatypes""><Description dt:dt=""string"">E-Prime Primary Realtime Clock</Description><StartTime><Timestamp dt:dt=""int"">0</Timestamp><DateUtc dt:dt=""string"">2018-10-18T20:20:32Z</DateUtc></StartTime><FrequencyChanges><FrequencyChange><Frequency dt:dt=""r8"">3215244</Frequency><Timestamp dt:dt=""r8"">7447884124528</Timestamp><Current dt:dt=""r8"">0</Current><DateUtc dt:dt=""string"">2018-10-18T20:20:32Z</DateUtc></FrequencyChange></FrequencyChanges></Clock>\n",KW_Experiment5A-34-1,59.944,1.0.0.105,1,411456035,Professional,2.0.10.353,2.0.10.353,10/18/2018,10/18/2018 20:20,16:20:32,2.0.10.248,3,2,1,3,,,,,,,,TrainingProc,BlockList,39,1,Distractor2.bmp,2,0,,0,1,589905,400,,0,0,blue,400,1,400,,vertical,blue,Distractor2.bmp,cyan,Distractor1.bmp,yellow,Distractor2.bmp,lime,Distractor2.bmp,red,Target1.bmp,purple,Distractor2.bmp,,,,TrialProc,3,TrainingTrialList,0,1,-999999,0,590305,0,2,825,591130,Target1.bmp,red,1,,,,11,4,87
KW_Experiment5A,34,1,"<?xml version=""1.0""?>\n<Clock xmlns:dt=""urn:schemas-microsoft-com:datatypes""><Description dt:dt=""string"">E-Prime Primary Realtime Clock</Description><StartTime><Timestamp dt:dt=""int"">0</Timestamp><DateUtc dt:dt=""string"">2018-10-18T20:20:32Z</DateUtc></StartTime><FrequencyChanges><FrequencyChange><Frequency dt:dt=""r8"">3215244</Frequency><Timestamp dt:dt=""r8"">7447884124528</Timestamp><Current dt:dt=""r8"">0</Current><DateUtc dt:dt=""string"">2018-10-18T20:20:32Z</DateUtc></FrequencyChange></FrequencyChanges></Clock>\n",KW_Experiment5A-34-1,59.944,1.0.0.105,1,411456035,Professional,2.0.10.353,2.0.10.353,10/18/2018,10/18/2018 20:20,16:20:32,2.0.10.248,3,2,1,3,,,,,,,,TrainingProc,BlockList,40,2,Distractor2.bmp,2,0,,0,1,592140,401,,0,0,blue,400,1,400,3,horizontal,blue,Distractor1.bmp,purple,Distractor2.bmp,red,Distractor2.bmp,lime,Target2.bmp,cyan,Distractor2.bmp,yellow,Distractor2.bmp,,,,TrialProc,,TrainingTrialList,1,2,-999999,1,592541,0,2,557,593098,Target2.bmp,lime,2,,,,4,4,88
KW_Experiment5A,34,1,"<?xml version=""1.0""?>\n<Clock xmlns:dt=""urn:schemas-microsoft-com:datatypes""><Description dt:dt=""string"">E-Prime Primary Realtime Clock</Description><StartTime><Timestamp dt:dt=""int"">0</Timestamp><DateUtc dt:dt=""string"">2018-10-18T20:20:32Z</DateUtc></StartTime><FrequencyChanges><FrequencyChange><Frequency dt:dt=""r8"">3215244</Frequency><Timestamp dt:dt=""r8"">7447884124528</Timestamp><Current dt:dt=""r8"">0</Current><DateUtc dt:dt=""string"">2018-10-18T20:20:32Z</DateUtc></FrequencyChange></FrequencyChanges></Clock>\n",KW_Experiment5A-34-1,59.944,1.0.0.105,1,411456035,Professional,2.0.10.353,2.0.10.353,10/18/2018,10/18/2018 20:20,16:20:32,2.0.10.248,3,2,1,3,,,,,,,,TrainingProc,BlockList,41,2,Distractor1.bmp,1,0,,0,1,594109,500,,0,0,lime,500,2,500,,horizontal,lime,Distractor1.bmp,yellow,Distractor1.bmp,cyan,Distractor1.bmp,blue,Distractor1.bmp,purple,Distractor1.bmp,red,Target2.bmp,,,,TrialProc,6,TrainingTrialList,1,2,-999999,0,594609,0,2,904,595513,Target2.bmp,red,2,,,,12,4,89
KW_Experiment5A,34,1,"<?xml version=""1.0""?>\n<Clock xmlns:dt=""urn:schemas-microsoft-com:datatypes""><Description dt:dt=""string"">E-Prime Primary Realtime Clock</Description><StartTime><Timestamp dt:dt=""int"">0</Timestamp><DateUtc dt:dt=""string"">2018-10-18T20:20:32Z</DateUtc></StartTime><FrequencyChanges><FrequencyChange><Frequency dt:dt=""r8"">3215244</Frequency><Timestamp dt:dt=""r8"">7447884124528</Timestamp><Current dt:dt=""r8"">0</Current><DateUtc dt:dt=""string"">2018-10-18T20:20:32Z</DateUtc></FrequencyChange></FrequencyChanges></Clock>\n",KW_Experiment5A-34-1,59.944,1.0.0.105,1,411456035,Professional,2.0.10.353,2.0.10.353,10/18/2018,10/18/2018 20:20,16:20:32,2.0.10.248,3,2,1,3,,,,,,,,TrainingProc,BlockList,42,2,Distractor2.bmp,2,0,,0,1,596528,600,,0,0,cyan,600,3,600,4,horizontal,cyan,Distractor2.bmp,blue,Distractor1.bmp,purple,Distractor2.bmp,red,Distractor2.bmp,lime,Target2.bmp,yellow,Distractor2.bmp,,,,TrialProc,,TrainingTrialList,0,2,-999999,0,597128,0,1,785,597913,Target2.bmp,lime,2,,,,5,4,90
