ExperimentName,Subject,Session,Clock.Information,DataFile.Basename,Display.RefreshRate,ExperimentVersion,Group,RandomSeed,RuntimeCapabilities,RuntimeVersion,RuntimeVersionExpected,SessionDate,SessionStartDateTimeUtc,SessionTime,StudioVersion,Block,BlockList,BlockList.Cycle,BlockList.Sample,PostTestQ1.RESP,PostTestQ1CJ.RESP,PostTestQ2.RESP,PostTestQ2CJ.RESP,PostTestQ3.RESP,PostTestQ3CJ.RESP,PostTestSlide.RESP,Procedure[Block],Running[Block],Trial,CorrectResponse,Distractor,DistractorList,Fixation.ACC,Fixation.CRESP,Fixation.DurationError,Fixation.OnsetDelay,Fixation.OnsetTime,Fixation.OnsetToOnsetTime,Fixation.RESP,Fixation.RT,Fixation.RTTime,ItemColor,Jitter,JitterList,JitterTime,Lime0List,Orientation,Pos1Color,Pos1Item,Pos2Color,Pos2Item,Pos3Color,Pos3Item,Pos4Color,Pos4Item,Pos5Color,Pos5Item,Pos6Color,Pos6Item,PracticeTrialList,PracticeTrialList.Cycle,PracticeTrialList.Sample,Procedure[Trial],Red0List,Running[Trial],Stimulus.ACC,Stimulus.CRESP,Stimulus.DurationError,Stimulus.OnsetDelay,Stimulus.OnsetTime,Stimulus.OnsetToOnsetTime,Stimulus.RESP,Stimulus.RT,Stimulus.RTTime,Target,TargetColor,TargetList,TestTrialList,TestTrialList.Cycle,TestTrialList.Sample,TrainingTrialList,TrainingTrialList.Cycle,TrainingTrialList.Sample
KW_Experiment5A,2,1,"<?xml version=""1.0""?>\n<Clock xmlns:dt=""urn:schemas-microsoft-com:datatypes""><Description dt:dt=""string"">E-Prime Primary Realtime Clock</Description><StartTime><Timestamp dt:dt=""int"">0</Timestamp><DateUtc dt:dt=""string"">2018-10-08T16:24:45Z</DateUtc></StartTime><FrequencyChanges><FrequencyChange><Frequency dt:dt=""r8"">3215244</Frequency><Timestamp dt:dt=""r8"">4624477576603</Timestamp><Current dt:dt=""r8"">0</Current><DateUtc dt:dt=""string"">2018-10-08T16:24:45Z</DateUtc></FrequencyChange></FrequencyChanges></Clock>\n",KW_Experiment5A-2-1,59.944,1.0.0.105,2,-1201557394,Professional,2.0.10.353,2.0.10.353,10/8/2018,10/8/2018 16:24,12:24:45,2.0.10.248,1,1,1,1,,,,,,,,PracticeProc,BlockList,1,1,Distractor2.bmp,2,0,,0,79,699883,400,,0,0,red,400,1,400,1,vertical,cyan,Distractor1.bmp,red,Distractor1.bmp,lime,Target1.bmp,purple,Distractor2.bmp,blue,Distractor1.bmp,yellow,Distractor2.bmp,3,1,1,TrialProc,,PracticeTrialList,1,1,-999999,0,700283,0,1,4033,704316,Target1.bmp,lime,1,,,,,,
KW_Experiment5A,2,1,"<?xml version=""1.0""?>\n<Clock xmlns:dt=""urn:schemas-microsoft-com:datatypes""><Description dt:dt=""string"">E-Prime Primary Realtime Clock</Description><StartTime><Timestamp dt:dt=""int"">0</Timestamp><DateUtc dt:dt=""string"">2018-10-08T16:24:45Z</DateUtc></StartTime><FrequencyChanges><FrequencyChange><Frequency dt:dt=""r8"">3215244</Frequency><Timestamp dt:dt=""r8"">4624477576603</Timestamp><Current dt:dt=""r8"">0</Current><DateUtc dt:dt=""string"">2018-10-08T16:24:45Z</DateUtc></FrequencyChange></FrequencyChanges></Clock>\n",KW_Experiment5A-2-1,59.944,1.0.0.105,2,-1201557394,Professional,2.0.10.353,2.0.10.353,10/8/2018,10/8/2018 16:24,12:24:45,2.0.10.248,1,1,1,1,,,,,,,,PracticeProc,BlockList,2,2,Distractor1.bmp,1,0,,0,1,705338,600,,0,0,blue,600,3,600,,horizontal,blue,Distractor2.bmp,red,Target2.bmp,yellow,Distractor1.bmp,lime,Distractor1.bmp,cyan,Distractor2.bmp,purple,Distractor2.bmp,2,1,2,TrialProc,3,PracticeTrialList,1,2,-999999,0,705938,0,2,874,706812,Target2.bmp,red,2,,,,,,
KW_Experiment5A,2,1,"<?xml version=""1.0""?>\n<Clock xmlns:dt=""urn:schemas-microsoft-com:datatypes""><Description dt:dt=""string"">E-Prime Primary Realtime Clock</Description><StartTime><Timestamp dt:dt=""int"">0</Timestamp><DateUtc dt:dt=""string"">2018-10-08T16:24:45Z</DateUtc></StartTime><FrequencyChanges><FrequencyChange><Frequency dt:dt=""r8"">3215244</Frequency><Timestamp dt:dt=""r8"">4624477576603</Timestamp><Current dt:dt=""r8"">0</Current><DateUtc dt:dt=""string"">2018-10-08T16:24:45Z</DateUtc></FrequencyChange></FrequencyChanges></Clock>\n",KW_Experiment5A-2-1,59.944,1.0.0.105,2,-1201557394,Professional,2.0.10.353,2.0.10.353,10/8/2018,10/8/2018 16:24,12:24:45,2.0.10.248,1,1,1,1,,,,,,,,PracticeProc,BlockList,3,1,Distractor2.bmp,2,0,,0,1,707823,401,,0,0,cyan,400,1,400,4,vertical,red,Distractor2.bmp,purple,Distractor2.bmp,blue,Distractor1.bmp,cyan,Distractor1.bmp,lime,Target1.bmp,yellow,Distractor2.bmp,5,1,3,TrialProc,,PracticeTrialList,1,1,-999999,1,708224,0,1,900,709124,Target1.bmp,lime,1,,,,,,
KW_Experiment5A,2,1,"<?xml version=""1.0""?>\n<Clock xmlns:dt=""urn:schemas-microsoft-com:datatypes""><Description dt:dt=""string"">E-Prime Primary Realtime Clock</Description><StartTime><Timestamp dt:dt=""int"">0</Timestamp><DateUtc dt:dt=""string"">2018-10-08T16:24:45Z</DateUtc></StartTime><FrequencyChanges><FrequencyChange><Frequency dt:dt=""r8"">3215244</Frequency><Timestamp dt:dt=""r8"">4624477576603</Timestamp><Current dt:dt=""r8"">0</Current><DateUtc dt:dt=""string"">2018-10-08T16:24:45Z</DateUtc></FrequencyChange></FrequencyChanges></Clock>\n",KW_Experiment5A-2-1,59.944,1.0.0.105,2,-1201557394,Professional,2.0.10.353,2.0.10.353,10/8/2018,10/8/2018 16:24,12:24:45,2.0.10.248,1,1,1,1,,,,,,,,PracticeProc,BlockList,4,2,Distractor1.bmp,1,0,,0,1,710142,601,,0,0,cyan,600,3,600,,horizontal,purple,Distractor1.bmp,blue,Distractor2.bmp,yellow,Distractor2.bmp,lime,Distractor2.bmp,cyan,Distractor2.bmp,red,Target2.bmp,6,1,4,TrialProc,4,PracticeTrialList,1,2,-999999,1,710743,0,2,973,711716,Target2.bmp,red,2,,,,,,
KW_Experiment5A,2,1,"<?xml version=""1.0""?>\n<Clock xmlns:dt=""urn:schemas-microsoft-com:datatypes""><Description dt:dt=""string"">E-Prime Primary Realtime Clock</Description><StartTime><Timestamp dt:dt=""int"">0</Timestamp><DateUtc dt:dt=""string"">2018-10-08T16:24:45Z</DateUtc></StartTime><FrequencyChanges><FrequencyChange><Frequency dt:dt=""r8"">3215244</Frequency><Timestamp dt:dt=""r8"">4624477576603</Timestamp><Current dt:dt=""r8"">0</Current><DateUtc dt:dt=""string"">2018-10-08T16:24:45Z</DateUtc></FrequencyChange></FrequencyChanges></Clock>\n",KW_Experiment5A-2-1,59.944,1.0.0.105,2,-1201557394,Professional,2.0.10.353,2.0.10.353,10/8/2018,10/8/2018 16:24,12:24:45,2.0.10.248,1,1,1,1,,,,,,,,PracticeProc,BlockList,5,2,Distractor2.bmp,2,0,,1,0,712744,401,,0,0,blue,400,1,400,,horizontal,purple,Distractor2.bmp,lime,Distractor2.bmp,blue,Distractor1.bmp,red,Target2.bmp,yellow,Distractor2.bmp,cyan,Distractor2.bmp,4,1,5,TrialProc,3,PracticeTrialList,1,2,-999999,1,713145,0,2,1931,715076,Target2.bmp,red,2,,,,,,
KW_Experiment5A,2,1,"<?xml version=""1.0""?>\n<Clock xmlns:dt=""urn:schemas-microsoft-com:datatypes""><Description dt:dt=""string"">E-Prime Primary Realtime Clock</Description><StartTime><Timestamp dt:dt=""int"">0</Timestamp><DateUtc dt:dt=""string"">2018-10-08T16:24:45Z</DateUtc></StartTime><FrequencyChanges><FrequencyChange><Frequency dt:dt=""r8"">3215244</Frequency><Timestamp dt:dt=""r8"">4624477576603</Timestamp><Current dt:dt=""r8"">0</Current><DateUtc dt:dt=""string"">2018-10-08T16:24:45Z</DateUtc></FrequencyChange></FrequencyChanges></Clock>\n",KW_Experiment5A-2-1,59.944,1.0.0.105,2,-1201557394,Professional,2.0.10.353,2.0.10.353,10/8/2018,10/8/2018 16:24,12:24:45,2.0.10.248,1,1,1,1,,,,,,,,PracticeProc,BlockList,6,1,Distractor1.bmp,1,0,,0,1,716098,400,,0,0,red,400,1,400,1,vertical,lime,Target1.bmp,purple,Distractor1.bmp,blue,Distractor2.bmp,cyan,Distractor1.bmp,yellow,Distractor1.bmp,red,Distractor1.bmp,1,1,6,TrialProc,,PracticeTrialList,1,1,-999999,0,716498,0,1,1242,717740,Target1.bmp,lime,1,,,,,,
KW_Experiment5A,2,1,"<?xml version=""1.0""?>\n<Clock xmlns:dt=""urn:schemas-microsoft-com:datatypes""><Description dt:dt=""string"">E-Prime Primary Realtime Clock</Description><StartTime><Timestamp dt:dt=""int"">0</Timestamp><DateUtc dt:dt=""string"">2018-10-08T16:24:45Z</DateUtc></StartTime><FrequencyChanges><FrequencyChange><Frequency dt:dt=""r8"">3215244</Frequency><Timestamp dt:dt=""r8"">4624477576603</Timestamp><Current dt:dt=""r8"">0</Current><DateUtc dt:dt=""string"">2018-10-08T16:24:45Z</DateUtc></FrequencyChange></FrequencyChanges></Clock>\n",KW_Experiment5A-2-1,59.944,1.0.0.105,2,-1201557394,Professional,2.0.10.353,2.0.10.353,10/8/2018,10/8/2018 16:24,12:24:45,2.0.10.248,2,2,1,2,,,,,,,,TrainingProc,BlockList,1,2,Distractor2.bmp,2,0,,0,22,724706,500,,0,0,purple,500,2,500,5,horizontal,purple,Distractor2.bmp,cyan,Distractor1.bmp,red,Distractor2.bmp,blue,Distractor1.bmp,lime,Target2.bmp,yellow,Distractor2.bmp,,,,TrialProc,,TrainingTrialList,0,2,-999999,0,725206,0,1,814,726020,Target2.bmp,lime,2,,,,5,2,1
KW_Experiment5A,2,1,"<?xml version=""1.0""?>\n<Clock xmlns:dt=""urn:schemas-microsoft-com:datatypes""><Description dt:dt=""string"">E-Prime Primary Realtime Clock</Description><StartTime><Timestamp dt:dt=""int"">0</Timestamp><DateUtc dt:dt=""string"">2018-10-08T16:24:45Z</DateUtc></StartTime><FrequencyChanges><FrequencyChange><Frequency dt:dt=""r8"">3215244</Frequency><Timestamp dt:dt=""r8"">4624477576603</Timestamp><Current dt:dt=""r8"">0</Current><DateUtc dt:dt=""string"">2018-10-08T16:24:45Z</DateUtc></FrequencyChange></FrequencyChanges></Clock>\n",KW_Experiment5A-2-1,59.944,1.0.0.105,2,-1201557394,Professional,2.0.10.353,2.0.10.353,10/8/2018,10/8/2018 16:24,12:24:45,2.0.10.248,2,2,1,2,,,,,,,,TrainingProc,BlockList,2,2,Distractor2.bmp,2,0,,0,1,727041,601,,0,0,yellow,600,3,600,,horizontal,yellow,Distractor1.bmp,red,Target2.bmp,lime,Distractor2.bmp,cyan,Distractor2.bmp,purple,Distractor1.bmp,blue,Distractor1.bmp,,,,TrialProc,2,TrainingTrialList,1,2,-999999,1,727642,0,2,834,728476,Target2.bmp,red,2,,,,8,2,2
KW_Experiment5A,2,1,"<?xml version=""1.0""?>\n<Clock xmlns:dt=""urn:schemas-microsoft-com:datatypes""><Description dt:dt=""string"">E-Prime Primary Realtime Clock</Description><StartTime><Timestamp dt:dt=""int"">0</Timestamp><DateUtc dt:dt=""string"">2018-10-08T16:24:45Z</DateUtc></StartTime><FrequencyChanges><FrequencyChange><Frequency dt:dt=""r8"">3215244</Frequency><Timestamp dt:dt=""r8"">4624477576603</Timestamp><Current dt:dt=""r8"">0</Current><DateUtc dt:dt=""string"">2018-10-08T16:24:45Z</DateUtc></FrequencyChange></FrequencyChanges></Clock>\n",KW_Experiment5A-2-1,59.944,1.0.0.105,2,-1201557394,Professional,2.0.10.353,2.0.10.353,10/8/2018,10/8/2018 16:24,12:24:45,2.0.10.248,2,2,1,2,,,,,,,,TrainingProc,BlockList,3,1,Distractor2.bmp,2,0,,0,1,729493,501,,0,0,purple,500,2,500,5,vertical,purple,Distractor1.bmp,blue,Distractor1.bmp,cyan,Distractor1.bmp,lime,Target1.bmp,yellow,Distractor2.bmp,red,Distractor1.bmp,,,,TrialProc,,TrainingTrialList,1,1,-999999,1,729994,0,1,1418,731412,Target1.bmp,lime,1,,,,4,2,3
KW_Experiment5A,2,1,"<?xml version=""1.0""?>\n<Clock xmlns:dt=""urn:schemas-microsoft-com:datatypes""><Description dt:dt=""string"">E-Prime Primary Realtime Clock</Description><StartTime><Timestamp dt:dt=""int"">0</Timestamp><DateUtc dt:dt=""string"">2018-10-08T16:24:45Z</DateUtc></StartTime><FrequencyChanges><FrequencyChange><Frequency dt:dt=""r8"">3215244</Frequency><Timestamp dt:dt=""r8"">4624477576603</Timestamp><Current dt:dt=""r8"">0</Current><DateUtc dt:dt=""string"">2018-10-08T16:24:45Z</DateUtc></FrequencyChange></FrequencyChanges></Clock>\n",KW_Experiment5A-2-1,59.944,1.0.0.105,2,-1201557394,Professional,2.0.10.353,2.0.10.353,10/8/2018,10/8/2018 16:24,12:24:45,2.0.10.248,2,2,1,2,,,,,,,,TrainingProc,BlockList,4,1,Distractor1.bmp,1,0,,0,1,732429,601,,0,0,yellow,600,3,600,,vertical,yellow,Distractor2.bmp,blue,Distractor2.bmp,red,Target1.bmp,cyan,Distractor1.bmp,purple,Distractor1.bmp,lime,Distractor1.bmp,,,,TrialProc,2,TrainingTrialList,0,1,-999999,1,733030,0,2,734,733764,Target1.bmp,red,1,,,,9,2,4
KW_Experiment5A,2,1,"<?xml version=""1.0""?>\n<Clock xmlns:dt=""urn:schemas-microsoft-com:datatypes""><Description dt:dt=""string"">E-Prime Primary Realtime Clock</Description><StartTime><Timestamp dt:dt=""int"">0</Timestamp><DateUtc dt:dt=""string"">2018-10-08T16:24:45Z</DateUtc></StartTime><FrequencyChanges><FrequencyChange><Frequency dt:dt=""r8"">3215244</Frequency><Timestamp dt:dt=""r8"">4624477576603</Timestamp><Current dt:dt=""r8"">0</Current><DateUtc dt:dt=""string"">2018-10-08T16:24:45Z</DateUtc></FrequencyChange></FrequencyChanges></Clock>\n",KW_Experiment5A-2-1,59.944,1.0.0.105,2,-1201557394,Professional,2.0.10.353,2.0.10.353,10/8/2018,10/8/2018 16:24,12:24:45,2.0.10.248,2,2,1,2,,,,,,,,TrainingProc,BlockList,5,2,Distractor2.bmp,2,0,,0,1,734782,500,,0,0,cyan,500,2,500,4,horizontal,cyan,Distractor2.bmp,yellow,Distractor2.bmp,red,Distractor1.bmp,purple,Distractor2.bmp,blue,Distractor2.bmp,lime,Target2.bmp,,,,TrialProc,,TrainingTrialList,0,2,-999999,0,735282,0,1,850,736132,Target2.bmp,lime,2,,,,6,2,5
KW_Experiment5A,2,1,"<?xml version=""1.0""?>\n<Clock xmlns:dt=""urn:schemas-microsoft-com:datatypes""><Description dt:dt=""string"">E-Prime Primary Realtime Clock</Description><StartTime><Timestamp dt:dt=""int"">0</Timestamp><DateUtc dt:dt=""string"">2018-10-08T16:24:45Z</DateUtc></StartTime><FrequencyChanges><FrequencyChange><Frequency dt:dt=""r8"">3215244</Frequency><Timestamp dt:dt=""r8"">4624477576603</Timestamp><Current dt:dt=""r8"">0</Current><DateUtc dt:dt=""string"">2018-10-08T16:24:45Z</DateUtc></FrequencyChange></FrequencyChanges></Clock>\n",KW_Experiment5A-2-1,59.944,1.0.0.105,2,-1201557394,Professional,2.0.10.353,2.0.10.353,10/8/2018,10/8/2018 16:24,12:24:45,2.0.10.248,2,2,1,2,,,,,,,,TrainingProc,BlockList,6,2,Distractor2.bmp,2,0,,0,1,737150,601,,0,0,purple,600,3,600,,horizontal,purple,Distractor2.bmp,blue,Distractor1.bmp,red,Target2.bmp,lime,Distractor2.bmp,cyan,Distractor2.bmp,yellow,Distractor1.bmp,,,,TrialProc,5,TrainingTrialList,1,2,-999999,1,737751,0,2,1029,738780,Target2.bmp,red,2,,,,9,2,6
KW_Experiment5A,2,1,"<?xml version=""1.0""?>\n<Clock xmlns:dt=""urn:schemas-microsoft-com:datatypes""><Description dt:dt=""string"">E-Prime Primary Realtime Clock</Description><StartTime><Timestamp dt:dt=""int"">0</Timestamp><DateUtc dt:dt=""string"">2018-10-08T16:24:45Z</DateUtc></StartTime><FrequencyChanges><FrequencyChange><Frequency dt:dt=""r8"">3215244</Frequency><Timestamp dt:dt=""r8"">4624477576603</Timestamp><Current dt:dt=""r8"">0</Current><DateUtc dt:dt=""string"">2018-10-08T16:24:45Z</DateUtc></FrequencyChange></FrequencyChanges></Clock>\n",KW_Experiment5A-2-1,59.944,1.0.0.105,2,-1201557394,Professional,2.0.10.353,2.0.10.353,10/8/2018,10/8/2018 16:24,12:24:45,2.0.10.248,2,2,1,2,,,,,,,,TrainingProc,BlockList,7,2,Distractor1.bmp,1,0,,0,1,739803,500,,0,0,cyan,500,2,500,,horizontal,cyan,Distractor1.bmp,blue,Distractor2.bmp,red,Target2.bmp,yellow,Distractor1.bmp,lime,Distractor2.bmp,purple,Distractor2.bmp,,,,TrialProc,4,TrainingTrialList,1,2,-999999,0,740303,0,2,781,741084,Target2.bmp,red,2,,,,9,2,7
KW_Experiment5A,2,1,"<?xml version=""1.0""?>\n<Clock xmlns:dt=""urn:schemas-microsoft-com:datatypes""><Description dt:dt=""string"">E-Prime Primary Realtime Clock</Description><StartTime><Timestamp dt:dt=""int"">0</Timestamp><DateUtc dt:dt=""string"">2018-10-08T16:24:45Z</DateUtc></StartTime><FrequencyChanges><FrequencyChange><Frequency dt:dt=""r8"">3215244</Frequency><Timestamp dt:dt=""r8"">4624477576603</Timestamp><Current dt:dt=""r8"">0</Current><DateUtc dt:dt=""string"">2018-10-08T16:24:45Z</DateUtc></FrequencyChange></FrequencyChanges></Clock>\n",KW_Experiment5A-2-1,59.944,1.0.0.105,2,-1201557394,Professional,2.0.10.353,2.0.10.353,10/8/2018,10/8/2018 16:24,12:24:45,2.0.10.248,2,2,1,2,,,,,,,,TrainingProc,BlockList,8,1,Distractor2.bmp,2,0,,0,1,742105,400,,0,0,blue,400,1,400,,vertical,blue,Distractor1.bmp,red,Target1.bmp,purple,Distractor2.bmp,yellow,Distractor1.bmp,cyan,Distractor2.bmp,lime,Distractor1.bmp,,,,TrialProc,3,TrainingTrialList,1,1,-999999,0,742505,0,1,707,743212,Target1.bmp,red,1,,,,8,2,8
KW_Experiment5A,2,1,"<?xml version=""1.0""?>\n<Clock xmlns:dt=""urn:schemas-microsoft-com:datatypes""><Description dt:dt=""string"">E-Prime Primary Realtime Clock</Description><StartTime><Timestamp dt:dt=""int"">0</Timestamp><DateUtc dt:dt=""string"">2018-10-08T16:24:45Z</DateUtc></StartTime><FrequencyChanges><FrequencyChange><Frequency dt:dt=""r8"">3215244</Frequency><Timestamp dt:dt=""r8"">4624477576603</Timestamp><Current dt:dt=""r8"">0</Current><DateUtc dt:dt=""string"">2018-10-08T16:24:45Z</DateUtc></FrequencyChange></FrequencyChanges></Clock>\n",KW_Experiment5A-2-1,59.944,1.0.0.105,2,-1201557394,Professional,2.0.10.353,2.0.10.353,10/8/2018,10/8/2018 16:24,12:24:45,2.0.10.248,2,2,1,2,,,,,,,,TrainingProc,BlockList,9,1,Distractor2.bmp,2,0,,0,1,744240,601,,0,0,cyan,600,3,600,,vertical,cyan,Distractor1.bmp,blue,Distractor1.bmp,purple,Distractor1.bmp,lime,Distractor2.bmp,red,Target1.bmp,yellow,Distractor2.bmp,,,,TrialProc,4,TrainingTrialList,1,1,-999999,1,744841,0,1,771,745612,Target1.bmp,red,1,,,,11,2,9
KW_Experiment5A,2,1,"<?xml version=""1.0""?>\n<Clock xmlns:dt=""urn:schemas-microsoft-com:datatypes""><Description dt:dt=""string"">E-Prime Primary Realtime Clock</Description><StartTime><Timestamp dt:dt=""int"">0</Timestamp><DateUtc dt:dt=""string"">2018-10-08T16:24:45Z</DateUtc></StartTime><FrequencyChanges><FrequencyChange><Frequency dt:dt=""r8"">3215244</Frequency><Timestamp dt:dt=""r8"">4624477576603</Timestamp><Current dt:dt=""r8"">0</Current><DateUtc dt:dt=""string"">2018-10-08T16:24:45Z</DateUtc></FrequencyChange></FrequencyChanges></Clock>\n",KW_Experiment5A-2-1,59.944,1.0.0.105,2,-1201557394,Professional,2.0.10.353,2.0.10.353,10/8/2018,10/8/2018 16:24,12:24:45,2.0.10.248,2,2,1,2,,,,,,,,TrainingProc,BlockList,10,2,Distractor1.bmp,1,0,,0,1,746626,400,,0,0,blue,400,1,400,,horizontal,blue,Distractor2.bmp,cyan,Distractor2.bmp,purple,Distractor1.bmp,red,Target2.bmp,lime,Distractor1.bmp,yellow,Distractor1.bmp,,,,TrialProc,3,TrainingTrialList,1,2,-999999,0,747026,0,2,1170,748196,Target2.bmp,red,2,,,,10,2,10
KW_Experiment5A,2,1,"<?xml version=""1.0""?>\n<Clock xmlns:dt=""urn:schemas-microsoft-com:datatypes""><Description dt:dt=""string"">E-Prime Primary Realtime Clock</Description><StartTime><Timestamp dt:dt=""int"">0</Timestamp><DateUtc dt:dt=""string"">2018-10-08T16:24:45Z</DateUtc></StartTime><FrequencyChanges><FrequencyChange><Frequency dt:dt=""r8"">3215244</Frequency><Timestamp dt:dt=""r8"">4624477576603</Timestamp><Current dt:dt=""r8"">0</Current><DateUtc dt:dt=""string"">2018-10-08T16:24:45Z</DateUtc></FrequencyChange></FrequencyChanges></Clock>\n",KW_Experiment5A-2-1,59.944,1.0.0.105,2,-1201557394,Professional,2.0.10.353,2.0.10.353,10/8/2018,10/8/2018 16:24,12:24:45,2.0.10.248,2,2,1,2,,,,,,,,TrainingProc,BlockList,11,2,Distractor2.bmp,2,0,,1,1,749211,601,,0,0,blue,600,3,600,3,horizontal,blue,Distractor1.bmp,red,Distractor1.bmp,lime,Target2.bmp,purple,Distractor2.bmp,cyan,Distractor1.bmp,yellow,Distractor2.bmp,,,,TrialProc,,TrainingTrialList,1,2,-999999,1,749812,0,2,1216,751028,Target2.bmp,lime,2,,,,3,2,11
KW_Experiment5A,2,1,"<?xml version=""1.0""?>\n<Clock xmlns:dt=""urn:schemas-microsoft-com:datatypes""><Description dt:dt=""string"">E-Prime Primary Realtime Clock</Description><StartTime><Timestamp dt:dt=""int"">0</Timestamp><DateUtc dt:dt=""string"">2018-10-08T16:24:45Z</DateUtc></StartTime><FrequencyChanges><FrequencyChange><Frequency dt:dt=""r8"">3215244</Frequency><Timestamp dt:dt=""r8"">4624477576603</Timestamp><Current dt:dt=""r8"">0</Current><DateUtc dt:dt=""string"">2018-10-08T16:24:45Z</DateUtc></FrequencyChange></FrequencyChanges></Clock>\n",KW_Experiment5A-2-1,59.944,1.0.0.105,2,-1201557394,Professional,2.0.10.353,2.0.10.353,10/8/2018,10/8/2018 16:24,12:24:45,2.0.10.248,2,2,1,2,,,,,,,,TrainingProc,BlockList,12,2,Distractor2.bmp,2,0,,0,1,752047,601,,0,0,cyan,600,3,600,,horizontal,cyan,Distractor2.bmp,lime,Distractor2.bmp,blue,Distractor1.bmp,red,Target2.bmp,yellow,Distractor2.bmp,purple,Distractor2.bmp,,,,TrialProc,4,TrainingTrialList,1,2,-999999,1,752648,0,2,1140,753788,Target2.bmp,red,2,,,,10,2,12
KW_Experiment5A,2,1,"<?xml version=""1.0""?>\n<Clock xmlns:dt=""urn:schemas-microsoft-com:datatypes""><Description dt:dt=""string"">E-Prime Primary Realtime Clock</Description><StartTime><Timestamp dt:dt=""int"">0</Timestamp><DateUtc dt:dt=""string"">2018-10-08T16:24:45Z</DateUtc></StartTime><FrequencyChanges><FrequencyChange><Frequency dt:dt=""r8"">3215244</Frequency><Timestamp dt:dt=""r8"">4624477576603</Timestamp><Current dt:dt=""r8"">0</Current><DateUtc dt:dt=""string"">2018-10-08T16:24:45Z</DateUtc></FrequencyChange></FrequencyChanges></Clock>\n",KW_Experiment5A-2-1,59.944,1.0.0.105,2,-1201557394,Professional,2.0.10.353,2.0.10.353,10/8/2018,10/8/2018 16:24,12:24:45,2.0.10.248,2,2,1,2,,,,,,,,TrainingProc,BlockList,13,1,Distractor1.bmp,1,0,,0,1,754800,500,,0,0,cyan,500,2,500,,vertical,cyan,Distractor2.bmp,lime,Distractor2.bmp,purple,Distractor2.bmp,blue,Distractor1.bmp,red,Target1.bmp,yellow,Distractor1.bmp,,,,TrialProc,4,TrainingTrialList,1,1,-999999,0,755300,0,1,648,755948,Target1.bmp,red,1,,,,11,2,13
KW_Experiment5A,2,1,"<?xml version=""1.0""?>\n<Clock xmlns:dt=""urn:schemas-microsoft-com:datatypes""><Description dt:dt=""string"">E-Prime Primary Realtime Clock</Description><StartTime><Timestamp dt:dt=""int"">0</Timestamp><DateUtc dt:dt=""string"">2018-10-08T16:24:45Z</DateUtc></StartTime><FrequencyChanges><FrequencyChange><Frequency dt:dt=""r8"">3215244</Frequency><Timestamp dt:dt=""r8"">4624477576603</Timestamp><Current dt:dt=""r8"">0</Current><DateUtc dt:dt=""string"">2018-10-08T16:24:45Z</DateUtc></FrequencyChange></FrequencyChanges></Clock>\n",KW_Experiment5A-2-1,59.944,1.0.0.105,2,-1201557394,Professional,2.0.10.353,2.0.10.353,10/8/2018,10/8/2018 16:24,12:24:45,2.0.10.248,2,2,1,2,,,,,,,,TrainingProc,BlockList,14,1,Distractor1.bmp,1,0,,0,1,756969,500,,0,0,purple,500,2,500,,vertical,purple,Distractor2.bmp,blue,Distractor2.bmp,cyan,Distractor1.bmp,red,Target1.bmp,lime,Distractor1.bmp,yellow,Distractor1.bmp,,,,TrialProc,5,TrainingTrialList,1,1,-999999,0,757469,0,1,647,758116,Target1.bmp,red,1,,,,10,2,14
KW_Experiment5A,2,1,"<?xml version=""1.0""?>\n<Clock xmlns:dt=""urn:schemas-microsoft-com:datatypes""><Description dt:dt=""string"">E-Prime Primary Realtime Clock</Description><StartTime><Timestamp dt:dt=""int"">0</Timestamp><DateUtc dt:dt=""string"">2018-10-08T16:24:45Z</DateUtc></StartTime><FrequencyChanges><FrequencyChange><Frequency dt:dt=""r8"">3215244</Frequency><Timestamp dt:dt=""r8"">4624477576603</Timestamp><Current dt:dt=""r8"">0</Current><DateUtc dt:dt=""string"">2018-10-08T16:24:45Z</DateUtc></FrequencyChange></FrequencyChanges></Clock>\n",KW_Experiment5A-2-1,59.944,1.0.0.105,2,-1201557394,Professional,2.0.10.353,2.0.10.353,10/8/2018,10/8/2018 16:24,12:24:45,2.0.10.248,2,2,1,2,,,,,,,,TrainingProc,BlockList,15,1,Distractor2.bmp,2,0,,0,1,759137,401,,0,0,blue,400,1,400,3,vertical,lime,Target1.bmp,blue,Distractor2.bmp,red,Distractor2.bmp,yellow,Distractor2.bmp,purple,Distractor2.bmp,cyan,Distractor2.bmp,,,,TrialProc,,TrainingTrialList,1,1,-999999,1,759538,0,1,1034,760572,Target1.bmp,lime,1,,,,1,2,15
KW_Experiment5A,2,1,"<?xml version=""1.0""?>\n<Clock xmlns:dt=""urn:schemas-microsoft-com:datatypes""><Description dt:dt=""string"">E-Prime Primary Realtime Clock</Description><StartTime><Timestamp dt:dt=""int"">0</Timestamp><DateUtc dt:dt=""string"">2018-10-08T16:24:45Z</DateUtc></StartTime><FrequencyChanges><FrequencyChange><Frequency dt:dt=""r8"">3215244</Frequency><Timestamp dt:dt=""r8"">4624477576603</Timestamp><Current dt:dt=""r8"">0</Current><DateUtc dt:dt=""string"">2018-10-08T16:24:45Z</DateUtc></FrequencyChange></FrequencyChanges></Clock>\n",KW_Experiment5A-2-1,59.944,1.0.0.105,2,-1201557394,Professional,2.0.10.353,2.0.10.353,10/8/2018,10/8/2018 16:24,12:24:45,2.0.10.248,2,2,1,2,,,,,,,,TrainingProc,BlockList,16,1,Distractor2.bmp,2,0,,1,0,761589,501,,0,0,lime,500,2,500,,vertical,red,Target1.bmp,cyan,Distractor2.bmp,purple,Distractor2.bmp,blue,Distractor1.bmp,yellow,Distractor2.bmp,lime,Distractor2.bmp,,,,TrialProc,6,TrainingTrialList,1,1,-999999,1,762090,0,1,698,762788,Target1.bmp,red,1,,,,7,2,16
KW_Experiment5A,2,1,"<?xml version=""1.0""?>\n<Clock xmlns:dt=""urn:schemas-microsoft-com:datatypes""><Description dt:dt=""string"">E-Prime Primary Realtime Clock</Description><StartTime><Timestamp dt:dt=""int"">0</Timestamp><DateUtc dt:dt=""string"">2018-10-08T16:24:45Z</DateUtc></StartTime><FrequencyChanges><FrequencyChange><Frequency dt:dt=""r8"">3215244</Frequency><Timestamp dt:dt=""r8"">4624477576603</Timestamp><Current dt:dt=""r8"">0</Current><DateUtc dt:dt=""string"">2018-10-08T16:24:45Z</DateUtc></FrequencyChange></FrequencyChanges></Clock>\n",KW_Experiment5A-2-1,59.944,1.0.0.105,2,-1201557394,Professional,2.0.10.353,2.0.10.353,10/8/2018,10/8/2018 16:24,12:24:45,2.0.10.248,2,2,1,2,,,,,,,,TrainingProc,BlockList,17,1,Distractor1.bmp,1,0,,0,1,763808,401,,0,0,cyan,400,1,400,,vertical,cyan,Distractor1.bmp,blue,Distractor1.bmp,lime,Distractor1.bmp,purple,Distractor1.bmp,red,Target1.bmp,yellow,Distractor1.bmp,,,,TrialProc,4,TrainingTrialList,1,1,-999999,1,764209,0,1,635,764844,Target1.bmp,red,1,,,,11,2,17
KW_Experiment5A,2,1,"<?xml version=""1.0""?>\n<Clock xmlns:dt=""urn:schemas-microsoft-com:datatypes""><Description dt:dt=""string"">E-Prime Primary Realtime Clock</Description><StartTime><Timestamp dt:dt=""int"">0</Timestamp><DateUtc dt:dt=""string"">2018-10-08T16:24:45Z</DateUtc></StartTime><FrequencyChanges><FrequencyChange><Frequency dt:dt=""r8"">3215244</Frequency><Timestamp dt:dt=""r8"">4624477576603</Timestamp><Current dt:dt=""r8"">0</Current><DateUtc dt:dt=""string"">2018-10-08T16:24:45Z</DateUtc></FrequencyChange></FrequencyChanges></Clock>\n",KW_Experiment5A-2-1,59.944,1.0.0.105,2,-1201557394,Professional,2.0.10.353,2.0.10.353,10/8/2018,10/8/2018 16:24,12:24:45,2.0.10.248,2,2,1,2,,,,,,,,TrainingProc,BlockList,18,2,Distractor1.bmp,1,0,,0,1,765860,501,,0,0,red,500,2,500,1,horizontal,red,Distractor2.bmp,lime,Target2.bmp,purple,Distractor1.bmp,blue,Distractor2.bmp,yellow,Distractor1.bmp,cyan,Distractor2.bmp,,,,TrialProc,,TrainingTrialList,1,2,-999999,1,766361,0,2,1219,767580,Target2.bmp,lime,2,,,,2,2,18
KW_Experiment5A,2,1,"<?xml version=""1.0""?>\n<Clock xmlns:dt=""urn:schemas-microsoft-com:datatypes""><Description dt:dt=""string"">E-Prime Primary Realtime Clock</Description><StartTime><Timestamp dt:dt=""int"">0</Timestamp><DateUtc dt:dt=""string"">2018-10-08T16:24:45Z</DateUtc></StartTime><FrequencyChanges><FrequencyChange><Frequency dt:dt=""r8"">3215244</Frequency><Timestamp dt:dt=""r8"">4624477576603</Timestamp><Current dt:dt=""r8"">0</Current><DateUtc dt:dt=""string"">2018-10-08T16:24:45Z</DateUtc></FrequencyChange></FrequencyChanges></Clock>\n",KW_Experiment5A-2-1,59.944,1.0.0.105,2,-1201557394,Professional,2.0.10.353,2.0.10.353,10/8/2018,10/8/2018 16:24,12:24:45,2.0.10.248,2,2,1,2,,,,,,,,TrainingProc,BlockList,19,1,Distractor2.bmp,2,0,,0,1,768596,601,,0,0,purple,600,3,600,,vertical,red,Target1.bmp,lime,Distractor2.bmp,blue,Distractor2.bmp,yellow,Distractor2.bmp,cyan,Distractor2.bmp,purple,Distractor2.bmp,,,,TrialProc,5,TrainingTrialList,1,1,-999999,1,769197,0,1,735,769932,Target1.bmp,red,1,,,,7,2,19
KW_Experiment5A,2,1,"<?xml version=""1.0""?>\n<Clock xmlns:dt=""urn:schemas-microsoft-com:datatypes""><Description dt:dt=""string"">E-Prime Primary Realtime Clock</Description><StartTime><Timestamp dt:dt=""int"">0</Timestamp><DateUtc dt:dt=""string"">2018-10-08T16:24:45Z</DateUtc></StartTime><FrequencyChanges><FrequencyChange><Frequency dt:dt=""r8"">3215244</Frequency><Timestamp dt:dt=""r8"">4624477576603</Timestamp><Current dt:dt=""r8"">0</Current><DateUtc dt:dt=""string"">2018-10-08T16:24:45Z</DateUtc></FrequencyChange></FrequencyChanges></Clock>\n",KW_Experiment5A-2-1,59.944,1.0.0.105,2,-1201557394,Professional,2.0.10.353,2.0.10.353,10/8/2018,10/8/2018 16:24,12:24:45,2.0.10.248,2,2,1,2,,,,,,,,TrainingProc,BlockList,20,2,Distractor2.bmp,2,0,,0,1,770948,401,,0,0,yellow,400,1,400,,horizontal,yellow,Distractor2.bmp,blue,Distractor2.bmp,cyan,Distractor2.bmp,purple,Distractor1.bmp,lime,Distractor2.bmp,red,Target2.bmp,,,,TrialProc,2,TrainingTrialList,0,2,-999999,1,771349,0,1,775,772124,Target2.bmp,red,2,,,,12,2,20
KW_Experiment5A,2,1,"<?xml version=""1.0""?>\n<Clock xmlns:dt=""urn:schemas-microsoft-com:datatypes""><Description dt:dt=""string"">E-Prime Primary Realtime Clock</Description><StartTime><Timestamp dt:dt=""int"">0</Timestamp><DateUtc dt:dt=""string"">2018-10-08T16:24:45Z</DateUtc></StartTime><FrequencyChanges><FrequencyChange><Frequency dt:dt=""r8"">3215244</Frequency><Timestamp dt:dt=""r8"">4624477576603</Timestamp><Current dt:dt=""r8"">0</Current><DateUtc dt:dt=""string"">2018-10-08T16:24:45Z</DateUtc></FrequencyChange></FrequencyChanges></Clock>\n",KW_Experiment5A-2-1,59.944,1.0.0.105,2,-1201557394,Professional,2.0.10.353,2.0.10.353,10/8/2018,10/8/2018 16:24,12:24:45,2.0.10.248,2,2,1,2,,,,,,,,TrainingProc,BlockList,21,2,Distractor2.bmp,2,0,,0,1,773150,401,,0,0,blue,400,1,400,,horizontal,blue,Distractor2.bmp,cyan,Distractor2.bmp,purple,Distractor1.bmp,lime,Distractor2.bmp,yellow,Distractor1.bmp,red,Target2.bmp,,,,TrialProc,3,TrainingTrialList,1,2,-999999,1,773551,0,2,620,774171,Target2.bmp,red,2,,,,12,2,21
KW_Experiment5A,2,1,"<?xml version=""1.0""?>\n<Clock xmlns:dt=""urn:schemas-microsoft-com:datatypes""><Description dt:dt=""string"">E-Prime Primary Realtime Clock</Description><StartTime><Timestamp dt:dt=""int"">0</Timestamp><DateUtc dt:dt=""string"">2018-10-08T16:24:45Z</DateUtc></StartTime><FrequencyChanges><FrequencyChange><Frequency dt:dt=""r8"">3215244</Frequency><Timestamp dt:dt=""r8"">4624477576603</Timestamp><Current dt:dt=""r8"">0</Current><DateUtc dt:dt=""string"">2018-10-08T16:24:45Z</DateUtc></FrequencyChange></FrequencyChanges></Clock>\n",KW_Experiment5A-2-1,59.944,1.0.0.105,2,-1201557394,Professional,2.0.10.353,2.0.10.353,10/8/2018,10/8/2018 16:24,12:24:45,2.0.10.248,2,2,1,2,,,,,,,,TrainingProc,BlockList,22,2,Distractor2.bmp,2,0,,0,1,775185,601,,0,0,yellow,600,3,600,,horizontal,yellow,Distractor2.bmp,purple,Distractor2.bmp,cyan,Distractor1.bmp,blue,Distractor1.bmp,lime,Distractor2.bmp,red,Target2.bmp,,,,TrialProc,2,TrainingTrialList,1,2,-999999,1,775786,0,2,522,776308,Target2.bmp,red,2,,,,12,2,22
KW_Experiment5A,2,1,"<?xml version=""1.0""?>\n<Clock xmlns:dt=""urn:schemas-microsoft-com:datatypes""><Description dt:dt=""string"">E-Prime Primary Realtime Clock</Description><StartTime><Timestamp dt:dt=""int"">0</Timestamp><DateUtc dt:dt=""string"">2018-10-08T16:24:45Z</DateUtc></StartTime><FrequencyChanges><FrequencyChange><Frequency dt:dt=""r8"">3215244</Frequency><Timestamp dt:dt=""r8"">4624477576603</Timestamp><Current dt:dt=""r8"">0</Current><DateUtc dt:dt=""string"">2018-10-08T16:24:45Z</DateUtc></FrequencyChange></FrequencyChanges></Clock>\n",KW_Experiment5A-2-1,59.944,1.0.0.105,2,-1201557394,Professional,2.0.10.353,2.0.10.353,10/8/2018,10/8/2018 16:24,12:24:45,2.0.10.248,2,2,1,2,,,,,,,,TrainingProc,BlockList,23,1,Distractor1.bmp,1,0,,0,1,777321,500,,0,0,cyan,500,2,500,,vertical,red,Target1.bmp,purple,Distractor1.bmp,blue,Distractor1.bmp,lime,Distractor2.bmp,yellow,Distractor2.bmp,cyan,Distractor2.bmp,,,,TrialProc,4,TrainingTrialList,1,1,-999999,0,777821,0,1,806,778627,Target1.bmp,red,1,,,,7,2,23
KW_Experiment5A,2,1,"<?xml version=""1.0""?>\n<Clock xmlns:dt=""urn:schemas-microsoft-com:datatypes""><Description dt:dt=""string"">E-Prime Primary Realtime Clock</Description><StartTime><Timestamp dt:dt=""int"">0</Timestamp><DateUtc dt:dt=""string"">2018-10-08T16:24:45Z</DateUtc></StartTime><FrequencyChanges><FrequencyChange><Frequency dt:dt=""r8"">3215244</Frequency><Timestamp dt:dt=""r8"">4624477576603</Timestamp><Current dt:dt=""r8"">0</Current><DateUtc dt:dt=""string"">2018-10-08T16:24:45Z</DateUtc></FrequencyChange></FrequencyChanges></Clock>\n",KW_Experiment5A-2-1,59.944,1.0.0.105,2,-1201557394,Professional,2.0.10.353,2.0.10.353,10/8/2018,10/8/2018 16:24,12:24:45,2.0.10.248,2,2,1,2,,,,,,,,TrainingProc,BlockList,24,1,Distractor1.bmp,1,0,,0,1,779640,400,,0,0,cyan,400,1,400,,vertical,cyan,Distractor1.bmp,red,Target1.bmp,blue,Distractor1.bmp,yellow,Distractor2.bmp,purple,Distractor2.bmp,lime,Distractor1.bmp,,,,TrialProc,4,TrainingTrialList,1,1,-999999,0,780040,0,1,747,780787,Target1.bmp,red,1,,,,8,2,24
KW_Experiment5A,2,1,"<?xml version=""1.0""?>\n<Clock xmlns:dt=""urn:schemas-microsoft-com:datatypes""><Description dt:dt=""string"">E-Prime Primary Realtime Clock</Description><StartTime><Timestamp dt:dt=""int"">0</Timestamp><DateUtc dt:dt=""string"">2018-10-08T16:24:45Z</DateUtc></StartTime><FrequencyChanges><FrequencyChange><Frequency dt:dt=""r8"">3215244</Frequency><Timestamp dt:dt=""r8"">4624477576603</Timestamp><Current dt:dt=""r8"">0</Current><DateUtc dt:dt=""string"">2018-10-08T16:24:45Z</DateUtc></FrequencyChange></FrequencyChanges></Clock>\n",KW_Experiment5A-2-1,59.944,1.0.0.105,2,-1201557394,Professional,2.0.10.353,2.0.10.353,10/8/2018,10/8/2018 16:24,12:24:45,2.0.10.248,2,2,1,2,,,,,,,,TrainingProc,BlockList,25,1,Distractor2.bmp,2,0,,0,1,781808,501,,0,0,yellow,500,2,500,,vertical,yellow,Distractor2.bmp,purple,Distractor2.bmp,lime,Distractor1.bmp,blue,Distractor2.bmp,cyan,Distractor1.bmp,red,Target1.bmp,,,,TrialProc,2,TrainingTrialList,1,1,-999999,1,782309,0,1,550,782859,Target1.bmp,red,1,,,,12,3,25
KW_Experiment5A,2,1,"<?xml version=""1.0""?>\n<Clock xmlns:dt=""urn:schemas-microsoft-com:datatypes""><Description dt:dt=""string"">E-Prime Primary Realtime Clock</Description><StartTime><Timestamp dt:dt=""int"">0</Timestamp><DateUtc dt:dt=""string"">2018-10-08T16:24:45Z</DateUtc></StartTime><FrequencyChanges><FrequencyChange><Frequency dt:dt=""r8"">3215244</Frequency><Timestamp dt:dt=""r8"">4624477576603</Timestamp><Current dt:dt=""r8"">0</Current><DateUtc dt:dt=""string"">2018-10-08T16:24:45Z</DateUtc></FrequencyChange></FrequencyChanges></Clock>\n",KW_Experiment5A-2-1,59.944,1.0.0.105,2,-1201557394,Professional,2.0.10.353,2.0.10.353,10/8/2018,10/8/2018 16:24,12:24:45,2.0.10.248,2,2,1,2,,,,,,,,TrainingProc,BlockList,26,2,Distractor1.bmp,1,0,,0,1,783877,500,,0,0,lime,500,2,500,,horizontal,lime,Distractor1.bmp,blue,Distractor1.bmp,yellow,Distractor1.bmp,purple,Distractor1.bmp,red,Target2.bmp,cyan,Distractor1.bmp,,,,TrialProc,6,TrainingTrialList,1,2,-999999,0,784377,0,2,730,785107,Target2.bmp,red,2,,,,11,3,26
KW_Experiment5A,2,1,"<?xml version=""1.0""?>\n<Clock xmlns:dt=""urn:schemas-microsoft-com:datatypes""><Description dt:dt=""string"">E-Prime Primary Realtime Clock</Description><StartTime><Timestamp dt:dt=""int"">0</Timestamp><DateUtc dt:dt=""string"">2018-10-08T16:24:45Z</DateUtc></StartTime><FrequencyChanges><FrequencyChange><Frequency dt:dt=""r8"">3215244</Frequency><Timestamp dt:dt=""r8"">4624477576603</Timestamp><Current dt:dt=""r8"">0</Current><DateUtc dt:dt=""string"">2018-10-08T16:24:45Z</DateUtc></FrequencyChange></FrequencyChanges></Clock>\n",KW_Experiment5A-2-1,59.944,1.0.0.105,2,-1201557394,Professional,2.0.10.353,2.0.10.353,10/8/2018,10/8/2018 16:24,12:24:45,2.0.10.248,2,2,1,2,,,,,,,,TrainingProc,BlockList,27,2,Distractor1.bmp,1,0,,0,1,786129,500,,0,0,purple,500,2,500,,horizontal,purple,Distractor2.bmp,red,Target2.bmp,cyan,Distractor1.bmp,blue,Distractor2.bmp,yellow,Distractor1.bmp,lime,Distractor2.bmp,,,,TrialProc,5,TrainingTrialList,1,2,-999999,0,786629,0,2,862,787491,Target2.bmp,red,2,,,,8,3,27
KW_Experiment5A,2,1,"<?xml version=""1.0""?>\n<Clock xmlns:dt=""urn:schemas-microsoft-com:datatypes""><Description dt:dt=""string"">E-Prime Primary Realtime Clock</Description><StartTime><Timestamp dt:dt=""int"">0</Timestamp><DateUtc dt:dt=""string"">2018-10-08T16:24:45Z</DateUtc></StartTime><FrequencyChanges><FrequencyChange><Frequency dt:dt=""r8"">3215244</Frequency><Timestamp dt:dt=""r8"">4624477576603</Timestamp><Current dt:dt=""r8"">0</Current><DateUtc dt:dt=""string"">2018-10-08T16:24:45Z</DateUtc></FrequencyChange></FrequencyChanges></Clock>\n",KW_Experiment5A-2-1,59.944,1.0.0.105,2,-1201557394,Professional,2.0.10.353,2.0.10.353,10/8/2018,10/8/2018 16:24,12:24:45,2.0.10.248,2,2,1,2,,,,,,,,TrainingProc,BlockList,28,2,Distractor2.bmp,2,0,,0,1,788514,501,,0,0,yellow,500,2,500,2,horizontal,yellow,Distractor2.bmp,red,Distractor2.bmp,cyan,Distractor2.bmp,purple,Distractor1.bmp,blue,Distractor1.bmp,lime,Target2.bmp,,,,TrialProc,,TrainingTrialList,0,2,-999999,1,789015,0,1,2252,791267,Target2.bmp,lime,2,,,,6,3,28
KW_Experiment5A,2,1,"<?xml version=""1.0""?>\n<Clock xmlns:dt=""urn:schemas-microsoft-com:datatypes""><Description dt:dt=""string"">E-Prime Primary Realtime Clock</Description><StartTime><Timestamp dt:dt=""int"">0</Timestamp><DateUtc dt:dt=""string"">2018-10-08T16:24:45Z</DateUtc></StartTime><FrequencyChanges><FrequencyChange><Frequency dt:dt=""r8"">3215244</Frequency><Timestamp dt:dt=""r8"">4624477576603</Timestamp><Current dt:dt=""r8"">0</Current><DateUtc dt:dt=""string"">2018-10-08T16:24:45Z</DateUtc></FrequencyChange></FrequencyChanges></Clock>\n",KW_Experiment5A-2-1,59.944,1.0.0.105,2,-1201557394,Professional,2.0.10.353,2.0.10.353,10/8/2018,10/8/2018 16:24,12:24:45,2.0.10.248,2,2,1,2,,,,,,,,TrainingProc,BlockList,29,1,Distractor2.bmp,2,0,,0,1,792285,400,,0,0,blue,400,1,400,,vertical,red,Target1.bmp,cyan,Distractor2.bmp,purple,Distractor2.bmp,yellow,Distractor1.bmp,lime,Distractor1.bmp,blue,Distractor2.bmp,,,,TrialProc,3,TrainingTrialList,0,1,-999999,0,792685,0,2,894,793579,Target1.bmp,red,1,,,,7,3,29
KW_Experiment5A,2,1,"<?xml version=""1.0""?>\n<Clock xmlns:dt=""urn:schemas-microsoft-com:datatypes""><Description dt:dt=""string"">E-Prime Primary Realtime Clock</Description><StartTime><Timestamp dt:dt=""int"">0</Timestamp><DateUtc dt:dt=""string"">2018-10-08T16:24:45Z</DateUtc></StartTime><FrequencyChanges><FrequencyChange><Frequency dt:dt=""r8"">3215244</Frequency><Timestamp dt:dt=""r8"">4624477576603</Timestamp><Current dt:dt=""r8"">0</Current><DateUtc dt:dt=""string"">2018-10-08T16:24:45Z</DateUtc></FrequencyChange></FrequencyChanges></Clock>\n",KW_Experiment5A-2-1,59.944,1.0.0.105,2,-1201557394,Professional,2.0.10.353,2.0.10.353,10/8/2018,10/8/2018 16:24,12:24:45,2.0.10.248,2,2,1,2,,,,,,,,TrainingProc,BlockList,30,2,Distractor1.bmp,1,0,,0,1,794603,501,,0,0,cyan,500,2,500,,horizontal,cyan,Distractor1.bmp,lime,Distractor2.bmp,red,Target2.bmp,yellow,Distractor1.bmp,blue,Distractor2.bmp,purple,Distractor1.bmp,,,,TrialProc,4,TrainingTrialList,1,2,-999999,1,795104,0,2,859,795963,Target2.bmp,red,2,,,,9,3,30
KW_Experiment5A,2,1,"<?xml version=""1.0""?>\n<Clock xmlns:dt=""urn:schemas-microsoft-com:datatypes""><Description dt:dt=""string"">E-Prime Primary Realtime Clock</Description><StartTime><Timestamp dt:dt=""int"">0</Timestamp><DateUtc dt:dt=""string"">2018-10-08T16:24:45Z</DateUtc></StartTime><FrequencyChanges><FrequencyChange><Frequency dt:dt=""r8"">3215244</Frequency><Timestamp dt:dt=""r8"">4624477576603</Timestamp><Current dt:dt=""r8"">0</Current><DateUtc dt:dt=""string"">2018-10-08T16:24:45Z</DateUtc></FrequencyChange></FrequencyChanges></Clock>\n",KW_Experiment5A-2-1,59.944,1.0.0.105,2,-1201557394,Professional,2.0.10.353,2.0.10.353,10/8/2018,10/8/2018 16:24,12:24:45,2.0.10.248,2,2,1,2,,,,,,,,TrainingProc,BlockList,31,2,Distractor2.bmp,2,0,,0,1,796989,400,,0,0,purple,400,1,400,5,horizontal,lime,Target2.bmp,purple,Distractor2.bmp,cyan,Distractor2.bmp,blue,Distractor1.bmp,yellow,Distractor2.bmp,red,Distractor1.bmp,,,,TrialProc,,TrainingTrialList,1,2,-999999,0,797389,0,2,750,798139,Target2.bmp,lime,2,,,,1,3,31
KW_Experiment5A,2,1,"<?xml version=""1.0""?>\n<Clock xmlns:dt=""urn:schemas-microsoft-com:datatypes""><Description dt:dt=""string"">E-Prime Primary Realtime Clock</Description><StartTime><Timestamp dt:dt=""int"">0</Timestamp><DateUtc dt:dt=""string"">2018-10-08T16:24:45Z</DateUtc></StartTime><FrequencyChanges><FrequencyChange><Frequency dt:dt=""r8"">3215244</Frequency><Timestamp dt:dt=""r8"">4624477576603</Timestamp><Current dt:dt=""r8"">0</Current><DateUtc dt:dt=""string"">2018-10-08T16:24:45Z</DateUtc></FrequencyChange></FrequencyChanges></Clock>\n",KW_Experiment5A-2-1,59.944,1.0.0.105,2,-1201557394,Professional,2.0.10.353,2.0.10.353,10/8/2018,10/8/2018 16:24,12:24:45,2.0.10.248,2,2,1,2,,,,,,,,TrainingProc,BlockList,32,2,Distractor1.bmp,1,0,,1,0,799157,601,,0,0,yellow,600,3,600,,horizontal,yellow,Distractor1.bmp,red,Target2.bmp,purple,Distractor1.bmp,blue,Distractor2.bmp,lime,Distractor1.bmp,cyan,Distractor1.bmp,,,,TrialProc,2,TrainingTrialList,1,2,-999999,1,799758,0,2,829,800587,Target2.bmp,red,2,,,,8,3,32
KW_Experiment5A,2,1,"<?xml version=""1.0""?>\n<Clock xmlns:dt=""urn:schemas-microsoft-com:datatypes""><Description dt:dt=""string"">E-Prime Primary Realtime Clock</Description><StartTime><Timestamp dt:dt=""int"">0</Timestamp><DateUtc dt:dt=""string"">2018-10-08T16:24:45Z</DateUtc></StartTime><FrequencyChanges><FrequencyChange><Frequency dt:dt=""r8"">3215244</Frequency><Timestamp dt:dt=""r8"">4624477576603</Timestamp><Current dt:dt=""r8"">0</Current><DateUtc dt:dt=""string"">2018-10-08T16:24:45Z</DateUtc></FrequencyChange></FrequencyChanges></Clock>\n",KW_Experiment5A-2-1,59.944,1.0.0.105,2,-1201557394,Professional,2.0.10.353,2.0.10.353,10/8/2018,10/8/2018 16:24,12:24:45,2.0.10.248,2,2,1,2,,,,,,,,TrainingProc,BlockList,33,2,Distractor2.bmp,2,0,,0,1,801610,400,,0,0,blue,400,1,400,,horizontal,blue,Distractor2.bmp,purple,Distractor2.bmp,yellow,Distractor1.bmp,red,Target2.bmp,cyan,Distractor2.bmp,lime,Distractor2.bmp,,,,TrialProc,3,TrainingTrialList,0,2,-999999,0,802010,0,1,729,802739,Target2.bmp,red,2,,,,10,3,33
KW_Experiment5A,2,1,"<?xml version=""1.0""?>\n<Clock xmlns:dt=""urn:schemas-microsoft-com:datatypes""><Description dt:dt=""string"">E-Prime Primary Realtime Clock</Description><StartTime><Timestamp dt:dt=""int"">0</Timestamp><DateUtc dt:dt=""string"">2018-10-08T16:24:45Z</DateUtc></StartTime><FrequencyChanges><FrequencyChange><Frequency dt:dt=""r8"">3215244</Frequency><Timestamp dt:dt=""r8"">4624477576603</Timestamp><Current dt:dt=""r8"">0</Current><DateUtc dt:dt=""string"">2018-10-08T16:24:45Z</DateUtc></FrequencyChange></FrequencyChanges></Clock>\n",KW_Experiment5A-2-1,59.944,1.0.0.105,2,-1201557394,Professional,2.0.10.353,2.0.10.353,10/8/2018,10/8/2018 16:24,12:24:45,2.0.10.248,2,2,1,2,,,,,,,,TrainingProc,BlockList,34,1,Distractor1.bmp,1,0,,0,1,803762,400,,0,0,red,400,1,400,1,vertical,red,Distractor1.bmp,blue,Distractor2.bmp,yellow,Distractor1.bmp,lime,Target1.bmp,purple,Distractor1.bmp,cyan,Distractor2.bmp,,,,TrialProc,,TrainingTrialList,1,1,-999999,0,804162,0,1,1137,805299,Target1.bmp,lime,1,,,,4,3,34
KW_Experiment5A,2,1,"<?xml version=""1.0""?>\n<Clock xmlns:dt=""urn:schemas-microsoft-com:datatypes""><Description dt:dt=""string"">E-Prime Primary Realtime Clock</Description><StartTime><Timestamp dt:dt=""int"">0</Timestamp><DateUtc dt:dt=""string"">2018-10-08T16:24:45Z</DateUtc></StartTime><FrequencyChanges><FrequencyChange><Frequency dt:dt=""r8"">3215244</Frequency><Timestamp dt:dt=""r8"">4624477576603</Timestamp><Current dt:dt=""r8"">0</Current><DateUtc dt:dt=""string"">2018-10-08T16:24:45Z</DateUtc></FrequencyChange></FrequencyChanges></Clock>\n",KW_Experiment5A-2-1,59.944,1.0.0.105,2,-1201557394,Professional,2.0.10.353,2.0.10.353,10/8/2018,10/8/2018 16:24,12:24:45,2.0.10.248,2,2,1,2,,,,,,,,TrainingProc,BlockList,35,2,Distractor1.bmp,1,0,,0,1,806314,601,,0,0,yellow,600,3,600,,horizontal,yellow,Distractor1.bmp,purple,Distractor2.bmp,cyan,Distractor2.bmp,lime,Distractor1.bmp,red,Target2.bmp,blue,Distractor1.bmp,,,,TrialProc,2,TrainingTrialList,1,2,-999999,1,806915,0,2,592,807507,Target2.bmp,red,2,,,,11,3,35
KW_Experiment5A,2,1,"<?xml version=""1.0""?>\n<Clock xmlns:dt=""urn:schemas-microsoft-com:datatypes""><Description dt:dt=""string"">E-Prime Primary Realtime Clock</Description><StartTime><Timestamp dt:dt=""int"">0</Timestamp><DateUtc dt:dt=""string"">2018-10-08T16:24:45Z</DateUtc></StartTime><FrequencyChanges><FrequencyChange><Frequency dt:dt=""r8"">3215244</Frequency><Timestamp dt:dt=""r8"">4624477576603</Timestamp><Current dt:dt=""r8"">0</Current><DateUtc dt:dt=""string"">2018-10-08T16:24:45Z</DateUtc></FrequencyChange></FrequencyChanges></Clock>\n",KW_Experiment5A-2-1,59.944,1.0.0.105,2,-1201557394,Professional,2.0.10.353,2.0.10.353,10/8/2018,10/8/2018 16:24,12:24:45,2.0.10.248,2,2,1,2,,,,,,,,TrainingProc,BlockList,36,2,Distractor2.bmp,2,0,,0,1,808533,400,,0,0,cyan,400,1,400,,horizontal,cyan,Distractor1.bmp,purple,Distractor2.bmp,blue,Distractor2.bmp,red,Target2.bmp,yellow,Distractor2.bmp,lime,Distractor1.bmp,,,,TrialProc,4,TrainingTrialList,1,2,-999999,0,808933,0,2,686,809619,Target2.bmp,red,2,,,,10,3,36
KW_Experiment5A,2,1,"<?xml version=""1.0""?>\n<Clock xmlns:dt=""urn:schemas-microsoft-com:datatypes""><Description dt:dt=""string"">E-Prime Primary Realtime Clock</Description><StartTime><Timestamp dt:dt=""int"">0</Timestamp><DateUtc dt:dt=""string"">2018-10-08T16:24:45Z</DateUtc></StartTime><FrequencyChanges><FrequencyChange><Frequency dt:dt=""r8"">3215244</Frequency><Timestamp dt:dt=""r8"">4624477576603</Timestamp><Current dt:dt=""r8"">0</Current><DateUtc dt:dt=""string"">2018-10-08T16:24:45Z</DateUtc></FrequencyChange></FrequencyChanges></Clock>\n",KW_Experiment5A-2-1,59.944,1.0.0.105,2,-1201557394,Professional,2.0.10.353,2.0.10.353,10/8/2018,10/8/2018 16:24,12:24:45,2.0.10.248,2,2,1,2,,,,,,,,TrainingProc,BlockList,37,1,Distractor2.bmp,2,0,,0,1,810635,400,,0,0,lime,400,1,400,,vertical,red,Target1.bmp,purple,Distractor2.bmp,blue,Distractor1.bmp,cyan,Distractor2.bmp,yellow,Distractor1.bmp,lime,Distractor1.bmp,,,,TrialProc,6,TrainingTrialList,1,1,-999999,0,811035,0,1,592,811627,Target1.bmp,red,1,,,,7,3,37
KW_Experiment5A,2,1,"<?xml version=""1.0""?>\n<Clock xmlns:dt=""urn:schemas-microsoft-com:datatypes""><Description dt:dt=""string"">E-Prime Primary Realtime Clock</Description><StartTime><Timestamp dt:dt=""int"">0</Timestamp><DateUtc dt:dt=""string"">2018-10-08T16:24:45Z</DateUtc></StartTime><FrequencyChanges><FrequencyChange><Frequency dt:dt=""r8"">3215244</Frequency><Timestamp dt:dt=""r8"">4624477576603</Timestamp><Current dt:dt=""r8"">0</Current><DateUtc dt:dt=""string"">2018-10-08T16:24:45Z</DateUtc></FrequencyChange></FrequencyChanges></Clock>\n",KW_Experiment5A-2-1,59.944,1.0.0.105,2,-1201557394,Professional,2.0.10.353,2.0.10.353,10/8/2018,10/8/2018 16:24,12:24:45,2.0.10.248,2,2,1,2,,,,,,,,TrainingProc,BlockList,38,2,Distractor2.bmp,2,0,,0,1,812653,601,,0,0,purple,600,3,600,5,horizontal,purple,Distractor1.bmp,lime,Target2.bmp,cyan,Distractor2.bmp,red,Distractor1.bmp,yellow,Distractor1.bmp,blue,Distractor2.bmp,,,,TrialProc,,TrainingTrialList,1,2,-999999,1,813254,0,2,1117,814371,Target2.bmp,lime,2,,,,2,3,38
KW_Experiment5A,2,1,"<?xml version=""1.0""?>\n<Clock xmlns:dt=""urn:schemas-microsoft-com:datatypes""><Description dt:dt=""string"">E-Prime Primary Realtime Clock</Description><StartTime><Timestamp dt:dt=""int"">0</Timestamp><DateUtc dt:dt=""string"">2018-10-08T16:24:45Z</DateUtc></StartTime><FrequencyChanges><FrequencyChange><Frequency dt:dt=""r8"">3215244</Frequency><Timestamp dt:dt=""r8"">4624477576603</Timestamp><Current dt:dt=""r8"">0</Current><DateUtc dt:dt=""string"">2018-10-08T16:24:45Z</DateUtc></FrequencyChange></FrequencyChanges></Clock>\n",KW_Experiment5A-2-1,59.944,1.0.0.105,2,-1201557394,Professional,2.0.10.353,2.0.10.353,10/8/2018,10/8/2018 16:24,12:24:45,2.0.10.248,2,2,1,2,,,,,,,,TrainingProc,BlockList,39,1,Distractor1.bmp,1,0,,0,1,815389,401,,0,0,blue,400,1,400,3,vertical,blue,Distractor2.bmp,red,Distractor2.bmp,purple,Distractor1.bmp,cyan,Distractor2.bmp,lime,Target1.bmp,yellow,Distractor1.bmp,,,,TrialProc,,TrainingTrialList,1,1,-999999,1,815790,0,1,621,816411,Target1.bmp,lime,1,,,,5,3,39
KW_Experiment5A,2,1,"<?xml version=""1.0""?>\n<Clock xmlns:dt=""urn:schemas-microsoft-com:datatypes""><Description dt:dt=""string"">E-Prime Primary Realtime Clock</Description><StartTime><Timestamp dt:dt=""int"">0</Timestamp><DateUtc dt:dt=""string"">2018-10-08T16:24:45Z</DateUtc></StartTime><FrequencyChanges><FrequencyChange><Frequency dt:dt=""r8"">3215244</Frequency><Timestamp dt:dt=""r8"">4624477576603</Timestamp><Current dt:dt=""r8"">0</Current><DateUtc dt:dt=""string"">2018-10-08T16:24:45Z</DateUtc></FrequencyChange></FrequencyChanges></Clock>\n",KW_Experiment5A-2-1,59.944,1.0.0.105,2,-1201557394,Professional,2.0.10.353,2.0.10.353,10/8/2018,10/8/2018 16:24,12:24:45,2.0.10.248,2,2,1,2,,,,,,,,TrainingProc,BlockList,40,2,Distractor2.bmp,2,0,,0,1,817424,601,,0,0,cyan,600,3,600,,horizontal,cyan,Distractor1.bmp,red,Target2.bmp,lime,Distractor2.bmp,purple,Distractor2.bmp,blue,Distractor1.bmp,yellow,Distractor2.bmp,,,,TrialProc,4,TrainingTrialList,1,2,-999999,1,818025,0,2,738,818763,Target2.bmp,red,2,,,,8,3,40
KW_Experiment5A,2,1,"<?xml version=""1.0""?>\n<Clock xmlns:dt=""urn:schemas-microsoft-com:datatypes""><Description dt:dt=""string"">E-Prime Primary Realtime Clock</Description><StartTime><Timestamp dt:dt=""int"">0</Timestamp><DateUtc dt:dt=""string"">2018-10-08T16:24:45Z</DateUtc></StartTime><FrequencyChanges><FrequencyChange><Frequency dt:dt=""r8"">3215244</Frequency><Timestamp dt:dt=""r8"">4624477576603</Timestamp><Current dt:dt=""r8"">0</Current><DateUtc dt:dt=""string"">2018-10-08T16:24:45Z</DateUtc></FrequencyChange></FrequencyChanges></Clock>\n",KW_Experiment5A-2-1,59.944,1.0.0.105,2,-1201557394,Professional,2.0.10.353,2.0.10.353,10/8/2018,10/8/2018 16:24,12:24:45,2.0.10.248,2,2,1,2,,,,,,,,TrainingProc,BlockList,41,2,Distractor2.bmp,2,0,,0,1,819777,600,,0,0,blue,600,3,600,,horizontal,blue,Distractor2.bmp,cyan,Distractor1.bmp,yellow,Distractor1.bmp,purple,Distractor1.bmp,lime,Distractor2.bmp,red,Target2.bmp,,,,TrialProc,3,TrainingTrialList,1,2,-999999,0,820377,0,2,794,821171,Target2.bmp,red,2,,,,12,3,41
KW_Experiment5A,2,1,"<?xml version=""1.0""?>\n<Clock xmlns:dt=""urn:schemas-microsoft-com:datatypes""><Description dt:dt=""string"">E-Prime Primary Realtime Clock</Description><StartTime><Timestamp dt:dt=""int"">0</Timestamp><DateUtc dt:dt=""string"">2018-10-08T16:24:45Z</DateUtc></StartTime><FrequencyChanges><FrequencyChange><Frequency dt:dt=""r8"">3215244</Frequency><Timestamp dt:dt=""r8"">4624477576603</Timestamp><Current dt:dt=""r8"">0</Current><DateUtc dt:dt=""string"">2018-10-08T16:24:45Z</DateUtc></FrequencyChange></FrequencyChanges></Clock>\n",KW_Experiment5A-2-1,59.944,1.0.0.105,2,-1201557394,Professional,2.0.10.353,2.0.10.353,10/8/2018,10/8/2018 16:24,12:24:45,2.0.10.248,2,2,1,2,,,,,,,,TrainingProc,BlockList,42,1,Distractor2.bmp,2,0,,1,0,822195,501,,0,0,blue,500,2,500,3,vertical,blue,Distractor1.bmp,purple,Distractor2.bmp,lime,Target1.bmp,yellow,Distractor2.bmp,cyan,Distractor1.bmp,red,Distractor1.bmp,,,,TrialProc,,TrainingTrialList,1,1,-999999,1,822696,0,1,1099,823795,Target1.bmp,lime,1,,,,3,3,42
KW_Experiment5A,2,1,"<?xml version=""1.0""?>\n<Clock xmlns:dt=""urn:schemas-microsoft-com:datatypes""><Description dt:dt=""string"">E-Prime Primary Realtime Clock</Description><StartTime><Timestamp dt:dt=""int"">0</Timestamp><DateUtc dt:dt=""string"">2018-10-08T16:24:45Z</DateUtc></StartTime><FrequencyChanges><FrequencyChange><Frequency dt:dt=""r8"">3215244</Frequency><Timestamp dt:dt=""r8"">4624477576603</Timestamp><Current dt:dt=""r8"">0</Current><DateUtc dt:dt=""string"">2018-10-08T16:24:45Z</DateUtc></FrequencyChange></FrequencyChanges></Clock>\n",KW_Experiment5A-2-1,59.944,1.0.0.105,2,-1201557394,Professional,2.0.10.353,2.0.10.353,10/8/2018,10/8/2018 16:24,12:24:45,2.0.10.248,2,2,1,2,,,,,,,,TrainingProc,BlockList,43,2,Distractor1.bmp,1,0,,0,1,824815,600,,0,0,purple,600,3,600,,horizontal,purple,Distractor1.bmp,blue,Distractor1.bmp,cyan,Distractor2.bmp,red,Target2.bmp,lime,Distractor1.bmp,yellow,Distractor2.bmp,,,,TrialProc,5,TrainingTrialList,0,2,-999999,0,825415,0,1,940,826355,Target2.bmp,red,2,,,,10,3,43
KW_Experiment5A,2,1,"<?xml version=""1.0""?>\n<Clock xmlns:dt=""urn:schemas-microsoft-com:datatypes""><Description dt:dt=""string"">E-Prime Primary Realtime Clock</Description><StartTime><Timestamp dt:dt=""int"">0</Timestamp><DateUtc dt:dt=""string"">2018-10-08T16:24:45Z</DateUtc></StartTime><FrequencyChanges><FrequencyChange><Frequency dt:dt=""r8"">3215244</Frequency><Timestamp dt:dt=""r8"">4624477576603</Timestamp><Current dt:dt=""r8"">0</Current><DateUtc dt:dt=""string"">2018-10-08T16:24:45Z</DateUtc></FrequencyChange></FrequencyChanges></Clock>\n",KW_Experiment5A-2-1,59.944,1.0.0.105,2,-1201557394,Professional,2.0.10.353,2.0.10.353,10/8/2018,10/8/2018 16:24,12:24:45,2.0.10.248,2,2,1,2,,,,,,,,TrainingProc,BlockList,44,1,Distractor2.bmp,2,0,,0,1,827367,500,,0,0,yellow,500,2,500,,vertical,yellow,Distractor1.bmp,purple,Distractor1.bmp,red,Target1.bmp,blue,Distractor2.bmp,lime,Distractor2.bmp,cyan,Distractor1.bmp,,,,TrialProc,2,TrainingTrialList,1,1,-999999,0,827867,0,1,976,828843,Target1.bmp,red,1,,,,9,3,44
KW_Experiment5A,2,1,"<?xml version=""1.0""?>\n<Clock xmlns:dt=""urn:schemas-microsoft-com:datatypes""><Description dt:dt=""string"">E-Prime Primary Realtime Clock</Description><StartTime><Timestamp dt:dt=""int"">0</Timestamp><DateUtc dt:dt=""string"">2018-10-08T16:24:45Z</DateUtc></StartTime><FrequencyChanges><FrequencyChange><Frequency dt:dt=""r8"">3215244</Frequency><Timestamp dt:dt=""r8"">4624477576603</Timestamp><Current dt:dt=""r8"">0</Current><DateUtc dt:dt=""string"">2018-10-08T16:24:45Z</DateUtc></FrequencyChange></FrequencyChanges></Clock>\n",KW_Experiment5A-2-1,59.944,1.0.0.105,2,-1201557394,Professional,2.0.10.353,2.0.10.353,10/8/2018,10/8/2018 16:24,12:24:45,2.0.10.248,2,2,1,2,,,,,,,,TrainingProc,BlockList,45,1,Distractor1.bmp,1,0,,0,1,829869,401,,0,0,purple,400,1,400,,vertical,purple,Distractor1.bmp,lime,Distractor2.bmp,yellow,Distractor1.bmp,blue,Distractor2.bmp,red,Target1.bmp,cyan,Distractor1.bmp,,,,TrialProc,5,TrainingTrialList,1,1,-999999,1,830270,0,1,709,830979,Target1.bmp,red,1,,,,11,3,45
KW_Experiment5A,2,1,"<?xml version=""1.0""?>\n<Clock xmlns:dt=""urn:schemas-microsoft-com:datatypes""><Description dt:dt=""string"">E-Prime Primary Realtime Clock</Description><StartTime><Timestamp dt:dt=""int"">0</Timestamp><DateUtc dt:dt=""string"">2018-10-08T16:24:45Z</DateUtc></StartTime><FrequencyChanges><FrequencyChange><Frequency dt:dt=""r8"">3215244</Frequency><Timestamp dt:dt=""r8"">4624477576603</Timestamp><Current dt:dt=""r8"">0</Current><DateUtc dt:dt=""string"">2018-10-08T16:24:45Z</DateUtc></FrequencyChange></FrequencyChanges></Clock>\n",KW_Experiment5A-2-1,59.944,1.0.0.105,2,-1201557394,Professional,2.0.10.353,2.0.10.353,10/8/2018,10/8/2018 16:24,12:24:45,2.0.10.248,2,2,1,2,,,,,,,,TrainingProc,BlockList,46,1,Distractor1.bmp,1,0,,1,0,832004,401,,0,0,blue,400,1,400,,vertical,blue,Distractor2.bmp,cyan,Distractor2.bmp,red,Target1.bmp,purple,Distractor1.bmp,lime,Distractor2.bmp,yellow,Distractor2.bmp,,,,TrialProc,3,TrainingTrialList,1,1,-999999,1,832405,0,1,718,833123,Target1.bmp,red,1,,,,9,3,46
KW_Experiment5A,2,1,"<?xml version=""1.0""?>\n<Clock xmlns:dt=""urn:schemas-microsoft-com:datatypes""><Description dt:dt=""string"">E-Prime Primary Realtime Clock</Description><StartTime><Timestamp dt:dt=""int"">0</Timestamp><DateUtc dt:dt=""string"">2018-10-08T16:24:45Z</DateUtc></StartTime><FrequencyChanges><FrequencyChange><Frequency dt:dt=""r8"">3215244</Frequency><Timestamp dt:dt=""r8"">4624477576603</Timestamp><Current dt:dt=""r8"">0</Current><DateUtc dt:dt=""string"">2018-10-08T16:24:45Z</DateUtc></FrequencyChange></FrequencyChanges></Clock>\n",KW_Experiment5A-2-1,59.944,1.0.0.105,2,-1201557394,Professional,2.0.10.353,2.0.10.353,10/8/2018,10/8/2018 16:24,12:24:45,2.0.10.248,2,2,1,2,,,,,,,,TrainingProc,BlockList,47,1,Distractor2.bmp,2,0,,0,1,834140,400,,0,0,purple,400,1,400,,vertical,purple,Distractor2.bmp,cyan,Distractor2.bmp,blue,Distractor1.bmp,yellow,Distractor1.bmp,lime,Distractor2.bmp,red,Target1.bmp,,,,TrialProc,5,TrainingTrialList,1,1,-999999,0,834540,0,1,839,835379,Target1.bmp,red,1,,,,12,3,47
KW_Experiment5A,2,1,"<?xml version=""1.0""?>\n<Clock xmlns:dt=""urn:schemas-microsoft-com:datatypes""><Description dt:dt=""string"">E-Prime Primary Realtime Clock</Description><StartTime><Timestamp dt:dt=""int"">0</Timestamp><DateUtc dt:dt=""string"">2018-10-08T16:24:45Z</DateUtc></StartTime><FrequencyChanges><FrequencyChange><Frequency dt:dt=""r8"">3215244</Frequency><Timestamp dt:dt=""r8"">4624477576603</Timestamp><Current dt:dt=""r8"">0</Current><DateUtc dt:dt=""string"">2018-10-08T16:24:45Z</DateUtc></FrequencyChange></FrequencyChanges></Clock>\n",KW_Experiment5A-2-1,59.944,1.0.0.105,2,-1201557394,Professional,2.0.10.353,2.0.10.353,10/8/2018,10/8/2018 16:24,12:24:45,2.0.10.248,2,2,1,2,,,,,,,,TrainingProc,BlockList,48,2,Distractor1.bmp,1,0,,0,1,836392,500,,0,0,lime,500,2,500,,horizontal,red,Target2.bmp,yellow,Distractor1.bmp,purple,Distractor1.bmp,blue,Distractor1.bmp,cyan,Distractor1.bmp,lime,Distractor2.bmp,,,,TrialProc,6,TrainingTrialList,1,2,-999999,0,836892,0,2,679,837571,Target2.bmp,red,2,,,,7,3,48
KW_Experiment5A,2,1,"<?xml version=""1.0""?>\n<Clock xmlns:dt=""urn:schemas-microsoft-com:datatypes""><Description dt:dt=""string"">E-Prime Primary Realtime Clock</Description><StartTime><Timestamp dt:dt=""int"">0</Timestamp><DateUtc dt:dt=""string"">2018-10-08T16:24:45Z</DateUtc></StartTime><FrequencyChanges><FrequencyChange><Frequency dt:dt=""r8"">3215244</Frequency><Timestamp dt:dt=""r8"">4624477576603</Timestamp><Current dt:dt=""r8"">0</Current><DateUtc dt:dt=""string"">2018-10-08T16:24:45Z</DateUtc></FrequencyChange></FrequencyChanges></Clock>\n",KW_Experiment5A-2-1,59.944,1.0.0.105,2,-1201557394,Professional,2.0.10.353,2.0.10.353,10/8/2018,10/8/2018 16:24,12:24:45,2.0.10.248,3,2,1,3,,,,,,,,TrainingProc,BlockList,1,1,Distractor2.bmp,2,0,,0,27,841630,601,,0,0,red,600,3,600,1,vertical,red,Distractor1.bmp,lime,Target1.bmp,cyan,Distractor2.bmp,blue,Distractor1.bmp,yellow,Distractor1.bmp,purple,Distractor1.bmp,,,,TrialProc,,TrainingTrialList,1,1,-999999,1,842231,0,1,972,843203,Target1.bmp,lime,1,,,,2,4,49
KW_Experiment5A,2,1,"<?xml version=""1.0""?>\n<Clock xmlns:dt=""urn:schemas-microsoft-com:datatypes""><Description dt:dt=""string"">E-Prime Primary Realtime Clock</Description><StartTime><Timestamp dt:dt=""int"">0</Timestamp><DateUtc dt:dt=""string"">2018-10-08T16:24:45Z</DateUtc></StartTime><FrequencyChanges><FrequencyChange><Frequency dt:dt=""r8"">3215244</Frequency><Timestamp dt:dt=""r8"">4624477576603</Timestamp><Current dt:dt=""r8"">0</Current><DateUtc dt:dt=""string"">2018-10-08T16:24:45Z</DateUtc></FrequencyChange></FrequencyChanges></Clock>\n",KW_Experiment5A-2-1,59.944,1.0.0.105,2,-1201557394,Professional,2.0.10.353,2.0.10.353,10/8/2018,10/8/2018 16:24,12:24:45,2.0.10.248,3,2,1,3,,,,,,,,TrainingProc,BlockList,2,1,Distractor2.bmp,2,0,,0,1,844216,400,,0,0,purple,400,1,400,,vertical,red,Target1.bmp,blue,Distractor2.bmp,yellow,Distractor1.bmp,lime,Distractor2.bmp,cyan,Distractor1.bmp,purple,Distractor2.bmp,,,,TrialProc,5,TrainingTrialList,1,1,-999999,0,844616,0,1,667,845283,Target1.bmp,red,1,,,,7,4,50
KW_Experiment5A,2,1,"<?xml version=""1.0""?>\n<Clock xmlns:dt=""urn:schemas-microsoft-com:datatypes""><Description dt:dt=""string"">E-Prime Primary Realtime Clock</Description><StartTime><Timestamp dt:dt=""int"">0</Timestamp><DateUtc dt:dt=""string"">2018-10-08T16:24:45Z</DateUtc></StartTime><FrequencyChanges><FrequencyChange><Frequency dt:dt=""r8"">3215244</Frequency><Timestamp dt:dt=""r8"">4624477576603</Timestamp><Current dt:dt=""r8"">0</Current><DateUtc dt:dt=""string"">2018-10-08T16:24:45Z</DateUtc></FrequencyChange></FrequencyChanges></Clock>\n",KW_Experiment5A-2-1,59.944,1.0.0.105,2,-1201557394,Professional,2.0.10.353,2.0.10.353,10/8/2018,10/8/2018 16:24,12:24:45,2.0.10.248,3,2,1,3,,,,,,,,TrainingProc,BlockList,3,2,Distractor2.bmp,2,0,,0,1,846301,400,,0,0,yellow,400,1,400,,horizontal,yellow,Distractor2.bmp,cyan,Distractor1.bmp,lime,Distractor1.bmp,red,Target2.bmp,purple,Distractor2.bmp,blue,Distractor1.bmp,,,,TrialProc,2,TrainingTrialList,1,2,-999999,0,846701,0,2,918,847619,Target2.bmp,red,2,,,,10,4,51
KW_Experiment5A,2,1,"<?xml version=""1.0""?>\n<Clock xmlns:dt=""urn:schemas-microsoft-com:datatypes""><Description dt:dt=""string"">E-Prime Primary Realtime Clock</Description><StartTime><Timestamp dt:dt=""int"">0</Timestamp><DateUtc dt:dt=""string"">2018-10-08T16:24:45Z</DateUtc></StartTime><FrequencyChanges><FrequencyChange><Frequency dt:dt=""r8"">3215244</Frequency><Timestamp dt:dt=""r8"">4624477576603</Timestamp><Current dt:dt=""r8"">0</Current><DateUtc dt:dt=""string"">2018-10-08T16:24:45Z</DateUtc></FrequencyChange></FrequencyChanges></Clock>\n",KW_Experiment5A-2-1,59.944,1.0.0.105,2,-1201557394,Professional,2.0.10.353,2.0.10.353,10/8/2018,10/8/2018 16:24,12:24:45,2.0.10.248,3,2,1,3,,,,,,,,TrainingProc,BlockList,4,1,Distractor1.bmp,1,0,,1,0,848636,401,,0,0,blue,400,1,400,,vertical,blue,Distractor1.bmp,red,Target1.bmp,cyan,Distractor1.bmp,yellow,Distractor2.bmp,lime,Distractor1.bmp,purple,Distractor2.bmp,,,,TrialProc,3,TrainingTrialList,1,1,-999999,1,849037,0,1,1270,850307,Target1.bmp,red,1,,,,8,4,52
KW_Experiment5A,2,1,"<?xml version=""1.0""?>\n<Clock xmlns:dt=""urn:schemas-microsoft-com:datatypes""><Description dt:dt=""string"">E-Prime Primary Realtime Clock</Description><StartTime><Timestamp dt:dt=""int"">0</Timestamp><DateUtc dt:dt=""string"">2018-10-08T16:24:45Z</DateUtc></StartTime><FrequencyChanges><FrequencyChange><Frequency dt:dt=""r8"">3215244</Frequency><Timestamp dt:dt=""r8"">4624477576603</Timestamp><Current dt:dt=""r8"">0</Current><DateUtc dt:dt=""string"">2018-10-08T16:24:45Z</DateUtc></FrequencyChange></FrequencyChanges></Clock>\n",KW_Experiment5A-2-1,59.944,1.0.0.105,2,-1201557394,Professional,2.0.10.353,2.0.10.353,10/8/2018,10/8/2018 16:24,12:24:45,2.0.10.248,3,2,1,3,,,,,,,,TrainingProc,BlockList,5,1,Distractor2.bmp,2,0,,0,1,851322,601,,0,0,blue,600,3,600,,vertical,blue,Distractor1.bmp,purple,Distractor1.bmp,red,Target1.bmp,yellow,Distractor2.bmp,cyan,Distractor2.bmp,lime,Distractor2.bmp,,,,TrialProc,3,TrainingTrialList,1,1,-999999,1,851923,0,1,880,852803,Target1.bmp,red,1,,,,9,4,53
KW_Experiment5A,2,1,"<?xml version=""1.0""?>\n<Clock xmlns:dt=""urn:schemas-microsoft-com:datatypes""><Description dt:dt=""string"">E-Prime Primary Realtime Clock</Description><StartTime><Timestamp dt:dt=""int"">0</Timestamp><DateUtc dt:dt=""string"">2018-10-08T16:24:45Z</DateUtc></StartTime><FrequencyChanges><FrequencyChange><Frequency dt:dt=""r8"">3215244</Frequency><Timestamp dt:dt=""r8"">4624477576603</Timestamp><Current dt:dt=""r8"">0</Current><DateUtc dt:dt=""string"">2018-10-08T16:24:45Z</DateUtc></FrequencyChange></FrequencyChanges></Clock>\n",KW_Experiment5A-2-1,59.944,1.0.0.105,2,-1201557394,Professional,2.0.10.353,2.0.10.353,10/8/2018,10/8/2018 16:24,12:24:45,2.0.10.248,3,2,1,3,,,,,,,,TrainingProc,BlockList,6,1,Distractor1.bmp,1,0,,0,1,853825,400,,0,0,cyan,400,1,400,,vertical,cyan,Distractor2.bmp,blue,Distractor2.bmp,yellow,Distractor1.bmp,lime,Distractor1.bmp,red,Target1.bmp,purple,Distractor1.bmp,,,,TrialProc,4,TrainingTrialList,1,1,-999999,0,854225,0,1,658,854883,Target1.bmp,red,1,,,,11,4,54
KW_Experiment5A,2,1,"<?xml version=""1.0""?>\n<Clock xmlns:dt=""urn:schemas-microsoft-com:datatypes""><Description dt:dt=""string"">E-Prime Primary Realtime Clock</Description><StartTime><Timestamp dt:dt=""int"">0</Timestamp><DateUtc dt:dt=""string"">2018-10-08T16:24:45Z</DateUtc></StartTime><FrequencyChanges><FrequencyChange><Frequency dt:dt=""r8"">3215244</Frequency><Timestamp dt:dt=""r8"">4624477576603</Timestamp><Current dt:dt=""r8"">0</Current><DateUtc dt:dt=""string"">2018-10-08T16:24:45Z</DateUtc></FrequencyChange></FrequencyChanges></Clock>\n",KW_Experiment5A-2-1,59.944,1.0.0.105,2,-1201557394,Professional,2.0.10.353,2.0.10.353,10/8/2018,10/8/2018 16:24,12:24:45,2.0.10.248,3,2,1,3,,,,,,,,TrainingProc,BlockList,7,2,Distractor1.bmp,1,0,,0,1,855893,601,,0,0,blue,600,3,600,,horizontal,blue,Distractor1.bmp,purple,Distractor1.bmp,yellow,Distractor2.bmp,cyan,Distractor1.bmp,lime,Distractor2.bmp,red,Target2.bmp,,,,TrialProc,3,TrainingTrialList,1,2,-999999,1,856494,0,2,509,857003,Target2.bmp,red,2,,,,12,4,55
KW_Experiment5A,2,1,"<?xml version=""1.0""?>\n<Clock xmlns:dt=""urn:schemas-microsoft-com:datatypes""><Description dt:dt=""string"">E-Prime Primary Realtime Clock</Description><StartTime><Timestamp dt:dt=""int"">0</Timestamp><DateUtc dt:dt=""string"">2018-10-08T16:24:45Z</DateUtc></StartTime><FrequencyChanges><FrequencyChange><Frequency dt:dt=""r8"">3215244</Frequency><Timestamp dt:dt=""r8"">4624477576603</Timestamp><Current dt:dt=""r8"">0</Current><DateUtc dt:dt=""string"">2018-10-08T16:24:45Z</DateUtc></FrequencyChange></FrequencyChanges></Clock>\n",KW_Experiment5A-2-1,59.944,1.0.0.105,2,-1201557394,Professional,2.0.10.353,2.0.10.353,10/8/2018,10/8/2018 16:24,12:24:45,2.0.10.248,3,2,1,3,,,,,,,,TrainingProc,BlockList,8,2,Distractor2.bmp,2,0,,1,0,858028,401,,0,0,cyan,400,1,400,4,horizontal,cyan,Distractor2.bmp,blue,Distractor1.bmp,purple,Distractor1.bmp,yellow,Distractor1.bmp,red,Distractor2.bmp,lime,Target2.bmp,,,,TrialProc,,TrainingTrialList,1,2,-999999,1,858429,0,2,574,859003,Target2.bmp,lime,2,,,,6,4,56
KW_Experiment5A,2,1,"<?xml version=""1.0""?>\n<Clock xmlns:dt=""urn:schemas-microsoft-com:datatypes""><Description dt:dt=""string"">E-Prime Primary Realtime Clock</Description><StartTime><Timestamp dt:dt=""int"">0</Timestamp><DateUtc dt:dt=""string"">2018-10-08T16:24:45Z</DateUtc></StartTime><FrequencyChanges><FrequencyChange><Frequency dt:dt=""r8"">3215244</Frequency><Timestamp dt:dt=""r8"">4624477576603</Timestamp><Current dt:dt=""r8"">0</Current><DateUtc dt:dt=""string"">2018-10-08T16:24:45Z</DateUtc></FrequencyChange></FrequencyChanges></Clock>\n",KW_Experiment5A-2-1,59.944,1.0.0.105,2,-1201557394,Professional,2.0.10.353,2.0.10.353,10/8/2018,10/8/2018 16:24,12:24:45,2.0.10.248,3,2,1,3,,,,,,,,TrainingProc,BlockList,9,1,Distractor2.bmp,2,0,,0,1,860014,500,,0,0,purple,500,2,500,,vertical,purple,Distractor2.bmp,cyan,Distractor2.bmp,lime,Distractor1.bmp,yellow,Distractor2.bmp,red,Target1.bmp,blue,Distractor2.bmp,,,,TrialProc,5,TrainingTrialList,1,1,-999999,0,860514,0,1,1025,861539,Target1.bmp,red,1,,,,11,4,57
KW_Experiment5A,2,1,"<?xml version=""1.0""?>\n<Clock xmlns:dt=""urn:schemas-microsoft-com:datatypes""><Description dt:dt=""string"">E-Prime Primary Realtime Clock</Description><StartTime><Timestamp dt:dt=""int"">0</Timestamp><DateUtc dt:dt=""string"">2018-10-08T16:24:45Z</DateUtc></StartTime><FrequencyChanges><FrequencyChange><Frequency dt:dt=""r8"">3215244</Frequency><Timestamp dt:dt=""r8"">4624477576603</Timestamp><Current dt:dt=""r8"">0</Current><DateUtc dt:dt=""string"">2018-10-08T16:24:45Z</DateUtc></FrequencyChange></FrequencyChanges></Clock>\n",KW_Experiment5A-2-1,59.944,1.0.0.105,2,-1201557394,Professional,2.0.10.353,2.0.10.353,10/8/2018,10/8/2018 16:24,12:24:45,2.0.10.248,3,2,1,3,,,,,,,,TrainingProc,BlockList,10,2,Distractor1.bmp,1,0,,0,1,862549,501,,0,0,purple,500,2,500,,horizontal,purple,Distractor2.bmp,yellow,Distractor1.bmp,cyan,Distractor1.bmp,lime,Distractor2.bmp,red,Target2.bmp,blue,Distractor1.bmp,,,,TrialProc,5,TrainingTrialList,1,2,-999999,1,863050,0,2,721,863771,Target2.bmp,red,2,,,,11,4,58
KW_Experiment5A,2,1,"<?xml version=""1.0""?>\n<Clock xmlns:dt=""urn:schemas-microsoft-com:datatypes""><Description dt:dt=""string"">E-Prime Primary Realtime Clock</Description><StartTime><Timestamp dt:dt=""int"">0</Timestamp><DateUtc dt:dt=""string"">2018-10-08T16:24:45Z</DateUtc></StartTime><FrequencyChanges><FrequencyChange><Frequency dt:dt=""r8"">3215244</Frequency><Timestamp dt:dt=""r8"">4624477576603</Timestamp><Current dt:dt=""r8"">0</Current><DateUtc dt:dt=""string"">2018-10-08T16:24:45Z</DateUtc></FrequencyChange></FrequencyChanges></Clock>\n",KW_Experiment5A-2-1,59.944,1.0.0.105,2,-1201557394,Professional,2.0.10.353,2.0.10.353,10/8/2018,10/8/2018 16:24,12:24:45,2.0.10.248,3,2,1,3,,,,,,,,TrainingProc,BlockList,11,2,Distractor1.bmp,1,0,,0,1,864785,400,,0,0,blue,400,1,400,3,horizontal,blue,Distractor2.bmp,yellow,Distractor2.bmp,lime,Target2.bmp,cyan,Distractor1.bmp,purple,Distractor1.bmp,red,Distractor1.bmp,,,,TrialProc,,TrainingTrialList,1,2,-999999,0,865185,0,2,1290,866475,Target2.bmp,lime,2,,,,3,4,59
KW_Experiment5A,2,1,"<?xml version=""1.0""?>\n<Clock xmlns:dt=""urn:schemas-microsoft-com:datatypes""><Description dt:dt=""string"">E-Prime Primary Realtime Clock</Description><StartTime><Timestamp dt:dt=""int"">0</Timestamp><DateUtc dt:dt=""string"">2018-10-08T16:24:45Z</DateUtc></StartTime><FrequencyChanges><FrequencyChange><Frequency dt:dt=""r8"">3215244</Frequency><Timestamp dt:dt=""r8"">4624477576603</Timestamp><Current dt:dt=""r8"">0</Current><DateUtc dt:dt=""string"">2018-10-08T16:24:45Z</DateUtc></FrequencyChange></FrequencyChanges></Clock>\n",KW_Experiment5A-2-1,59.944,1.0.0.105,2,-1201557394,Professional,2.0.10.353,2.0.10.353,10/8/2018,10/8/2018 16:24,12:24:45,2.0.10.248,3,2,1,3,,,,,,,,TrainingProc,BlockList,12,2,Distractor1.bmp,1,0,,0,1,867487,601,,0,0,yellow,600,3,600,2,horizontal,yellow,Distractor2.bmp,cyan,Distractor2.bmp,purple,Distractor1.bmp,lime,Target2.bmp,red,Distractor1.bmp,blue,Distractor1.bmp,,,,TrialProc,,TrainingTrialList,1,2,-999999,1,868088,0,2,891,868979,Target2.bmp,lime,2,,,,4,4,60
KW_Experiment5A,2,1,"<?xml version=""1.0""?>\n<Clock xmlns:dt=""urn:schemas-microsoft-com:datatypes""><Description dt:dt=""string"">E-Prime Primary Realtime Clock</Description><StartTime><Timestamp dt:dt=""int"">0</Timestamp><DateUtc dt:dt=""string"">2018-10-08T16:24:45Z</DateUtc></StartTime><FrequencyChanges><FrequencyChange><Frequency dt:dt=""r8"">3215244</Frequency><Timestamp dt:dt=""r8"">4624477576603</Timestamp><Current dt:dt=""r8"">0</Current><DateUtc dt:dt=""string"">2018-10-08T16:24:45Z</DateUtc></FrequencyChange></FrequencyChanges></Clock>\n",KW_Experiment5A-2-1,59.944,1.0.0.105,2,-1201557394,Professional,2.0.10.353,2.0.10.353,10/8/2018,10/8/2018 16:24,12:24:45,2.0.10.248,3,2,1,3,,,,,,,,TrainingProc,BlockList,13,1,Distractor2.bmp,2,0,,0,1,869990,600,,0,0,yellow,600,3,600,,vertical,yellow,Distractor2.bmp,red,Target1.bmp,cyan,Distractor2.bmp,lime,Distractor1.bmp,purple,Distractor1.bmp,blue,Distractor2.bmp,,,,TrialProc,2,TrainingTrialList,1,1,-999999,0,870590,0,1,741,871331,Target1.bmp,red,1,,,,8,4,61
KW_Experiment5A,2,1,"<?xml version=""1.0""?>\n<Clock xmlns:dt=""urn:schemas-microsoft-com:datatypes""><Description dt:dt=""string"">E-Prime Primary Realtime Clock</Description><StartTime><Timestamp dt:dt=""int"">0</Timestamp><DateUtc dt:dt=""string"">2018-10-08T16:24:45Z</DateUtc></StartTime><FrequencyChanges><FrequencyChange><Frequency dt:dt=""r8"">3215244</Frequency><Timestamp dt:dt=""r8"">4624477576603</Timestamp><Current dt:dt=""r8"">0</Current><DateUtc dt:dt=""string"">2018-10-08T16:24:45Z</DateUtc></FrequencyChange></FrequencyChanges></Clock>\n",KW_Experiment5A-2-1,59.944,1.0.0.105,2,-1201557394,Professional,2.0.10.353,2.0.10.353,10/8/2018,10/8/2018 16:24,12:24:45,2.0.10.248,3,2,1,3,,,,,,,,TrainingProc,BlockList,14,2,Distractor1.bmp,1,0,,0,1,872342,400,,0,0,purple,400,1,400,,horizontal,purple,Distractor1.bmp,yellow,Distractor2.bmp,blue,Distractor1.bmp,cyan,Distractor2.bmp,lime,Distractor2.bmp,red,Target2.bmp,,,,TrialProc,5,TrainingTrialList,1,2,-999999,0,872742,0,2,1013,873755,Target2.bmp,red,2,,,,12,4,62
KW_Experiment5A,2,1,"<?xml version=""1.0""?>\n<Clock xmlns:dt=""urn:schemas-microsoft-com:datatypes""><Description dt:dt=""string"">E-Prime Primary Realtime Clock</Description><StartTime><Timestamp dt:dt=""int"">0</Timestamp><DateUtc dt:dt=""string"">2018-10-08T16:24:45Z</DateUtc></StartTime><FrequencyChanges><FrequencyChange><Frequency dt:dt=""r8"">3215244</Frequency><Timestamp dt:dt=""r8"">4624477576603</Timestamp><Current dt:dt=""r8"">0</Current><DateUtc dt:dt=""string"">2018-10-08T16:24:45Z</DateUtc></FrequencyChange></FrequencyChanges></Clock>\n",KW_Experiment5A-2-1,59.944,1.0.0.105,2,-1201557394,Professional,2.0.10.353,2.0.10.353,10/8/2018,10/8/2018 16:24,12:24:45,2.0.10.248,3,2,1,3,,,,,,,,TrainingProc,BlockList,15,2,Distractor2.bmp,2,0,,0,1,874777,401,,0,0,purple,400,1,400,,horizontal,purple,Distractor1.bmp,red,Target2.bmp,blue,Distractor2.bmp,lime,Distractor2.bmp,yellow,Distractor2.bmp,cyan,Distractor1.bmp,,,,TrialProc,5,TrainingTrialList,1,2,-999999,1,875178,0,2,665,875843,Target2.bmp,red,2,,,,8,4,63
KW_Experiment5A,2,1,"<?xml version=""1.0""?>\n<Clock xmlns:dt=""urn:schemas-microsoft-com:datatypes""><Description dt:dt=""string"">E-Prime Primary Realtime Clock</Description><StartTime><Timestamp dt:dt=""int"">0</Timestamp><DateUtc dt:dt=""string"">2018-10-08T16:24:45Z</DateUtc></StartTime><FrequencyChanges><FrequencyChange><Frequency dt:dt=""r8"">3215244</Frequency><Timestamp dt:dt=""r8"">4624477576603</Timestamp><Current dt:dt=""r8"">0</Current><DateUtc dt:dt=""string"">2018-10-08T16:24:45Z</DateUtc></FrequencyChange></FrequencyChanges></Clock>\n",KW_Experiment5A-2-1,59.944,1.0.0.105,2,-1201557394,Professional,2.0.10.353,2.0.10.353,10/8/2018,10/8/2018 16:24,12:24:45,2.0.10.248,3,2,1,3,,,,,,,,TrainingProc,BlockList,16,2,Distractor1.bmp,1,0,,1,0,876862,401,,0,0,lime,400,1,400,,horizontal,lime,Distractor1.bmp,blue,Distractor1.bmp,cyan,Distractor1.bmp,yellow,Distractor1.bmp,purple,Distractor2.bmp,red,Target2.bmp,,,,TrialProc,6,TrainingTrialList,1,2,-999999,1,877263,0,2,868,878131,Target2.bmp,red,2,,,,12,4,64
KW_Experiment5A,2,1,"<?xml version=""1.0""?>\n<Clock xmlns:dt=""urn:schemas-microsoft-com:datatypes""><Description dt:dt=""string"">E-Prime Primary Realtime Clock</Description><StartTime><Timestamp dt:dt=""int"">0</Timestamp><DateUtc dt:dt=""string"">2018-10-08T16:24:45Z</DateUtc></StartTime><FrequencyChanges><FrequencyChange><Frequency dt:dt=""r8"">3215244</Frequency><Timestamp dt:dt=""r8"">4624477576603</Timestamp><Current dt:dt=""r8"">0</Current><DateUtc dt:dt=""string"">2018-10-08T16:24:45Z</DateUtc></FrequencyChange></FrequencyChanges></Clock>\n",KW_Experiment5A-2-1,59.944,1.0.0.105,2,-1201557394,Professional,2.0.10.353,2.0.10.353,10/8/2018,10/8/2018 16:24,12:24:45,2.0.10.248,3,2,1,3,,,,,,,,TrainingProc,BlockList,17,1,Distractor2.bmp,2,0,,0,1,879148,600,,0,0,purple,600,3,600,,vertical,red,Target1.bmp,lime,Distractor2.bmp,yellow,Distractor2.bmp,cyan,Distractor1.bmp,blue,Distractor1.bmp,purple,Distractor1.bmp,,,,TrialProc,5,TrainingTrialList,1,1,-999999,0,879748,0,1,511,880259,Target1.bmp,red,1,,,,7,4,65
KW_Experiment5A,2,1,"<?xml version=""1.0""?>\n<Clock xmlns:dt=""urn:schemas-microsoft-com:datatypes""><Description dt:dt=""string"">E-Prime Primary Realtime Clock</Description><StartTime><Timestamp dt:dt=""int"">0</Timestamp><DateUtc dt:dt=""string"">2018-10-08T16:24:45Z</DateUtc></StartTime><FrequencyChanges><FrequencyChange><Frequency dt:dt=""r8"">3215244</Frequency><Timestamp dt:dt=""r8"">4624477576603</Timestamp><Current dt:dt=""r8"">0</Current><DateUtc dt:dt=""string"">2018-10-08T16:24:45Z</DateUtc></FrequencyChange></FrequencyChanges></Clock>\n",KW_Experiment5A-2-1,59.944,1.0.0.105,2,-1201557394,Professional,2.0.10.353,2.0.10.353,10/8/2018,10/8/2018 16:24,12:24:45,2.0.10.248,3,2,1,3,,,,,,,,TrainingProc,BlockList,18,1,Distractor1.bmp,1,0,,0,1,881283,401,,0,0,yellow,400,1,400,2,vertical,lime,Target1.bmp,yellow,Distractor1.bmp,blue,Distractor1.bmp,cyan,Distractor1.bmp,red,Distractor1.bmp,purple,Distractor2.bmp,,,,TrialProc,,TrainingTrialList,1,1,-999999,1,881684,0,1,759,882443,Target1.bmp,lime,1,,,,1,4,66
KW_Experiment5A,2,1,"<?xml version=""1.0""?>\n<Clock xmlns:dt=""urn:schemas-microsoft-com:datatypes""><Description dt:dt=""string"">E-Prime Primary Realtime Clock</Description><StartTime><Timestamp dt:dt=""int"">0</Timestamp><DateUtc dt:dt=""string"">2018-10-08T16:24:45Z</DateUtc></StartTime><FrequencyChanges><FrequencyChange><Frequency dt:dt=""r8"">3215244</Frequency><Timestamp dt:dt=""r8"">4624477576603</Timestamp><Current dt:dt=""r8"">0</Current><DateUtc dt:dt=""string"">2018-10-08T16:24:45Z</DateUtc></FrequencyChange></FrequencyChanges></Clock>\n",KW_Experiment5A-2-1,59.944,1.0.0.105,2,-1201557394,Professional,2.0.10.353,2.0.10.353,10/8/2018,10/8/2018 16:24,12:24:45,2.0.10.248,3,2,1,3,,,,,,,,TrainingProc,BlockList,19,2,Distractor1.bmp,1,0,,0,1,883452,400,,0,0,lime,400,1,400,,horizontal,lime,Distractor1.bmp,purple,Distractor1.bmp,red,Target2.bmp,yellow,Distractor1.bmp,blue,Distractor2.bmp,cyan,Distractor1.bmp,,,,TrialProc,6,TrainingTrialList,1,2,-999999,0,883852,0,2,606,884458,Target2.bmp,red,2,,,,9,4,67
KW_Experiment5A,2,1,"<?xml version=""1.0""?>\n<Clock xmlns:dt=""urn:schemas-microsoft-com:datatypes""><Description dt:dt=""string"">E-Prime Primary Realtime Clock</Description><StartTime><Timestamp dt:dt=""int"">0</Timestamp><DateUtc dt:dt=""string"">2018-10-08T16:24:45Z</DateUtc></StartTime><FrequencyChanges><FrequencyChange><Frequency dt:dt=""r8"">3215244</Frequency><Timestamp dt:dt=""r8"">4624477576603</Timestamp><Current dt:dt=""r8"">0</Current><DateUtc dt:dt=""string"">2018-10-08T16:24:45Z</DateUtc></FrequencyChange></FrequencyChanges></Clock>\n",KW_Experiment5A-2-1,59.944,1.0.0.105,2,-1201557394,Professional,2.0.10.353,2.0.10.353,10/8/2018,10/8/2018 16:24,12:24:45,2.0.10.248,3,2,1,3,,,,,,,,TrainingProc,BlockList,20,2,Distractor2.bmp,2,0,,1,0,885470,401,,0,0,yellow,400,1,400,,horizontal,red,Target2.bmp,lime,Distractor2.bmp,cyan,Distractor1.bmp,purple,Distractor2.bmp,blue,Distractor1.bmp,yellow,Distractor1.bmp,,,,TrialProc,2,TrainingTrialList,1,2,-999999,1,885871,0,2,499,886370,Target2.bmp,red,2,,,,7,4,68
KW_Experiment5A,2,1,"<?xml version=""1.0""?>\n<Clock xmlns:dt=""urn:schemas-microsoft-com:datatypes""><Description dt:dt=""string"">E-Prime Primary Realtime Clock</Description><StartTime><Timestamp dt:dt=""int"">0</Timestamp><DateUtc dt:dt=""string"">2018-10-08T16:24:45Z</DateUtc></StartTime><FrequencyChanges><FrequencyChange><Frequency dt:dt=""r8"">3215244</Frequency><Timestamp dt:dt=""r8"">4624477576603</Timestamp><Current dt:dt=""r8"">0</Current><DateUtc dt:dt=""string"">2018-10-08T16:24:45Z</DateUtc></FrequencyChange></FrequencyChanges></Clock>\n",KW_Experiment5A-2-1,59.944,1.0.0.105,2,-1201557394,Professional,2.0.10.353,2.0.10.353,10/8/2018,10/8/2018 16:24,12:24:45,2.0.10.248,3,2,1,3,,,,,,,,TrainingProc,BlockList,21,2,Distractor1.bmp,1,0,,0,1,887389,400,,0,0,lime,400,1,400,,horizontal,lime,Distractor2.bmp,purple,Distractor1.bmp,red,Target2.bmp,cyan,Distractor1.bmp,yellow,Distractor2.bmp,blue,Distractor1.bmp,,,,TrialProc,6,TrainingTrialList,1,2,-999999,0,887789,0,2,821,888610,Target2.bmp,red,2,,,,9,4,69
KW_Experiment5A,2,1,"<?xml version=""1.0""?>\n<Clock xmlns:dt=""urn:schemas-microsoft-com:datatypes""><Description dt:dt=""string"">E-Prime Primary Realtime Clock</Description><StartTime><Timestamp dt:dt=""int"">0</Timestamp><DateUtc dt:dt=""string"">2018-10-08T16:24:45Z</DateUtc></StartTime><FrequencyChanges><FrequencyChange><Frequency dt:dt=""r8"">3215244</Frequency><Timestamp dt:dt=""r8"">4624477576603</Timestamp><Current dt:dt=""r8"">0</Current><DateUtc dt:dt=""string"">2018-10-08T16:24:45Z</DateUtc></FrequencyChange></FrequencyChanges></Clock>\n",KW_Experiment5A-2-1,59.944,1.0.0.105,2,-1201557394,Professional,2.0.10.353,2.0.10.353,10/8/2018,10/8/2018 16:24,12:24:45,2.0.10.248,3,2,1,3,,,,,,,,TrainingProc,BlockList,22,1,Distractor1.bmp,1,0,,0,1,889624,601,,0,0,purple,600,3,600,,vertical,purple,Distractor2.bmp,lime,Distractor1.bmp,cyan,Distractor1.bmp,red,Target1.bmp,yellow,Distractor1.bmp,blue,Distractor2.bmp,,,,TrialProc,5,TrainingTrialList,1,1,-999999,1,890225,0,1,697,890922,Target1.bmp,red,1,,,,10,4,70
KW_Experiment5A,2,1,"<?xml version=""1.0""?>\n<Clock xmlns:dt=""urn:schemas-microsoft-com:datatypes""><Description dt:dt=""string"">E-Prime Primary Realtime Clock</Description><StartTime><Timestamp dt:dt=""int"">0</Timestamp><DateUtc dt:dt=""string"">2018-10-08T16:24:45Z</DateUtc></StartTime><FrequencyChanges><FrequencyChange><Frequency dt:dt=""r8"">3215244</Frequency><Timestamp dt:dt=""r8"">4624477576603</Timestamp><Current dt:dt=""r8"">0</Current><DateUtc dt:dt=""string"">2018-10-08T16:24:45Z</DateUtc></FrequencyChange></FrequencyChanges></Clock>\n",KW_Experiment5A-2-1,59.944,1.0.0.105,2,-1201557394,Professional,2.0.10.353,2.0.10.353,10/8/2018,10/8/2018 16:24,12:24:45,2.0.10.248,3,2,1,3,,,,,,,,TrainingProc,BlockList,23,2,Distractor1.bmp,1,0,,0,1,891943,501,,0,0,cyan,500,2,500,,horizontal,cyan,Distractor1.bmp,purple,Distractor2.bmp,lime,Distractor2.bmp,red,Target2.bmp,yellow,Distractor1.bmp,blue,Distractor2.bmp,,,,TrialProc,4,TrainingTrialList,1,2,-999999,1,892444,0,2,534,892978,Target2.bmp,red,2,,,,10,4,71
KW_Experiment5A,2,1,"<?xml version=""1.0""?>\n<Clock xmlns:dt=""urn:schemas-microsoft-com:datatypes""><Description dt:dt=""string"">E-Prime Primary Realtime Clock</Description><StartTime><Timestamp dt:dt=""int"">0</Timestamp><DateUtc dt:dt=""string"">2018-10-08T16:24:45Z</DateUtc></StartTime><FrequencyChanges><FrequencyChange><Frequency dt:dt=""r8"">3215244</Frequency><Timestamp dt:dt=""r8"">4624477576603</Timestamp><Current dt:dt=""r8"">0</Current><DateUtc dt:dt=""string"">2018-10-08T16:24:45Z</DateUtc></FrequencyChange></FrequencyChanges></Clock>\n",KW_Experiment5A-2-1,59.944,1.0.0.105,2,-1201557394,Professional,2.0.10.353,2.0.10.353,10/8/2018,10/8/2018 16:24,12:24:45,2.0.10.248,3,2,1,3,,,,,,,,TrainingProc,BlockList,24,1,Distractor2.bmp,2,0,,0,1,893995,400,,0,0,blue,400,1,400,3,vertical,blue,Distractor2.bmp,cyan,Distractor1.bmp,yellow,Distractor2.bmp,red,Distractor2.bmp,lime,Target1.bmp,purple,Distractor2.bmp,,,,TrialProc,,TrainingTrialList,1,1,-999999,0,894395,0,1,519,894914,Target1.bmp,lime,1,,,,5,4,72
KW_Experiment5A,2,1,"<?xml version=""1.0""?>\n<Clock xmlns:dt=""urn:schemas-microsoft-com:datatypes""><Description dt:dt=""string"">E-Prime Primary Realtime Clock</Description><StartTime><Timestamp dt:dt=""int"">0</Timestamp><DateUtc dt:dt=""string"">2018-10-08T16:24:45Z</DateUtc></StartTime><FrequencyChanges><FrequencyChange><Frequency dt:dt=""r8"">3215244</Frequency><Timestamp dt:dt=""r8"">4624477576603</Timestamp><Current dt:dt=""r8"">0</Current><DateUtc dt:dt=""string"">2018-10-08T16:24:45Z</DateUtc></FrequencyChange></FrequencyChanges></Clock>\n",KW_Experiment5A-2-1,59.944,1.0.0.105,2,-1201557394,Professional,2.0.10.353,2.0.10.353,10/8/2018,10/8/2018 16:24,12:24:45,2.0.10.248,3,2,1,3,,,,,,,,TrainingProc,BlockList,25,2,Distractor1.bmp,1,0,,0,1,895930,501,,0,0,purple,500,2,500,,horizontal,purple,Distractor2.bmp,yellow,Distractor2.bmp,red,Target2.bmp,cyan,Distractor1.bmp,lime,Distractor2.bmp,blue,Distractor1.bmp,,,,TrialProc,5,TrainingTrialList,1,2,-999999,1,896431,0,2,971,897402,Target2.bmp,red,2,,,,9,5,73
KW_Experiment5A,2,1,"<?xml version=""1.0""?>\n<Clock xmlns:dt=""urn:schemas-microsoft-com:datatypes""><Description dt:dt=""string"">E-Prime Primary Realtime Clock</Description><StartTime><Timestamp dt:dt=""int"">0</Timestamp><DateUtc dt:dt=""string"">2018-10-08T16:24:45Z</DateUtc></StartTime><FrequencyChanges><FrequencyChange><Frequency dt:dt=""r8"">3215244</Frequency><Timestamp dt:dt=""r8"">4624477576603</Timestamp><Current dt:dt=""r8"">0</Current><DateUtc dt:dt=""string"">2018-10-08T16:24:45Z</DateUtc></FrequencyChange></FrequencyChanges></Clock>\n",KW_Experiment5A-2-1,59.944,1.0.0.105,2,-1201557394,Professional,2.0.10.353,2.0.10.353,10/8/2018,10/8/2018 16:24,12:24:45,2.0.10.248,3,2,1,3,,,,,,,,TrainingProc,BlockList,26,1,Distractor1.bmp,1,0,,0,1,898416,400,,0,0,purple,400,1,400,,vertical,purple,Distractor2.bmp,lime,Distractor2.bmp,yellow,Distractor2.bmp,cyan,Distractor2.bmp,red,Target1.bmp,blue,Distractor1.bmp,,,,TrialProc,5,TrainingTrialList,1,1,-999999,0,898816,0,1,650,899466,Target1.bmp,red,1,,,,11,5,74
KW_Experiment5A,2,1,"<?xml version=""1.0""?>\n<Clock xmlns:dt=""urn:schemas-microsoft-com:datatypes""><Description dt:dt=""string"">E-Prime Primary Realtime Clock</Description><StartTime><Timestamp dt:dt=""int"">0</Timestamp><DateUtc dt:dt=""string"">2018-10-08T16:24:45Z</DateUtc></StartTime><FrequencyChanges><FrequencyChange><Frequency dt:dt=""r8"">3215244</Frequency><Timestamp dt:dt=""r8"">4624477576603</Timestamp><Current dt:dt=""r8"">0</Current><DateUtc dt:dt=""string"">2018-10-08T16:24:45Z</DateUtc></FrequencyChange></FrequencyChanges></Clock>\n",KW_Experiment5A-2-1,59.944,1.0.0.105,2,-1201557394,Professional,2.0.10.353,2.0.10.353,10/8/2018,10/8/2018 16:24,12:24:45,2.0.10.248,3,2,1,3,,,,,,,,TrainingProc,BlockList,27,1,Distractor2.bmp,2,0,,0,1,900484,401,,0,0,lime,400,1,400,,vertical,lime,Distractor2.bmp,yellow,Distractor1.bmp,cyan,Distractor2.bmp,blue,Distractor2.bmp,red,Target1.bmp,purple,Distractor2.bmp,,,,TrialProc,6,TrainingTrialList,1,1,-999999,1,900885,0,1,597,901482,Target1.bmp,red,1,,,,11,5,75
KW_Experiment5A,2,1,"<?xml version=""1.0""?>\n<Clock xmlns:dt=""urn:schemas-microsoft-com:datatypes""><Description dt:dt=""string"">E-Prime Primary Realtime Clock</Description><StartTime><Timestamp dt:dt=""int"">0</Timestamp><DateUtc dt:dt=""string"">2018-10-08T16:24:45Z</DateUtc></StartTime><FrequencyChanges><FrequencyChange><Frequency dt:dt=""r8"">3215244</Frequency><Timestamp dt:dt=""r8"">4624477576603</Timestamp><Current dt:dt=""r8"">0</Current><DateUtc dt:dt=""string"">2018-10-08T16:24:45Z</DateUtc></FrequencyChange></FrequencyChanges></Clock>\n",KW_Experiment5A-2-1,59.944,1.0.0.105,2,-1201557394,Professional,2.0.10.353,2.0.10.353,10/8/2018,10/8/2018 16:24,12:24:45,2.0.10.248,3,2,1,3,,,,,,,,TrainingProc,BlockList,28,1,Distractor2.bmp,2,0,,0,1,902503,400,,0,0,lime,400,1,400,,vertical,lime,Distractor2.bmp,cyan,Distractor1.bmp,yellow,Distractor2.bmp,purple,Distractor2.bmp,blue,Distractor1.bmp,red,Target1.bmp,,,,TrialProc,6,TrainingTrialList,1,1,-999999,0,902903,0,1,675,903578,Target1.bmp,red,1,,,,12,5,76
KW_Experiment5A,2,1,"<?xml version=""1.0""?>\n<Clock xmlns:dt=""urn:schemas-microsoft-com:datatypes""><Description dt:dt=""string"">E-Prime Primary Realtime Clock</Description><StartTime><Timestamp dt:dt=""int"">0</Timestamp><DateUtc dt:dt=""string"">2018-10-08T16:24:45Z</DateUtc></StartTime><FrequencyChanges><FrequencyChange><Frequency dt:dt=""r8"">3215244</Frequency><Timestamp dt:dt=""r8"">4624477576603</Timestamp><Current dt:dt=""r8"">0</Current><DateUtc dt:dt=""string"">2018-10-08T16:24:45Z</DateUtc></FrequencyChange></FrequencyChanges></Clock>\n",KW_Experiment5A-2-1,59.944,1.0.0.105,2,-1201557394,Professional,2.0.10.353,2.0.10.353,10/8/2018,10/8/2018 16:24,12:24:45,2.0.10.248,3,2,1,3,,,,,,,,TrainingProc,BlockList,29,1,Distractor1.bmp,1,0,,0,1,904588,501,,0,0,lime,500,2,500,,vertical,lime,Distractor2.bmp,yellow,Distractor2.bmp,blue,Distractor2.bmp,red,Target1.bmp,purple,Distractor1.bmp,cyan,Distractor1.bmp,,,,TrialProc,6,TrainingTrialList,1,1,-999999,1,905089,0,1,649,905738,Target1.bmp,red,1,,,,10,5,77
KW_Experiment5A,2,1,"<?xml version=""1.0""?>\n<Clock xmlns:dt=""urn:schemas-microsoft-com:datatypes""><Description dt:dt=""string"">E-Prime Primary Realtime Clock</Description><StartTime><Timestamp dt:dt=""int"">0</Timestamp><DateUtc dt:dt=""string"">2018-10-08T16:24:45Z</DateUtc></StartTime><FrequencyChanges><FrequencyChange><Frequency dt:dt=""r8"">3215244</Frequency><Timestamp dt:dt=""r8"">4624477576603</Timestamp><Current dt:dt=""r8"">0</Current><DateUtc dt:dt=""string"">2018-10-08T16:24:45Z</DateUtc></FrequencyChange></FrequencyChanges></Clock>\n",KW_Experiment5A-2-1,59.944,1.0.0.105,2,-1201557394,Professional,2.0.10.353,2.0.10.353,10/8/2018,10/8/2018 16:24,12:24:45,2.0.10.248,3,2,1,3,,,,,,,,TrainingProc,BlockList,30,1,Distractor2.bmp,2,0,,0,1,906757,400,,0,0,yellow,400,1,400,,vertical,yellow,Distractor2.bmp,purple,Distractor1.bmp,lime,Distractor1.bmp,red,Target1.bmp,blue,Distractor2.bmp,cyan,Distractor2.bmp,,,,TrialProc,2,TrainingTrialList,1,1,-999999,0,907157,0,1,573,907730,Target1.bmp,red,1,,,,10,5,78
KW_Experiment5A,2,1,"<?xml version=""1.0""?>\n<Clock xmlns:dt=""urn:schemas-microsoft-com:datatypes""><Description dt:dt=""string"">E-Prime Primary Realtime Clock</Description><StartTime><Timestamp dt:dt=""int"">0</Timestamp><DateUtc dt:dt=""string"">2018-10-08T16:24:45Z</DateUtc></StartTime><FrequencyChanges><FrequencyChange><Frequency dt:dt=""r8"">3215244</Frequency><Timestamp dt:dt=""r8"">4624477576603</Timestamp><Current dt:dt=""r8"">0</Current><DateUtc dt:dt=""string"">2018-10-08T16:24:45Z</DateUtc></FrequencyChange></FrequencyChanges></Clock>\n",KW_Experiment5A-2-1,59.944,1.0.0.105,2,-1201557394,Professional,2.0.10.353,2.0.10.353,10/8/2018,10/8/2018 16:24,12:24:45,2.0.10.248,3,2,1,3,,,,,,,,TrainingProc,BlockList,31,1,Distractor2.bmp,2,0,,0,1,908742,400,,0,0,yellow,400,1,400,,vertical,red,Target1.bmp,lime,Distractor2.bmp,cyan,Distractor1.bmp,blue,Distractor2.bmp,purple,Distractor1.bmp,yellow,Distractor1.bmp,,,,TrialProc,2,TrainingTrialList,1,1,-999999,0,909142,0,1,588,909730,Target1.bmp,red,1,,,,7,5,79
KW_Experiment5A,2,1,"<?xml version=""1.0""?>\n<Clock xmlns:dt=""urn:schemas-microsoft-com:datatypes""><Description dt:dt=""string"">E-Prime Primary Realtime Clock</Description><StartTime><Timestamp dt:dt=""int"">0</Timestamp><DateUtc dt:dt=""string"">2018-10-08T16:24:45Z</DateUtc></StartTime><FrequencyChanges><FrequencyChange><Frequency dt:dt=""r8"">3215244</Frequency><Timestamp dt:dt=""r8"">4624477576603</Timestamp><Current dt:dt=""r8"">0</Current><DateUtc dt:dt=""string"">2018-10-08T16:24:45Z</DateUtc></FrequencyChange></FrequencyChanges></Clock>\n",KW_Experiment5A-2-1,59.944,1.0.0.105,2,-1201557394,Professional,2.0.10.353,2.0.10.353,10/8/2018,10/8/2018 16:24,12:24:45,2.0.10.248,3,2,1,3,,,,,,,,TrainingProc,BlockList,32,2,Distractor1.bmp,1,0,,0,1,910744,500,,0,0,blue,500,2,500,,horizontal,red,Target2.bmp,lime,Distractor1.bmp,purple,Distractor1.bmp,yellow,Distractor1.bmp,cyan,Distractor2.bmp,blue,Distractor2.bmp,,,,TrialProc,3,TrainingTrialList,1,2,-999999,0,911244,0,2,590,911834,Target2.bmp,red,2,,,,7,5,80
KW_Experiment5A,2,1,"<?xml version=""1.0""?>\n<Clock xmlns:dt=""urn:schemas-microsoft-com:datatypes""><Description dt:dt=""string"">E-Prime Primary Realtime Clock</Description><StartTime><Timestamp dt:dt=""int"">0</Timestamp><DateUtc dt:dt=""string"">2018-10-08T16:24:45Z</DateUtc></StartTime><FrequencyChanges><FrequencyChange><Frequency dt:dt=""r8"">3215244</Frequency><Timestamp dt:dt=""r8"">4624477576603</Timestamp><Current dt:dt=""r8"">0</Current><DateUtc dt:dt=""string"">2018-10-08T16:24:45Z</DateUtc></FrequencyChange></FrequencyChanges></Clock>\n",KW_Experiment5A-2-1,59.944,1.0.0.105,2,-1201557394,Professional,2.0.10.353,2.0.10.353,10/8/2018,10/8/2018 16:24,12:24:45,2.0.10.248,3,2,1,3,,,,,,,,TrainingProc,BlockList,33,2,Distractor1.bmp,1,0,,0,1,912846,600,,0,0,cyan,600,3,600,,horizontal,cyan,Distractor2.bmp,red,Target2.bmp,blue,Distractor1.bmp,yellow,Distractor1.bmp,purple,Distractor1.bmp,lime,Distractor1.bmp,,,,TrialProc,4,TrainingTrialList,1,2,-999999,0,913446,0,2,676,914122,Target2.bmp,red,2,,,,8,5,81
KW_Experiment5A,2,1,"<?xml version=""1.0""?>\n<Clock xmlns:dt=""urn:schemas-microsoft-com:datatypes""><Description dt:dt=""string"">E-Prime Primary Realtime Clock</Description><StartTime><Timestamp dt:dt=""int"">0</Timestamp><DateUtc dt:dt=""string"">2018-10-08T16:24:45Z</DateUtc></StartTime><FrequencyChanges><FrequencyChange><Frequency dt:dt=""r8"">3215244</Frequency><Timestamp dt:dt=""r8"">4624477576603</Timestamp><Current dt:dt=""r8"">0</Current><DateUtc dt:dt=""string"">2018-10-08T16:24:45Z</DateUtc></FrequencyChange></FrequencyChanges></Clock>\n",KW_Experiment5A-2-1,59.944,1.0.0.105,2,-1201557394,Professional,2.0.10.353,2.0.10.353,10/8/2018,10/8/2018 16:24,12:24:45,2.0.10.248,3,2,1,3,,,,,,,,TrainingProc,BlockList,34,2,Distractor2.bmp,2,0,,0,1,915148,500,,0,0,blue,500,2,500,,horizontal,blue,Distractor2.bmp,red,Target2.bmp,cyan,Distractor2.bmp,purple,Distractor1.bmp,yellow,Distractor1.bmp,lime,Distractor2.bmp,,,,TrialProc,3,TrainingTrialList,1,2,-999999,0,915648,0,2,514,916162,Target2.bmp,red,2,,,,8,5,82
KW_Experiment5A,2,1,"<?xml version=""1.0""?>\n<Clock xmlns:dt=""urn:schemas-microsoft-com:datatypes""><Description dt:dt=""string"">E-Prime Primary Realtime Clock</Description><StartTime><Timestamp dt:dt=""int"">0</Timestamp><DateUtc dt:dt=""string"">2018-10-08T16:24:45Z</DateUtc></StartTime><FrequencyChanges><FrequencyChange><Frequency dt:dt=""r8"">3215244</Frequency><Timestamp dt:dt=""r8"">4624477576603</Timestamp><Current dt:dt=""r8"">0</Current><DateUtc dt:dt=""string"">2018-10-08T16:24:45Z</DateUtc></FrequencyChange></FrequencyChanges></Clock>\n",KW_Experiment5A-2-1,59.944,1.0.0.105,2,-1201557394,Professional,2.0.10.353,2.0.10.353,10/8/2018,10/8/2018 16:24,12:24:45,2.0.10.248,3,2,1,3,,,,,,,,TrainingProc,BlockList,35,1,Distractor1.bmp,1,0,,0,1,917183,601,,0,0,blue,600,3,600,,vertical,blue,Distractor2.bmp,yellow,Distractor2.bmp,red,Target1.bmp,lime,Distractor1.bmp,purple,Distractor1.bmp,cyan,Distractor1.bmp,,,,TrialProc,3,TrainingTrialList,1,1,-999999,1,917784,0,1,1146,918930,Target1.bmp,red,1,,,,9,5,83
KW_Experiment5A,2,1,"<?xml version=""1.0""?>\n<Clock xmlns:dt=""urn:schemas-microsoft-com:datatypes""><Description dt:dt=""string"">E-Prime Primary Realtime Clock</Description><StartTime><Timestamp dt:dt=""int"">0</Timestamp><DateUtc dt:dt=""string"">2018-10-08T16:24:45Z</DateUtc></StartTime><FrequencyChanges><FrequencyChange><Frequency dt:dt=""r8"">3215244</Frequency><Timestamp dt:dt=""r8"">4624477576603</Timestamp><Current dt:dt=""r8"">0</Current><DateUtc dt:dt=""string"">2018-10-08T16:24:45Z</DateUtc></FrequencyChange></FrequencyChanges></Clock>\n",KW_Experiment5A-2-1,59.944,1.0.0.105,2,-1201557394,Professional,2.0.10.353,2.0.10.353,10/8/2018,10/8/2018 16:24,12:24:45,2.0.10.248,3,2,1,3,,,,,,,,TrainingProc,BlockList,36,2,Distractor2.bmp,2,0,,0,1,919952,401,,0,0,blue,400,1,400,3,horizontal,blue,Distractor2.bmp,purple,Distractor2.bmp,yellow,Distractor2.bmp,lime,Target2.bmp,cyan,Distractor2.bmp,red,Distractor1.bmp,,,,TrialProc,,TrainingTrialList,1,2,-999999,1,920353,0,2,729,921082,Target2.bmp,lime,2,,,,4,5,84
KW_Experiment5A,2,1,"<?xml version=""1.0""?>\n<Clock xmlns:dt=""urn:schemas-microsoft-com:datatypes""><Description dt:dt=""string"">E-Prime Primary Realtime Clock</Description><StartTime><Timestamp dt:dt=""int"">0</Timestamp><DateUtc dt:dt=""string"">2018-10-08T16:24:45Z</DateUtc></StartTime><FrequencyChanges><FrequencyChange><Frequency dt:dt=""r8"">3215244</Frequency><Timestamp dt:dt=""r8"">4624477576603</Timestamp><Current dt:dt=""r8"">0</Current><DateUtc dt:dt=""string"">2018-10-08T16:24:45Z</DateUtc></FrequencyChange></FrequencyChanges></Clock>\n",KW_Experiment5A-2-1,59.944,1.0.0.105,2,-1201557394,Professional,2.0.10.353,2.0.10.353,10/8/2018,10/8/2018 16:24,12:24:45,2.0.10.248,3,2,1,3,,,,,,,,TrainingProc,BlockList,37,1,Distractor1.bmp,1,0,,0,1,922104,501,,0,0,purple,500,2,500,,vertical,purple,Distractor2.bmp,red,Target1.bmp,blue,Distractor1.bmp,cyan,Distractor1.bmp,lime,Distractor1.bmp,yellow,Distractor2.bmp,,,,TrialProc,5,TrainingTrialList,1,1,-999999,1,922605,0,1,709,923314,Target1.bmp,red,1,,,,8,5,85
KW_Experiment5A,2,1,"<?xml version=""1.0""?>\n<Clock xmlns:dt=""urn:schemas-microsoft-com:datatypes""><Description dt:dt=""string"">E-Prime Primary Realtime Clock</Description><StartTime><Timestamp dt:dt=""int"">0</Timestamp><DateUtc dt:dt=""string"">2018-10-08T16:24:45Z</DateUtc></StartTime><FrequencyChanges><FrequencyChange><Frequency dt:dt=""r8"">3215244</Frequency><Timestamp dt:dt=""r8"">4624477576603</Timestamp><Current dt:dt=""r8"">0</Current><DateUtc dt:dt=""string"">2018-10-08T16:24:45Z</DateUtc></FrequencyChange></FrequencyChanges></Clock>\n",KW_Experiment5A-2-1,59.944,1.0.0.105,2,-1201557394,Professional,2.0.10.353,2.0.10.353,10/8/2018,10/8/2018 16:24,12:24:45,2.0.10.248,3,2,1,3,,,,,,,,TrainingProc,BlockList,38,2,Distractor2.bmp,2,0,,0,1,924340,600,,0,0,lime,600,3,600,,horizontal,lime,Distractor2.bmp,yellow,Distractor2.bmp,purple,Distractor1.bmp,cyan,Distractor1.bmp,blue,Distractor2.bmp,red,Target2.bmp,,,,TrialProc,6,TrainingTrialList,1,2,-999999,0,924940,0,2,814,925754,Target2.bmp,red,2,,,,12,5,86
KW_Experiment5A,2,1,"<?xml version=""1.0""?>\n<Clock xmlns:dt=""urn:schemas-microsoft-com:datatypes""><Description dt:dt=""string"">E-Prime Primary Realtime Clock</Description><StartTime><Timestamp dt:dt=""int"">0</Timestamp><DateUtc dt:dt=""string"">2018-10-08T16:24:45Z</DateUtc></StartTime><FrequencyChanges><FrequencyChange><Frequency dt:dt=""r8"">3215244</Frequency><Timestamp dt:dt=""r8"">4624477576603</Timestamp><Current dt:dt=""r8"">0</Current><DateUtc dt:dt=""string"">2018-10-08T16:24:45Z</DateUtc></FrequencyChange></FrequencyChanges></Clock>\n",KW_Experiment5A-2-1,59.944,1.0.0.105,2,-1201557394,Professional,2.0.10.353,2.0.10.353,10/8/2018,10/8/2018 16:24,12:24:45,2.0.10.248,3,2,1,3,,,,,,,,TrainingProc,BlockList,39,1,Distractor1.bmp,1,0,,0,1,926775,501,,0,0,yellow,500,2,500,,vertical,yellow,Distractor1.bmp,blue,Distractor2.bmp,cyan,Distractor2.bmp,purple,Distractor1.bmp,lime,Distractor2.bmp,red,Target1.bmp,,,,TrialProc,2,TrainingTrialList,1,1,-999999,1,927276,0,1,462,927738,Target1.bmp,red,1,,,,12,5,87
KW_Experiment5A,2,1,"<?xml version=""1.0""?>\n<Clock xmlns:dt=""urn:schemas-microsoft-com:datatypes""><Description dt:dt=""string"">E-Prime Primary Realtime Clock</Description><StartTime><Timestamp dt:dt=""int"">0</Timestamp><DateUtc dt:dt=""string"">2018-10-08T16:24:45Z</DateUtc></StartTime><FrequencyChanges><FrequencyChange><Frequency dt:dt=""r8"">3215244</Frequency><Timestamp dt:dt=""r8"">4624477576603</Timestamp><Current dt:dt=""r8"">0</Current><DateUtc dt:dt=""string"">2018-10-08T16:24:45Z</DateUtc></FrequencyChange></FrequencyChanges></Clock>\n",KW_Experiment5A-2-1,59.944,1.0.0.105,2,-1201557394,Professional,2.0.10.353,2.0.10.353,10/8/2018,10/8/2018 16:24,12:24:45,2.0.10.248,3,2,1,3,,,,,,,,TrainingProc,BlockList,40,2,Distractor2.bmp,2,0,,0,1,928760,501,,0,0,yellow,500,2,500,,horizontal,red,Target2.bmp,blue,Distractor2.bmp,lime,Distractor2.bmp,cyan,Distractor1.bmp,purple,Distractor1.bmp,yellow,Distractor1.bmp,,,,TrialProc,2,TrainingTrialList,0,2,-999999,1,929261,0,1,565,929826,Target2.bmp,red,2,,,,7,5,88
KW_Experiment5A,2,1,"<?xml version=""1.0""?>\n<Clock xmlns:dt=""urn:schemas-microsoft-com:datatypes""><Description dt:dt=""string"">E-Prime Primary Realtime Clock</Description><StartTime><Timestamp dt:dt=""int"">0</Timestamp><DateUtc dt:dt=""string"">2018-10-08T16:24:45Z</DateUtc></StartTime><FrequencyChanges><FrequencyChange><Frequency dt:dt=""r8"">3215244</Frequency><Timestamp dt:dt=""r8"">4624477576603</Timestamp><Current dt:dt=""r8"">0</Current><DateUtc dt:dt=""string"">2018-10-08T16:24:45Z</DateUtc></FrequencyChange></FrequencyChanges></Clock>\n",KW_Experiment5A-2-1,59.944,1.0.0.105,2,-1201557394,Professional,2.0.10.353,2.0.10.353,10/8/2018,10/8/2018 16:24,12:24:45,2.0.10.248,3,2,1,3,,,,,,,,TrainingProc,BlockList,41,2,Distractor2.bmp,2,0,,0,1,930846,600,,0,0,yellow,600,3,600,2,horizontal,yellow,Distractor1.bmp,cyan,Distractor1.bmp,red,Distractor2.bmp,blue,Distractor1.bmp,lime,Target2.bmp,purple,Distractor2.bmp,,,,TrialProc,,TrainingTrialList,1,2,-999999,0,931446,0,2,1028,932474,Target2.bmp,lime,2,,,,5,5,89
KW_Experiment5A,2,1,"<?xml version=""1.0""?>\n<Clock xmlns:dt=""urn:schemas-microsoft-com:datatypes""><Description dt:dt=""string"">E-Prime Primary Realtime Clock</Description><StartTime><Timestamp dt:dt=""int"">0</Timestamp><DateUtc dt:dt=""string"">2018-10-08T16:24:45Z</DateUtc></StartTime><FrequencyChanges><FrequencyChange><Frequency dt:dt=""r8"">3215244</Frequency><Timestamp dt:dt=""r8"">4624477576603</Timestamp><Current dt:dt=""r8"">0</Current><DateUtc dt:dt=""string"">2018-10-08T16:24:45Z</DateUtc></FrequencyChange></FrequencyChanges></Clock>\n",KW_Experiment5A-2-1,59.944,1.0.0.105,2,-1201557394,Professional,2.0.10.353,2.0.10.353,10/8/2018,10/8/2018 16:24,12:24:45,2.0.10.248,3,2,1,3,,,,,,,,TrainingProc,BlockList,42,1,Distractor1.bmp,1,0,,0,1,933498,601,,0,0,cyan,600,3,600,4,vertical,lime,Target1.bmp,cyan,Distractor1.bmp,purple,Distractor2.bmp,yellow,Distractor1.bmp,blue,Distractor1.bmp,red,Distractor2.bmp,,,,TrialProc,,TrainingTrialList,1,1,-999999,1,934099,0,1,535,934634,Target1.bmp,lime,1,,,,1,5,90
