ExperimentName,Subject,Session,Clock.Information,DataFile.Basename,Display.RefreshRate,ExperimentVersion,Group,RandomSeed,RuntimeCapabilities,RuntimeVersion,RuntimeVersionExpected,SessionDate,SessionStartDateTimeUtc,SessionTime,StudioVersion,Block,BlockList,BlockList.Cycle,BlockList.Sample,PostTestQ1.RESP,PostTestQ1CJ.RESP,PostTestQ2.RESP,PostTestQ2CJ.RESP,PostTestQ3.RESP,PostTestQ3CJ.RESP,PostTestSlide.RESP,Procedure[Block],Running[Block],Trial,CorrectResponse,Distractor,DistractorList,Fixation.ACC,Fixation.CRESP,Fixation.DurationError,Fixation.OnsetDelay,Fixation.OnsetTime,Fixation.OnsetToOnsetTime,Fixation.RESP,Fixation.RT,Fixation.RTTime,ItemColor,Jitter,JitterList,JitterTime,Lime0List,Orientation,Pos1Color,Pos1Item,Pos2Color,Pos2Item,Pos3Color,Pos3Item,Pos4Color,Pos4Item,Pos5Color,Pos5Item,Pos6Color,Pos6Item,PracticeTrialList,PracticeTrialList.Cycle,PracticeTrialList.Sample,Procedure[Trial],Red0List,Running[Trial],Stimulus.ACC,Stimulus.CRESP,Stimulus.DurationError,Stimulus.OnsetDelay,Stimulus.OnsetTime,Stimulus.OnsetToOnsetTime,Stimulus.RESP,Stimulus.RT,Stimulus.RTTime,Target,TargetColor,TargetList,TestTrialList,TestTrialList.Cycle,TestTrialList.Sample,TrainingTrialList,TrainingTrialList.Cycle,TrainingTrialList.Sample
KW_Experiment5A,39,1,"<?xml version=""1.0""?>\n<Clock xmlns:dt=""urn:schemas-microsoft-com:datatypes""><Description dt:dt=""string"">E-Prime Primary Realtime Clock</Description><StartTime><Timestamp dt:dt=""int"">0</Timestamp><DateUtc dt:dt=""string"">2018-10-24T17:16:35Z</DateUtc></StartTime><FrequencyChanges><FrequencyChange><Frequency dt:dt=""r8"">3215273</Frequency><Timestamp dt:dt=""r8"">1300652066335</Timestamp><Current dt:dt=""r8"">0</Current><DateUtc dt:dt=""string"">2018-10-24T17:16:35Z</DateUtc></FrequencyChange></FrequencyChanges></Clock>\n",KW_Experiment5A-39-1,59.945,1.0.0.105,2,-722405570,Professional,2.0.10.353,2.0.10.353,10/24/2018,10/24/2018 17:16,13:16:35,2.0.10.248,1,1,1,1,,,,,,,,PracticeProc,BlockList,1,2,Distractor2.bmp,2,0,,0,39,73796,600,,0,0,cyan,600,3,600,,horizontal,cyan,Distractor1.bmp,red,Target2.bmp,lime,Distractor2.bmp,yellow,Distractor2.bmp,purple,Distractor2.bmp,blue,Distractor2.bmp,2,1,1,TrialProc,4,PracticeTrialList,1,2,-999999,0,74396,0,2,1465,75861,Target2.bmp,red,2,,,,,,
KW_Experiment5A,39,1,"<?xml version=""1.0""?>\n<Clock xmlns:dt=""urn:schemas-microsoft-com:datatypes""><Description dt:dt=""string"">E-Prime Primary Realtime Clock</Description><StartTime><Timestamp dt:dt=""int"">0</Timestamp><DateUtc dt:dt=""string"">2018-10-24T17:16:35Z</DateUtc></StartTime><FrequencyChanges><FrequencyChange><Frequency dt:dt=""r8"">3215273</Frequency><Timestamp dt:dt=""r8"">1300652066335</Timestamp><Current dt:dt=""r8"">0</Current><DateUtc dt:dt=""string"">2018-10-24T17:16:35Z</DateUtc></FrequencyChange></FrequencyChanges></Clock>\n",KW_Experiment5A-39-1,59.945,1.0.0.105,2,-722405570,Professional,2.0.10.353,2.0.10.353,10/24/2018,10/24/2018 17:16,13:16:35,2.0.10.248,1,1,1,1,,,,,,,,PracticeProc,BlockList,2,2,Distractor2.bmp,2,0,,0,1,76882,501,,0,0,cyan,500,2,500,4,horizontal,red,Distractor1.bmp,yellow,Distractor1.bmp,purple,Distractor2.bmp,cyan,Distractor1.bmp,lime,Target2.bmp,blue,Distractor2.bmp,5,1,2,TrialProc,,PracticeTrialList,1,2,-999999,1,77383,0,2,1582,78965,Target2.bmp,lime,2,,,,,,
KW_Experiment5A,39,1,"<?xml version=""1.0""?>\n<Clock xmlns:dt=""urn:schemas-microsoft-com:datatypes""><Description dt:dt=""string"">E-Prime Primary Realtime Clock</Description><StartTime><Timestamp dt:dt=""int"">0</Timestamp><DateUtc dt:dt=""string"">2018-10-24T17:16:35Z</DateUtc></StartTime><FrequencyChanges><FrequencyChange><Frequency dt:dt=""r8"">3215273</Frequency><Timestamp dt:dt=""r8"">1300652066335</Timestamp><Current dt:dt=""r8"">0</Current><DateUtc dt:dt=""string"">2018-10-24T17:16:35Z</DateUtc></FrequencyChange></FrequencyChanges></Clock>\n",KW_Experiment5A-39-1,59.945,1.0.0.105,2,-722405570,Professional,2.0.10.353,2.0.10.353,10/24/2018,10/24/2018 17:16,13:16:35,2.0.10.248,1,1,1,1,,,,,,,,PracticeProc,BlockList,3,2,Distractor2.bmp,2,0,,0,1,79985,600,,0,0,lime,600,3,600,,horizontal,cyan,Distractor1.bmp,yellow,Distractor1.bmp,lime,Distractor2.bmp,red,Target2.bmp,blue,Distractor2.bmp,purple,Distractor1.bmp,4,1,3,TrialProc,6,PracticeTrialList,1,2,-999999,0,80585,0,2,1460,82045,Target2.bmp,red,2,,,,,,
KW_Experiment5A,39,1,"<?xml version=""1.0""?>\n<Clock xmlns:dt=""urn:schemas-microsoft-com:datatypes""><Description dt:dt=""string"">E-Prime Primary Realtime Clock</Description><StartTime><Timestamp dt:dt=""int"">0</Timestamp><DateUtc dt:dt=""string"">2018-10-24T17:16:35Z</DateUtc></StartTime><FrequencyChanges><FrequencyChange><Frequency dt:dt=""r8"">3215273</Frequency><Timestamp dt:dt=""r8"">1300652066335</Timestamp><Current dt:dt=""r8"">0</Current><DateUtc dt:dt=""string"">2018-10-24T17:16:35Z</DateUtc></FrequencyChange></FrequencyChanges></Clock>\n",KW_Experiment5A-39-1,59.945,1.0.0.105,2,-722405570,Professional,2.0.10.353,2.0.10.353,10/24/2018,10/24/2018 17:16,13:16:35,2.0.10.248,1,1,1,1,,,,,,,,PracticeProc,BlockList,4,2,Distractor1.bmp,1,0,,0,1,83071,501,,0,0,blue,500,2,500,3,horizontal,red,Distractor2.bmp,blue,Distractor1.bmp,lime,Target2.bmp,cyan,Distractor1.bmp,yellow,Distractor2.bmp,purple,Distractor2.bmp,3,1,4,TrialProc,,PracticeTrialList,1,2,-999999,1,83572,0,2,1049,84621,Target2.bmp,lime,2,,,,,,
KW_Experiment5A,39,1,"<?xml version=""1.0""?>\n<Clock xmlns:dt=""urn:schemas-microsoft-com:datatypes""><Description dt:dt=""string"">E-Prime Primary Realtime Clock</Description><StartTime><Timestamp dt:dt=""int"">0</Timestamp><DateUtc dt:dt=""string"">2018-10-24T17:16:35Z</DateUtc></StartTime><FrequencyChanges><FrequencyChange><Frequency dt:dt=""r8"">3215273</Frequency><Timestamp dt:dt=""r8"">1300652066335</Timestamp><Current dt:dt=""r8"">0</Current><DateUtc dt:dt=""string"">2018-10-24T17:16:35Z</DateUtc></FrequencyChange></FrequencyChanges></Clock>\n",KW_Experiment5A-39-1,59.945,1.0.0.105,2,-722405570,Professional,2.0.10.353,2.0.10.353,10/24/2018,10/24/2018 17:16,13:16:35,2.0.10.248,1,1,1,1,,,,,,,,PracticeProc,BlockList,5,2,Distractor1.bmp,1,0,,0,1,85640,400,,0,0,blue,400,1,400,,horizontal,yellow,Distractor1.bmp,lime,Distractor1.bmp,cyan,Distractor2.bmp,purple,Distractor2.bmp,blue,Distractor1.bmp,red,Target2.bmp,6,1,5,TrialProc,3,PracticeTrialList,1,2,-999999,0,86040,0,2,797,86837,Target2.bmp,red,2,,,,,,
KW_Experiment5A,39,1,"<?xml version=""1.0""?>\n<Clock xmlns:dt=""urn:schemas-microsoft-com:datatypes""><Description dt:dt=""string"">E-Prime Primary Realtime Clock</Description><StartTime><Timestamp dt:dt=""int"">0</Timestamp><DateUtc dt:dt=""string"">2018-10-24T17:16:35Z</DateUtc></StartTime><FrequencyChanges><FrequencyChange><Frequency dt:dt=""r8"">3215273</Frequency><Timestamp dt:dt=""r8"">1300652066335</Timestamp><Current dt:dt=""r8"">0</Current><DateUtc dt:dt=""string"">2018-10-24T17:16:35Z</DateUtc></FrequencyChange></FrequencyChanges></Clock>\n",KW_Experiment5A-39-1,59.945,1.0.0.105,2,-722405570,Professional,2.0.10.353,2.0.10.353,10/24/2018,10/24/2018 17:16,13:16:35,2.0.10.248,1,1,1,1,,,,,,,,PracticeProc,BlockList,6,1,Distractor1.bmp,1,0,,0,1,87859,600,,0,0,yellow,600,3,600,2,vertical,lime,Target1.bmp,red,Distractor1.bmp,cyan,Distractor1.bmp,blue,Distractor1.bmp,purple,Distractor1.bmp,yellow,Distractor2.bmp,1,1,6,TrialProc,,PracticeTrialList,1,1,-999999,0,88459,0,1,682,89141,Target1.bmp,lime,1,,,,,,
KW_Experiment5A,39,1,"<?xml version=""1.0""?>\n<Clock xmlns:dt=""urn:schemas-microsoft-com:datatypes""><Description dt:dt=""string"">E-Prime Primary Realtime Clock</Description><StartTime><Timestamp dt:dt=""int"">0</Timestamp><DateUtc dt:dt=""string"">2018-10-24T17:16:35Z</DateUtc></StartTime><FrequencyChanges><FrequencyChange><Frequency dt:dt=""r8"">3215273</Frequency><Timestamp dt:dt=""r8"">1300652066335</Timestamp><Current dt:dt=""r8"">0</Current><DateUtc dt:dt=""string"">2018-10-24T17:16:35Z</DateUtc></FrequencyChange></FrequencyChanges></Clock>\n",KW_Experiment5A-39-1,59.945,1.0.0.105,2,-722405570,Professional,2.0.10.353,2.0.10.353,10/24/2018,10/24/2018 17:16,13:16:35,2.0.10.248,2,2,1,2,,,,,,,,TrainingProc,BlockList,1,2,Distractor2.bmp,2,0,,0,22,98235,600,,0,0,blue,600,3,600,,horizontal,blue,Distractor1.bmp,lime,Distractor1.bmp,red,Target2.bmp,purple,Distractor2.bmp,cyan,Distractor1.bmp,yellow,Distractor2.bmp,,,,TrialProc,3,TrainingTrialList,1,2,-999999,0,98835,0,2,882,99717,Target2.bmp,red,2,,,,9,2,1
KW_Experiment5A,39,1,"<?xml version=""1.0""?>\n<Clock xmlns:dt=""urn:schemas-microsoft-com:datatypes""><Description dt:dt=""string"">E-Prime Primary Realtime Clock</Description><StartTime><Timestamp dt:dt=""int"">0</Timestamp><DateUtc dt:dt=""string"">2018-10-24T17:16:35Z</DateUtc></StartTime><FrequencyChanges><FrequencyChange><Frequency dt:dt=""r8"">3215273</Frequency><Timestamp dt:dt=""r8"">1300652066335</Timestamp><Current dt:dt=""r8"">0</Current><DateUtc dt:dt=""string"">2018-10-24T17:16:35Z</DateUtc></FrequencyChange></FrequencyChanges></Clock>\n",KW_Experiment5A-39-1,59.945,1.0.0.105,2,-722405570,Professional,2.0.10.353,2.0.10.353,10/24/2018,10/24/2018 17:16,13:16:35,2.0.10.248,2,2,1,2,,,,,,,,TrainingProc,BlockList,2,1,Distractor2.bmp,2,0,,0,1,100737,501,,0,0,purple,500,2,500,,vertical,red,Target1.bmp,cyan,Distractor2.bmp,blue,Distractor1.bmp,yellow,Distractor1.bmp,lime,Distractor1.bmp,purple,Distractor2.bmp,,,,TrialProc,5,TrainingTrialList,1,1,-999999,1,101238,0,1,1703,102941,Target1.bmp,red,1,,,,7,2,2
KW_Experiment5A,39,1,"<?xml version=""1.0""?>\n<Clock xmlns:dt=""urn:schemas-microsoft-com:datatypes""><Description dt:dt=""string"">E-Prime Primary Realtime Clock</Description><StartTime><Timestamp dt:dt=""int"">0</Timestamp><DateUtc dt:dt=""string"">2018-10-24T17:16:35Z</DateUtc></StartTime><FrequencyChanges><FrequencyChange><Frequency dt:dt=""r8"">3215273</Frequency><Timestamp dt:dt=""r8"">1300652066335</Timestamp><Current dt:dt=""r8"">0</Current><DateUtc dt:dt=""string"">2018-10-24T17:16:35Z</DateUtc></FrequencyChange></FrequencyChanges></Clock>\n",KW_Experiment5A-39-1,59.945,1.0.0.105,2,-722405570,Professional,2.0.10.353,2.0.10.353,10/24/2018,10/24/2018 17:16,13:16:35,2.0.10.248,2,2,1,2,,,,,,,,TrainingProc,BlockList,3,1,Distractor1.bmp,1,0,,0,1,103957,500,,0,0,yellow,500,2,500,,vertical,yellow,Distractor2.bmp,cyan,Distractor2.bmp,lime,Distractor1.bmp,red,Target1.bmp,purple,Distractor1.bmp,blue,Distractor2.bmp,,,,TrialProc,2,TrainingTrialList,1,1,-999999,0,104457,0,1,811,105268,Target1.bmp,red,1,,,,10,2,3
KW_Experiment5A,39,1,"<?xml version=""1.0""?>\n<Clock xmlns:dt=""urn:schemas-microsoft-com:datatypes""><Description dt:dt=""string"">E-Prime Primary Realtime Clock</Description><StartTime><Timestamp dt:dt=""int"">0</Timestamp><DateUtc dt:dt=""string"">2018-10-24T17:16:35Z</DateUtc></StartTime><FrequencyChanges><FrequencyChange><Frequency dt:dt=""r8"">3215273</Frequency><Timestamp dt:dt=""r8"">1300652066335</Timestamp><Current dt:dt=""r8"">0</Current><DateUtc dt:dt=""string"">2018-10-24T17:16:35Z</DateUtc></FrequencyChange></FrequencyChanges></Clock>\n",KW_Experiment5A-39-1,59.945,1.0.0.105,2,-722405570,Professional,2.0.10.353,2.0.10.353,10/24/2018,10/24/2018 17:16,13:16:35,2.0.10.248,2,2,1,2,,,,,,,,TrainingProc,BlockList,4,1,Distractor2.bmp,2,0,,0,1,106292,401,,0,0,yellow,400,1,400,,vertical,yellow,Distractor2.bmp,purple,Distractor2.bmp,blue,Distractor1.bmp,cyan,Distractor1.bmp,red,Target1.bmp,lime,Distractor2.bmp,,,,TrialProc,2,TrainingTrialList,0,1,-999999,1,106693,0,2,568,107261,Target1.bmp,red,1,,,,11,2,4
KW_Experiment5A,39,1,"<?xml version=""1.0""?>\n<Clock xmlns:dt=""urn:schemas-microsoft-com:datatypes""><Description dt:dt=""string"">E-Prime Primary Realtime Clock</Description><StartTime><Timestamp dt:dt=""int"">0</Timestamp><DateUtc dt:dt=""string"">2018-10-24T17:16:35Z</DateUtc></StartTime><FrequencyChanges><FrequencyChange><Frequency dt:dt=""r8"">3215273</Frequency><Timestamp dt:dt=""r8"">1300652066335</Timestamp><Current dt:dt=""r8"">0</Current><DateUtc dt:dt=""string"">2018-10-24T17:16:35Z</DateUtc></FrequencyChange></FrequencyChanges></Clock>\n",KW_Experiment5A-39-1,59.945,1.0.0.105,2,-722405570,Professional,2.0.10.353,2.0.10.353,10/24/2018,10/24/2018 17:16,13:16:35,2.0.10.248,2,2,1,2,,,,,,,,TrainingProc,BlockList,5,2,Distractor2.bmp,2,0,,1,0,108277,601,,0,0,yellow,600,3,600,,horizontal,yellow,Distractor2.bmp,cyan,Distractor1.bmp,red,Target2.bmp,blue,Distractor2.bmp,purple,Distractor2.bmp,lime,Distractor1.bmp,,,,TrialProc,2,TrainingTrialList,1,2,-999999,1,108878,0,2,1246,110124,Target2.bmp,red,2,,,,9,2,5
KW_Experiment5A,39,1,"<?xml version=""1.0""?>\n<Clock xmlns:dt=""urn:schemas-microsoft-com:datatypes""><Description dt:dt=""string"">E-Prime Primary Realtime Clock</Description><StartTime><Timestamp dt:dt=""int"">0</Timestamp><DateUtc dt:dt=""string"">2018-10-24T17:16:35Z</DateUtc></StartTime><FrequencyChanges><FrequencyChange><Frequency dt:dt=""r8"">3215273</Frequency><Timestamp dt:dt=""r8"">1300652066335</Timestamp><Current dt:dt=""r8"">0</Current><DateUtc dt:dt=""string"">2018-10-24T17:16:35Z</DateUtc></FrequencyChange></FrequencyChanges></Clock>\n",KW_Experiment5A-39-1,59.945,1.0.0.105,2,-722405570,Professional,2.0.10.353,2.0.10.353,10/24/2018,10/24/2018 17:16,13:16:35,2.0.10.248,2,2,1,2,,,,,,,,TrainingProc,BlockList,6,1,Distractor1.bmp,1,0,,0,1,111147,400,,0,0,lime,400,1,400,,vertical,red,Target1.bmp,purple,Distractor1.bmp,cyan,Distractor1.bmp,blue,Distractor1.bmp,yellow,Distractor2.bmp,lime,Distractor2.bmp,,,,TrialProc,6,TrainingTrialList,1,1,-999999,0,111547,0,1,809,112356,Target1.bmp,red,1,,,,7,2,6
KW_Experiment5A,39,1,"<?xml version=""1.0""?>\n<Clock xmlns:dt=""urn:schemas-microsoft-com:datatypes""><Description dt:dt=""string"">E-Prime Primary Realtime Clock</Description><StartTime><Timestamp dt:dt=""int"">0</Timestamp><DateUtc dt:dt=""string"">2018-10-24T17:16:35Z</DateUtc></StartTime><FrequencyChanges><FrequencyChange><Frequency dt:dt=""r8"">3215273</Frequency><Timestamp dt:dt=""r8"">1300652066335</Timestamp><Current dt:dt=""r8"">0</Current><DateUtc dt:dt=""string"">2018-10-24T17:16:35Z</DateUtc></FrequencyChange></FrequencyChanges></Clock>\n",KW_Experiment5A-39-1,59.945,1.0.0.105,2,-722405570,Professional,2.0.10.353,2.0.10.353,10/24/2018,10/24/2018 17:16,13:16:35,2.0.10.248,2,2,1,2,,,,,,,,TrainingProc,BlockList,7,1,Distractor1.bmp,1,0,,1,1,113365,401,,0,0,yellow,400,1,400,2,vertical,yellow,Distractor1.bmp,cyan,Distractor1.bmp,blue,Distractor2.bmp,purple,Distractor2.bmp,red,Distractor2.bmp,lime,Target1.bmp,,,,TrialProc,,TrainingTrialList,1,1,-999999,1,113766,0,1,1654,115420,Target1.bmp,lime,1,,,,6,2,7
KW_Experiment5A,39,1,"<?xml version=""1.0""?>\n<Clock xmlns:dt=""urn:schemas-microsoft-com:datatypes""><Description dt:dt=""string"">E-Prime Primary Realtime Clock</Description><StartTime><Timestamp dt:dt=""int"">0</Timestamp><DateUtc dt:dt=""string"">2018-10-24T17:16:35Z</DateUtc></StartTime><FrequencyChanges><FrequencyChange><Frequency dt:dt=""r8"">3215273</Frequency><Timestamp dt:dt=""r8"">1300652066335</Timestamp><Current dt:dt=""r8"">0</Current><DateUtc dt:dt=""string"">2018-10-24T17:16:35Z</DateUtc></FrequencyChange></FrequencyChanges></Clock>\n",KW_Experiment5A-39-1,59.945,1.0.0.105,2,-722405570,Professional,2.0.10.353,2.0.10.353,10/24/2018,10/24/2018 17:16,13:16:35,2.0.10.248,2,2,1,2,,,,,,,,TrainingProc,BlockList,8,2,Distractor1.bmp,1,0,,0,1,116435,600,,0,0,cyan,600,3,600,,horizontal,cyan,Distractor1.bmp,lime,Distractor2.bmp,purple,Distractor2.bmp,red,Target2.bmp,blue,Distractor1.bmp,yellow,Distractor2.bmp,,,,TrialProc,4,TrainingTrialList,1,2,-999999,0,117035,0,2,753,117788,Target2.bmp,red,2,,,,10,2,8
KW_Experiment5A,39,1,"<?xml version=""1.0""?>\n<Clock xmlns:dt=""urn:schemas-microsoft-com:datatypes""><Description dt:dt=""string"">E-Prime Primary Realtime Clock</Description><StartTime><Timestamp dt:dt=""int"">0</Timestamp><DateUtc dt:dt=""string"">2018-10-24T17:16:35Z</DateUtc></StartTime><FrequencyChanges><FrequencyChange><Frequency dt:dt=""r8"">3215273</Frequency><Timestamp dt:dt=""r8"">1300652066335</Timestamp><Current dt:dt=""r8"">0</Current><DateUtc dt:dt=""string"">2018-10-24T17:16:35Z</DateUtc></FrequencyChange></FrequencyChanges></Clock>\n",KW_Experiment5A-39-1,59.945,1.0.0.105,2,-722405570,Professional,2.0.10.353,2.0.10.353,10/24/2018,10/24/2018 17:16,13:16:35,2.0.10.248,2,2,1,2,,,,,,,,TrainingProc,BlockList,9,1,Distractor2.bmp,2,0,,0,1,118804,500,,0,0,yellow,500,2,500,2,vertical,yellow,Distractor2.bmp,lime,Target1.bmp,purple,Distractor2.bmp,red,Distractor2.bmp,blue,Distractor2.bmp,cyan,Distractor2.bmp,,,,TrialProc,,TrainingTrialList,1,1,-999999,0,119304,0,1,708,120012,Target1.bmp,lime,1,,,,2,2,9
KW_Experiment5A,39,1,"<?xml version=""1.0""?>\n<Clock xmlns:dt=""urn:schemas-microsoft-com:datatypes""><Description dt:dt=""string"">E-Prime Primary Realtime Clock</Description><StartTime><Timestamp dt:dt=""int"">0</Timestamp><DateUtc dt:dt=""string"">2018-10-24T17:16:35Z</DateUtc></StartTime><FrequencyChanges><FrequencyChange><Frequency dt:dt=""r8"">3215273</Frequency><Timestamp dt:dt=""r8"">1300652066335</Timestamp><Current dt:dt=""r8"">0</Current><DateUtc dt:dt=""string"">2018-10-24T17:16:35Z</DateUtc></FrequencyChange></FrequencyChanges></Clock>\n",KW_Experiment5A-39-1,59.945,1.0.0.105,2,-722405570,Professional,2.0.10.353,2.0.10.353,10/24/2018,10/24/2018 17:16,13:16:35,2.0.10.248,2,2,1,2,,,,,,,,TrainingProc,BlockList,10,2,Distractor2.bmp,2,0,,0,1,121039,501,,0,0,blue,500,2,500,,horizontal,blue,Distractor2.bmp,purple,Distractor2.bmp,red,Target2.bmp,cyan,Distractor2.bmp,yellow,Distractor2.bmp,lime,Distractor2.bmp,,,,TrialProc,3,TrainingTrialList,1,2,-999999,1,121540,0,2,728,122268,Target2.bmp,red,2,,,,9,2,10
KW_Experiment5A,39,1,"<?xml version=""1.0""?>\n<Clock xmlns:dt=""urn:schemas-microsoft-com:datatypes""><Description dt:dt=""string"">E-Prime Primary Realtime Clock</Description><StartTime><Timestamp dt:dt=""int"">0</Timestamp><DateUtc dt:dt=""string"">2018-10-24T17:16:35Z</DateUtc></StartTime><FrequencyChanges><FrequencyChange><Frequency dt:dt=""r8"">3215273</Frequency><Timestamp dt:dt=""r8"">1300652066335</Timestamp><Current dt:dt=""r8"">0</Current><DateUtc dt:dt=""string"">2018-10-24T17:16:35Z</DateUtc></FrequencyChange></FrequencyChanges></Clock>\n",KW_Experiment5A-39-1,59.945,1.0.0.105,2,-722405570,Professional,2.0.10.353,2.0.10.353,10/24/2018,10/24/2018 17:16,13:16:35,2.0.10.248,2,2,1,2,,,,,,,,TrainingProc,BlockList,11,2,Distractor1.bmp,1,0,,0,1,123291,401,,0,0,purple,400,1,400,,horizontal,purple,Distractor1.bmp,red,Target2.bmp,lime,Distractor1.bmp,blue,Distractor1.bmp,yellow,Distractor2.bmp,cyan,Distractor1.bmp,,,,TrialProc,5,TrainingTrialList,1,2,-999999,1,123692,0,2,832,124524,Target2.bmp,red,2,,,,8,2,11
KW_Experiment5A,39,1,"<?xml version=""1.0""?>\n<Clock xmlns:dt=""urn:schemas-microsoft-com:datatypes""><Description dt:dt=""string"">E-Prime Primary Realtime Clock</Description><StartTime><Timestamp dt:dt=""int"">0</Timestamp><DateUtc dt:dt=""string"">2018-10-24T17:16:35Z</DateUtc></StartTime><FrequencyChanges><FrequencyChange><Frequency dt:dt=""r8"">3215273</Frequency><Timestamp dt:dt=""r8"">1300652066335</Timestamp><Current dt:dt=""r8"">0</Current><DateUtc dt:dt=""string"">2018-10-24T17:16:35Z</DateUtc></FrequencyChange></FrequencyChanges></Clock>\n",KW_Experiment5A-39-1,59.945,1.0.0.105,2,-722405570,Professional,2.0.10.353,2.0.10.353,10/24/2018,10/24/2018 17:16,13:16:35,2.0.10.248,2,2,1,2,,,,,,,,TrainingProc,BlockList,12,1,Distractor2.bmp,2,0,,0,1,125543,601,,0,0,red,600,3,600,1,vertical,red,Distractor1.bmp,blue,Distractor1.bmp,yellow,Distractor2.bmp,lime,Target1.bmp,purple,Distractor2.bmp,cyan,Distractor2.bmp,,,,TrialProc,,TrainingTrialList,0,1,-999999,1,126144,0,2,444,126588,Target1.bmp,lime,1,,,,4,2,12
KW_Experiment5A,39,1,"<?xml version=""1.0""?>\n<Clock xmlns:dt=""urn:schemas-microsoft-com:datatypes""><Description dt:dt=""string"">E-Prime Primary Realtime Clock</Description><StartTime><Timestamp dt:dt=""int"">0</Timestamp><DateUtc dt:dt=""string"">2018-10-24T17:16:35Z</DateUtc></StartTime><FrequencyChanges><FrequencyChange><Frequency dt:dt=""r8"">3215273</Frequency><Timestamp dt:dt=""r8"">1300652066335</Timestamp><Current dt:dt=""r8"">0</Current><DateUtc dt:dt=""string"">2018-10-24T17:16:35Z</DateUtc></FrequencyChange></FrequencyChanges></Clock>\n",KW_Experiment5A-39-1,59.945,1.0.0.105,2,-722405570,Professional,2.0.10.353,2.0.10.353,10/24/2018,10/24/2018 17:16,13:16:35,2.0.10.248,2,2,1,2,,,,,,,,TrainingProc,BlockList,13,1,Distractor1.bmp,1,0,,0,1,127612,400,,0,0,yellow,400,1,400,,vertical,yellow,Distractor1.bmp,blue,Distractor1.bmp,lime,Distractor1.bmp,cyan,Distractor2.bmp,purple,Distractor2.bmp,red,Target1.bmp,,,,TrialProc,2,TrainingTrialList,1,1,-999999,0,128012,0,1,872,128884,Target1.bmp,red,1,,,,12,2,13
KW_Experiment5A,39,1,"<?xml version=""1.0""?>\n<Clock xmlns:dt=""urn:schemas-microsoft-com:datatypes""><Description dt:dt=""string"">E-Prime Primary Realtime Clock</Description><StartTime><Timestamp dt:dt=""int"">0</Timestamp><DateUtc dt:dt=""string"">2018-10-24T17:16:35Z</DateUtc></StartTime><FrequencyChanges><FrequencyChange><Frequency dt:dt=""r8"">3215273</Frequency><Timestamp dt:dt=""r8"">1300652066335</Timestamp><Current dt:dt=""r8"">0</Current><DateUtc dt:dt=""string"">2018-10-24T17:16:35Z</DateUtc></FrequencyChange></FrequencyChanges></Clock>\n",KW_Experiment5A-39-1,59.945,1.0.0.105,2,-722405570,Professional,2.0.10.353,2.0.10.353,10/24/2018,10/24/2018 17:16,13:16:35,2.0.10.248,2,2,1,2,,,,,,,,TrainingProc,BlockList,14,1,Distractor2.bmp,2,0,,0,1,129897,501,,0,0,yellow,500,2,500,2,vertical,yellow,Distractor2.bmp,blue,Distractor2.bmp,cyan,Distractor1.bmp,purple,Distractor1.bmp,lime,Target1.bmp,red,Distractor2.bmp,,,,TrialProc,,TrainingTrialList,1,1,-999999,1,130398,0,1,670,131068,Target1.bmp,lime,1,,,,5,2,14
KW_Experiment5A,39,1,"<?xml version=""1.0""?>\n<Clock xmlns:dt=""urn:schemas-microsoft-com:datatypes""><Description dt:dt=""string"">E-Prime Primary Realtime Clock</Description><StartTime><Timestamp dt:dt=""int"">0</Timestamp><DateUtc dt:dt=""string"">2018-10-24T17:16:35Z</DateUtc></StartTime><FrequencyChanges><FrequencyChange><Frequency dt:dt=""r8"">3215273</Frequency><Timestamp dt:dt=""r8"">1300652066335</Timestamp><Current dt:dt=""r8"">0</Current><DateUtc dt:dt=""string"">2018-10-24T17:16:35Z</DateUtc></FrequencyChange></FrequencyChanges></Clock>\n",KW_Experiment5A-39-1,59.945,1.0.0.105,2,-722405570,Professional,2.0.10.353,2.0.10.353,10/24/2018,10/24/2018 17:16,13:16:35,2.0.10.248,2,2,1,2,,,,,,,,TrainingProc,BlockList,15,2,Distractor1.bmp,1,0,,0,1,132083,500,,0,0,blue,500,2,500,,horizontal,blue,Distractor1.bmp,purple,Distractor1.bmp,cyan,Distractor2.bmp,lime,Distractor1.bmp,yellow,Distractor1.bmp,red,Target2.bmp,,,,TrialProc,3,TrainingTrialList,1,2,-999999,0,132583,0,2,709,133292,Target2.bmp,red,2,,,,12,2,15
KW_Experiment5A,39,1,"<?xml version=""1.0""?>\n<Clock xmlns:dt=""urn:schemas-microsoft-com:datatypes""><Description dt:dt=""string"">E-Prime Primary Realtime Clock</Description><StartTime><Timestamp dt:dt=""int"">0</Timestamp><DateUtc dt:dt=""string"">2018-10-24T17:16:35Z</DateUtc></StartTime><FrequencyChanges><FrequencyChange><Frequency dt:dt=""r8"">3215273</Frequency><Timestamp dt:dt=""r8"">1300652066335</Timestamp><Current dt:dt=""r8"">0</Current><DateUtc dt:dt=""string"">2018-10-24T17:16:35Z</DateUtc></FrequencyChange></FrequencyChanges></Clock>\n",KW_Experiment5A-39-1,59.945,1.0.0.105,2,-722405570,Professional,2.0.10.353,2.0.10.353,10/24/2018,10/24/2018 17:16,13:16:35,2.0.10.248,2,2,1,2,,,,,,,,TrainingProc,BlockList,16,1,Distractor1.bmp,1,0,,0,1,134318,601,,0,0,yellow,600,3,600,2,vertical,yellow,Distractor1.bmp,purple,Distractor1.bmp,lime,Target1.bmp,cyan,Distractor1.bmp,red,Distractor2.bmp,blue,Distractor2.bmp,,,,TrialProc,,TrainingTrialList,1,1,-999999,1,134919,0,1,1069,135988,Target1.bmp,lime,1,,,,3,2,16
KW_Experiment5A,39,1,"<?xml version=""1.0""?>\n<Clock xmlns:dt=""urn:schemas-microsoft-com:datatypes""><Description dt:dt=""string"">E-Prime Primary Realtime Clock</Description><StartTime><Timestamp dt:dt=""int"">0</Timestamp><DateUtc dt:dt=""string"">2018-10-24T17:16:35Z</DateUtc></StartTime><FrequencyChanges><FrequencyChange><Frequency dt:dt=""r8"">3215273</Frequency><Timestamp dt:dt=""r8"">1300652066335</Timestamp><Current dt:dt=""r8"">0</Current><DateUtc dt:dt=""string"">2018-10-24T17:16:35Z</DateUtc></FrequencyChange></FrequencyChanges></Clock>\n",KW_Experiment5A-39-1,59.945,1.0.0.105,2,-722405570,Professional,2.0.10.353,2.0.10.353,10/24/2018,10/24/2018 17:16,13:16:35,2.0.10.248,2,2,1,2,,,,,,,,TrainingProc,BlockList,17,2,Distractor1.bmp,1,0,,0,1,137004,600,,0,0,cyan,600,3,600,,horizontal,cyan,Distractor1.bmp,red,Target2.bmp,lime,Distractor1.bmp,purple,Distractor1.bmp,yellow,Distractor1.bmp,blue,Distractor2.bmp,,,,TrialProc,4,TrainingTrialList,1,2,-999999,0,137604,0,2,808,138412,Target2.bmp,red,2,,,,8,2,17
KW_Experiment5A,39,1,"<?xml version=""1.0""?>\n<Clock xmlns:dt=""urn:schemas-microsoft-com:datatypes""><Description dt:dt=""string"">E-Prime Primary Realtime Clock</Description><StartTime><Timestamp dt:dt=""int"">0</Timestamp><DateUtc dt:dt=""string"">2018-10-24T17:16:35Z</DateUtc></StartTime><FrequencyChanges><FrequencyChange><Frequency dt:dt=""r8"">3215273</Frequency><Timestamp dt:dt=""r8"">1300652066335</Timestamp><Current dt:dt=""r8"">0</Current><DateUtc dt:dt=""string"">2018-10-24T17:16:35Z</DateUtc></FrequencyChange></FrequencyChanges></Clock>\n",KW_Experiment5A-39-1,59.945,1.0.0.105,2,-722405570,Professional,2.0.10.353,2.0.10.353,10/24/2018,10/24/2018 17:16,13:16:35,2.0.10.248,2,2,1,2,,,,,,,,TrainingProc,BlockList,18,1,Distractor1.bmp,1,0,,0,1,139423,400,,0,0,lime,400,1,400,,vertical,red,Target1.bmp,yellow,Distractor1.bmp,purple,Distractor1.bmp,cyan,Distractor1.bmp,blue,Distractor2.bmp,lime,Distractor2.bmp,,,,TrialProc,6,TrainingTrialList,1,1,-999999,0,139823,0,1,845,140668,Target1.bmp,red,1,,,,7,2,18
KW_Experiment5A,39,1,"<?xml version=""1.0""?>\n<Clock xmlns:dt=""urn:schemas-microsoft-com:datatypes""><Description dt:dt=""string"">E-Prime Primary Realtime Clock</Description><StartTime><Timestamp dt:dt=""int"">0</Timestamp><DateUtc dt:dt=""string"">2018-10-24T17:16:35Z</DateUtc></StartTime><FrequencyChanges><FrequencyChange><Frequency dt:dt=""r8"">3215273</Frequency><Timestamp dt:dt=""r8"">1300652066335</Timestamp><Current dt:dt=""r8"">0</Current><DateUtc dt:dt=""string"">2018-10-24T17:16:35Z</DateUtc></FrequencyChange></FrequencyChanges></Clock>\n",KW_Experiment5A-39-1,59.945,1.0.0.105,2,-722405570,Professional,2.0.10.353,2.0.10.353,10/24/2018,10/24/2018 17:16,13:16:35,2.0.10.248,2,2,1,2,,,,,,,,TrainingProc,BlockList,19,1,Distractor1.bmp,1,0,,0,1,141691,601,,0,0,blue,600,3,600,,vertical,blue,Distractor1.bmp,lime,Distractor1.bmp,purple,Distractor1.bmp,yellow,Distractor2.bmp,red,Target1.bmp,cyan,Distractor1.bmp,,,,TrialProc,3,TrainingTrialList,1,1,-999999,1,142292,0,1,712,143004,Target1.bmp,red,1,,,,11,2,19
KW_Experiment5A,39,1,"<?xml version=""1.0""?>\n<Clock xmlns:dt=""urn:schemas-microsoft-com:datatypes""><Description dt:dt=""string"">E-Prime Primary Realtime Clock</Description><StartTime><Timestamp dt:dt=""int"">0</Timestamp><DateUtc dt:dt=""string"">2018-10-24T17:16:35Z</DateUtc></StartTime><FrequencyChanges><FrequencyChange><Frequency dt:dt=""r8"">3215273</Frequency><Timestamp dt:dt=""r8"">1300652066335</Timestamp><Current dt:dt=""r8"">0</Current><DateUtc dt:dt=""string"">2018-10-24T17:16:35Z</DateUtc></FrequencyChange></FrequencyChanges></Clock>\n",KW_Experiment5A-39-1,59.945,1.0.0.105,2,-722405570,Professional,2.0.10.353,2.0.10.353,10/24/2018,10/24/2018 17:16,13:16:35,2.0.10.248,2,2,1,2,,,,,,,,TrainingProc,BlockList,20,2,Distractor1.bmp,1,0,,0,1,144027,500,,0,0,cyan,500,2,500,,horizontal,cyan,Distractor1.bmp,blue,Distractor2.bmp,yellow,Distractor1.bmp,purple,Distractor1.bmp,red,Target2.bmp,lime,Distractor1.bmp,,,,TrialProc,4,TrainingTrialList,1,2,-999999,0,144527,0,2,2269,146796,Target2.bmp,red,2,,,,11,2,20
KW_Experiment5A,39,1,"<?xml version=""1.0""?>\n<Clock xmlns:dt=""urn:schemas-microsoft-com:datatypes""><Description dt:dt=""string"">E-Prime Primary Realtime Clock</Description><StartTime><Timestamp dt:dt=""int"">0</Timestamp><DateUtc dt:dt=""string"">2018-10-24T17:16:35Z</DateUtc></StartTime><FrequencyChanges><FrequencyChange><Frequency dt:dt=""r8"">3215273</Frequency><Timestamp dt:dt=""r8"">1300652066335</Timestamp><Current dt:dt=""r8"">0</Current><DateUtc dt:dt=""string"">2018-10-24T17:16:35Z</DateUtc></FrequencyChange></FrequencyChanges></Clock>\n",KW_Experiment5A-39-1,59.945,1.0.0.105,2,-722405570,Professional,2.0.10.353,2.0.10.353,10/24/2018,10/24/2018 17:16,13:16:35,2.0.10.248,2,2,1,2,,,,,,,,TrainingProc,BlockList,21,2,Distractor1.bmp,1,0,,0,1,147814,400,,0,0,purple,400,1,400,5,horizontal,lime,Target2.bmp,purple,Distractor1.bmp,blue,Distractor1.bmp,cyan,Distractor1.bmp,red,Distractor2.bmp,yellow,Distractor1.bmp,,,,TrialProc,,TrainingTrialList,1,2,-999999,0,148214,0,2,2238,150452,Target2.bmp,lime,2,,,,1,2,21
KW_Experiment5A,39,1,"<?xml version=""1.0""?>\n<Clock xmlns:dt=""urn:schemas-microsoft-com:datatypes""><Description dt:dt=""string"">E-Prime Primary Realtime Clock</Description><StartTime><Timestamp dt:dt=""int"">0</Timestamp><DateUtc dt:dt=""string"">2018-10-24T17:16:35Z</DateUtc></StartTime><FrequencyChanges><FrequencyChange><Frequency dt:dt=""r8"">3215273</Frequency><Timestamp dt:dt=""r8"">1300652066335</Timestamp><Current dt:dt=""r8"">0</Current><DateUtc dt:dt=""string"">2018-10-24T17:16:35Z</DateUtc></FrequencyChange></FrequencyChanges></Clock>\n",KW_Experiment5A-39-1,59.945,1.0.0.105,2,-722405570,Professional,2.0.10.353,2.0.10.353,10/24/2018,10/24/2018 17:16,13:16:35,2.0.10.248,2,2,1,2,,,,,,,,TrainingProc,BlockList,22,1,Distractor1.bmp,1,0,,0,1,151467,400,,0,0,purple,400,1,400,,vertical,purple,Distractor1.bmp,cyan,Distractor2.bmp,yellow,Distractor1.bmp,lime,Distractor2.bmp,blue,Distractor2.bmp,red,Target1.bmp,,,,TrialProc,5,TrainingTrialList,1,1,-999999,0,151867,0,1,777,152644,Target1.bmp,red,1,,,,12,2,22
KW_Experiment5A,39,1,"<?xml version=""1.0""?>\n<Clock xmlns:dt=""urn:schemas-microsoft-com:datatypes""><Description dt:dt=""string"">E-Prime Primary Realtime Clock</Description><StartTime><Timestamp dt:dt=""int"">0</Timestamp><DateUtc dt:dt=""string"">2018-10-24T17:16:35Z</DateUtc></StartTime><FrequencyChanges><FrequencyChange><Frequency dt:dt=""r8"">3215273</Frequency><Timestamp dt:dt=""r8"">1300652066335</Timestamp><Current dt:dt=""r8"">0</Current><DateUtc dt:dt=""string"">2018-10-24T17:16:35Z</DateUtc></FrequencyChange></FrequencyChanges></Clock>\n",KW_Experiment5A-39-1,59.945,1.0.0.105,2,-722405570,Professional,2.0.10.353,2.0.10.353,10/24/2018,10/24/2018 17:16,13:16:35,2.0.10.248,2,2,1,2,,,,,,,,TrainingProc,BlockList,23,1,Distractor2.bmp,2,0,,0,1,153669,400,,0,0,lime,400,1,400,,vertical,lime,Distractor2.bmp,cyan,Distractor1.bmp,blue,Distractor1.bmp,red,Target1.bmp,yellow,Distractor2.bmp,purple,Distractor2.bmp,,,,TrialProc,6,TrainingTrialList,1,1,-999999,0,154069,0,1,767,154836,Target1.bmp,red,1,,,,10,2,23
KW_Experiment5A,39,1,"<?xml version=""1.0""?>\n<Clock xmlns:dt=""urn:schemas-microsoft-com:datatypes""><Description dt:dt=""string"">E-Prime Primary Realtime Clock</Description><StartTime><Timestamp dt:dt=""int"">0</Timestamp><DateUtc dt:dt=""string"">2018-10-24T17:16:35Z</DateUtc></StartTime><FrequencyChanges><FrequencyChange><Frequency dt:dt=""r8"">3215273</Frequency><Timestamp dt:dt=""r8"">1300652066335</Timestamp><Current dt:dt=""r8"">0</Current><DateUtc dt:dt=""string"">2018-10-24T17:16:35Z</DateUtc></FrequencyChange></FrequencyChanges></Clock>\n",KW_Experiment5A-39-1,59.945,1.0.0.105,2,-722405570,Professional,2.0.10.353,2.0.10.353,10/24/2018,10/24/2018 17:16,13:16:35,2.0.10.248,2,2,1,2,,,,,,,,TrainingProc,BlockList,24,1,Distractor2.bmp,2,0,,0,1,155854,501,,0,0,lime,500,2,500,,vertical,lime,Distractor1.bmp,red,Target1.bmp,cyan,Distractor2.bmp,yellow,Distractor1.bmp,blue,Distractor2.bmp,purple,Distractor2.bmp,,,,TrialProc,6,TrainingTrialList,1,1,-999999,1,156355,0,1,705,157060,Target1.bmp,red,1,,,,8,2,24
KW_Experiment5A,39,1,"<?xml version=""1.0""?>\n<Clock xmlns:dt=""urn:schemas-microsoft-com:datatypes""><Description dt:dt=""string"">E-Prime Primary Realtime Clock</Description><StartTime><Timestamp dt:dt=""int"">0</Timestamp><DateUtc dt:dt=""string"">2018-10-24T17:16:35Z</DateUtc></StartTime><FrequencyChanges><FrequencyChange><Frequency dt:dt=""r8"">3215273</Frequency><Timestamp dt:dt=""r8"">1300652066335</Timestamp><Current dt:dt=""r8"">0</Current><DateUtc dt:dt=""string"">2018-10-24T17:16:35Z</DateUtc></FrequencyChange></FrequencyChanges></Clock>\n",KW_Experiment5A-39-1,59.945,1.0.0.105,2,-722405570,Professional,2.0.10.353,2.0.10.353,10/24/2018,10/24/2018 17:16,13:16:35,2.0.10.248,2,2,1,2,,,,,,,,TrainingProc,BlockList,25,1,Distractor2.bmp,2,0,,0,1,158073,500,,0,0,cyan,500,2,500,,vertical,red,Target1.bmp,blue,Distractor2.bmp,yellow,Distractor2.bmp,purple,Distractor2.bmp,lime,Distractor2.bmp,cyan,Distractor2.bmp,,,,TrialProc,4,TrainingTrialList,1,1,-999999,0,158573,0,1,615,159188,Target1.bmp,red,1,,,,7,3,25
KW_Experiment5A,39,1,"<?xml version=""1.0""?>\n<Clock xmlns:dt=""urn:schemas-microsoft-com:datatypes""><Description dt:dt=""string"">E-Prime Primary Realtime Clock</Description><StartTime><Timestamp dt:dt=""int"">0</Timestamp><DateUtc dt:dt=""string"">2018-10-24T17:16:35Z</DateUtc></StartTime><FrequencyChanges><FrequencyChange><Frequency dt:dt=""r8"">3215273</Frequency><Timestamp dt:dt=""r8"">1300652066335</Timestamp><Current dt:dt=""r8"">0</Current><DateUtc dt:dt=""string"">2018-10-24T17:16:35Z</DateUtc></FrequencyChange></FrequencyChanges></Clock>\n",KW_Experiment5A-39-1,59.945,1.0.0.105,2,-722405570,Professional,2.0.10.353,2.0.10.353,10/24/2018,10/24/2018 17:16,13:16:35,2.0.10.248,2,2,1,2,,,,,,,,TrainingProc,BlockList,26,2,Distractor1.bmp,1,0,,0,1,160208,601,,0,0,blue,600,3,600,,horizontal,blue,Distractor1.bmp,red,Target2.bmp,purple,Distractor1.bmp,cyan,Distractor1.bmp,lime,Distractor2.bmp,yellow,Distractor1.bmp,,,,TrialProc,3,TrainingTrialList,1,2,-999999,1,160809,0,2,794,161603,Target2.bmp,red,2,,,,8,3,26
KW_Experiment5A,39,1,"<?xml version=""1.0""?>\n<Clock xmlns:dt=""urn:schemas-microsoft-com:datatypes""><Description dt:dt=""string"">E-Prime Primary Realtime Clock</Description><StartTime><Timestamp dt:dt=""int"">0</Timestamp><DateUtc dt:dt=""string"">2018-10-24T17:16:35Z</DateUtc></StartTime><FrequencyChanges><FrequencyChange><Frequency dt:dt=""r8"">3215273</Frequency><Timestamp dt:dt=""r8"">1300652066335</Timestamp><Current dt:dt=""r8"">0</Current><DateUtc dt:dt=""string"">2018-10-24T17:16:35Z</DateUtc></FrequencyChange></FrequencyChanges></Clock>\n",KW_Experiment5A-39-1,59.945,1.0.0.105,2,-722405570,Professional,2.0.10.353,2.0.10.353,10/24/2018,10/24/2018 17:16,13:16:35,2.0.10.248,2,2,1,2,,,,,,,,TrainingProc,BlockList,27,2,Distractor1.bmp,1,0,,0,1,162627,401,,0,0,cyan,400,1,400,,horizontal,cyan,Distractor1.bmp,yellow,Distractor1.bmp,red,Target2.bmp,purple,Distractor1.bmp,blue,Distractor1.bmp,lime,Distractor2.bmp,,,,TrialProc,4,TrainingTrialList,1,2,-999999,1,163028,0,2,1071,164099,Target2.bmp,red,2,,,,9,3,27
KW_Experiment5A,39,1,"<?xml version=""1.0""?>\n<Clock xmlns:dt=""urn:schemas-microsoft-com:datatypes""><Description dt:dt=""string"">E-Prime Primary Realtime Clock</Description><StartTime><Timestamp dt:dt=""int"">0</Timestamp><DateUtc dt:dt=""string"">2018-10-24T17:16:35Z</DateUtc></StartTime><FrequencyChanges><FrequencyChange><Frequency dt:dt=""r8"">3215273</Frequency><Timestamp dt:dt=""r8"">1300652066335</Timestamp><Current dt:dt=""r8"">0</Current><DateUtc dt:dt=""string"">2018-10-24T17:16:35Z</DateUtc></FrequencyChange></FrequencyChanges></Clock>\n",KW_Experiment5A-39-1,59.945,1.0.0.105,2,-722405570,Professional,2.0.10.353,2.0.10.353,10/24/2018,10/24/2018 17:16,13:16:35,2.0.10.248,2,2,1,2,,,,,,,,TrainingProc,BlockList,28,1,Distractor1.bmp,1,0,,0,1,165113,400,,0,0,cyan,400,1,400,,vertical,red,Target1.bmp,blue,Distractor1.bmp,yellow,Distractor1.bmp,lime,Distractor1.bmp,purple,Distractor1.bmp,cyan,Distractor2.bmp,,,,TrialProc,4,TrainingTrialList,1,1,-999999,0,165513,0,1,650,166163,Target1.bmp,red,1,,,,7,3,28
KW_Experiment5A,39,1,"<?xml version=""1.0""?>\n<Clock xmlns:dt=""urn:schemas-microsoft-com:datatypes""><Description dt:dt=""string"">E-Prime Primary Realtime Clock</Description><StartTime><Timestamp dt:dt=""int"">0</Timestamp><DateUtc dt:dt=""string"">2018-10-24T17:16:35Z</DateUtc></StartTime><FrequencyChanges><FrequencyChange><Frequency dt:dt=""r8"">3215273</Frequency><Timestamp dt:dt=""r8"">1300652066335</Timestamp><Current dt:dt=""r8"">0</Current><DateUtc dt:dt=""string"">2018-10-24T17:16:35Z</DateUtc></FrequencyChange></FrequencyChanges></Clock>\n",KW_Experiment5A-39-1,59.945,1.0.0.105,2,-722405570,Professional,2.0.10.353,2.0.10.353,10/24/2018,10/24/2018 17:16,13:16:35,2.0.10.248,2,2,1,2,,,,,,,,TrainingProc,BlockList,29,2,Distractor2.bmp,2,0,,0,1,167181,501,,0,0,cyan,500,2,500,4,horizontal,lime,Target2.bmp,cyan,Distractor2.bmp,purple,Distractor2.bmp,red,Distractor1.bmp,blue,Distractor1.bmp,yellow,Distractor1.bmp,,,,TrialProc,,TrainingTrialList,1,2,-999999,1,167682,0,2,1153,168835,Target2.bmp,lime,2,,,,1,3,29
KW_Experiment5A,39,1,"<?xml version=""1.0""?>\n<Clock xmlns:dt=""urn:schemas-microsoft-com:datatypes""><Description dt:dt=""string"">E-Prime Primary Realtime Clock</Description><StartTime><Timestamp dt:dt=""int"">0</Timestamp><DateUtc dt:dt=""string"">2018-10-24T17:16:35Z</DateUtc></StartTime><FrequencyChanges><FrequencyChange><Frequency dt:dt=""r8"">3215273</Frequency><Timestamp dt:dt=""r8"">1300652066335</Timestamp><Current dt:dt=""r8"">0</Current><DateUtc dt:dt=""string"">2018-10-24T17:16:35Z</DateUtc></FrequencyChange></FrequencyChanges></Clock>\n",KW_Experiment5A-39-1,59.945,1.0.0.105,2,-722405570,Professional,2.0.10.353,2.0.10.353,10/24/2018,10/24/2018 17:16,13:16:35,2.0.10.248,2,2,1,2,,,,,,,,TrainingProc,BlockList,30,1,Distractor2.bmp,2,0,,1,0,169850,601,,0,0,yellow,600,3,600,2,vertical,yellow,Distractor1.bmp,red,Distractor2.bmp,lime,Target1.bmp,purple,Distractor2.bmp,blue,Distractor1.bmp,cyan,Distractor2.bmp,,,,TrialProc,,TrainingTrialList,0,1,-999999,1,170451,0,2,1264,171715,Target1.bmp,lime,1,,,,3,3,30
KW_Experiment5A,39,1,"<?xml version=""1.0""?>\n<Clock xmlns:dt=""urn:schemas-microsoft-com:datatypes""><Description dt:dt=""string"">E-Prime Primary Realtime Clock</Description><StartTime><Timestamp dt:dt=""int"">0</Timestamp><DateUtc dt:dt=""string"">2018-10-24T17:16:35Z</DateUtc></StartTime><FrequencyChanges><FrequencyChange><Frequency dt:dt=""r8"">3215273</Frequency><Timestamp dt:dt=""r8"">1300652066335</Timestamp><Current dt:dt=""r8"">0</Current><DateUtc dt:dt=""string"">2018-10-24T17:16:35Z</DateUtc></FrequencyChange></FrequencyChanges></Clock>\n",KW_Experiment5A-39-1,59.945,1.0.0.105,2,-722405570,Professional,2.0.10.353,2.0.10.353,10/24/2018,10/24/2018 17:16,13:16:35,2.0.10.248,2,2,1,2,,,,,,,,TrainingProc,BlockList,31,2,Distractor2.bmp,2,0,,1,1,172736,501,,0,0,lime,500,2,500,,horizontal,red,Target2.bmp,cyan,Distractor2.bmp,blue,Distractor1.bmp,yellow,Distractor2.bmp,purple,Distractor2.bmp,lime,Distractor2.bmp,,,,TrialProc,6,TrainingTrialList,1,2,-999999,1,173237,0,2,942,174179,Target2.bmp,red,2,,,,7,3,31
KW_Experiment5A,39,1,"<?xml version=""1.0""?>\n<Clock xmlns:dt=""urn:schemas-microsoft-com:datatypes""><Description dt:dt=""string"">E-Prime Primary Realtime Clock</Description><StartTime><Timestamp dt:dt=""int"">0</Timestamp><DateUtc dt:dt=""string"">2018-10-24T17:16:35Z</DateUtc></StartTime><FrequencyChanges><FrequencyChange><Frequency dt:dt=""r8"">3215273</Frequency><Timestamp dt:dt=""r8"">1300652066335</Timestamp><Current dt:dt=""r8"">0</Current><DateUtc dt:dt=""string"">2018-10-24T17:16:35Z</DateUtc></FrequencyChange></FrequencyChanges></Clock>\n",KW_Experiment5A-39-1,59.945,1.0.0.105,2,-722405570,Professional,2.0.10.353,2.0.10.353,10/24/2018,10/24/2018 17:16,13:16:35,2.0.10.248,2,2,1,2,,,,,,,,TrainingProc,BlockList,32,2,Distractor2.bmp,2,0,,0,1,175205,501,,0,0,purple,500,2,500,,horizontal,purple,Distractor2.bmp,lime,Distractor2.bmp,blue,Distractor2.bmp,cyan,Distractor1.bmp,yellow,Distractor1.bmp,red,Target2.bmp,,,,TrialProc,5,TrainingTrialList,1,2,-999999,1,175706,0,2,633,176339,Target2.bmp,red,2,,,,12,3,32
KW_Experiment5A,39,1,"<?xml version=""1.0""?>\n<Clock xmlns:dt=""urn:schemas-microsoft-com:datatypes""><Description dt:dt=""string"">E-Prime Primary Realtime Clock</Description><StartTime><Timestamp dt:dt=""int"">0</Timestamp><DateUtc dt:dt=""string"">2018-10-24T17:16:35Z</DateUtc></StartTime><FrequencyChanges><FrequencyChange><Frequency dt:dt=""r8"">3215273</Frequency><Timestamp dt:dt=""r8"">1300652066335</Timestamp><Current dt:dt=""r8"">0</Current><DateUtc dt:dt=""string"">2018-10-24T17:16:35Z</DateUtc></FrequencyChange></FrequencyChanges></Clock>\n",KW_Experiment5A-39-1,59.945,1.0.0.105,2,-722405570,Professional,2.0.10.353,2.0.10.353,10/24/2018,10/24/2018 17:16,13:16:35,2.0.10.248,2,2,1,2,,,,,,,,TrainingProc,BlockList,33,2,Distractor1.bmp,1,0,,0,1,177357,401,,0,0,purple,400,1,400,,horizontal,purple,Distractor1.bmp,lime,Distractor1.bmp,yellow,Distractor2.bmp,blue,Distractor2.bmp,red,Target2.bmp,cyan,Distractor1.bmp,,,,TrialProc,5,TrainingTrialList,1,2,-999999,1,177758,0,2,1093,178851,Target2.bmp,red,2,,,,11,3,33
KW_Experiment5A,39,1,"<?xml version=""1.0""?>\n<Clock xmlns:dt=""urn:schemas-microsoft-com:datatypes""><Description dt:dt=""string"">E-Prime Primary Realtime Clock</Description><StartTime><Timestamp dt:dt=""int"">0</Timestamp><DateUtc dt:dt=""string"">2018-10-24T17:16:35Z</DateUtc></StartTime><FrequencyChanges><FrequencyChange><Frequency dt:dt=""r8"">3215273</Frequency><Timestamp dt:dt=""r8"">1300652066335</Timestamp><Current dt:dt=""r8"">0</Current><DateUtc dt:dt=""string"">2018-10-24T17:16:35Z</DateUtc></FrequencyChange></FrequencyChanges></Clock>\n",KW_Experiment5A-39-1,59.945,1.0.0.105,2,-722405570,Professional,2.0.10.353,2.0.10.353,10/24/2018,10/24/2018 17:16,13:16:35,2.0.10.248,2,2,1,2,,,,,,,,TrainingProc,BlockList,34,2,Distractor1.bmp,1,0,,0,1,179876,401,,0,0,purple,400,1,400,5,horizontal,purple,Distractor1.bmp,yellow,Distractor2.bmp,cyan,Distractor1.bmp,red,Distractor1.bmp,blue,Distractor2.bmp,lime,Target2.bmp,,,,TrialProc,,TrainingTrialList,1,2,-999999,1,180277,0,2,926,181203,Target2.bmp,lime,2,,,,6,3,34
KW_Experiment5A,39,1,"<?xml version=""1.0""?>\n<Clock xmlns:dt=""urn:schemas-microsoft-com:datatypes""><Description dt:dt=""string"">E-Prime Primary Realtime Clock</Description><StartTime><Timestamp dt:dt=""int"">0</Timestamp><DateUtc dt:dt=""string"">2018-10-24T17:16:35Z</DateUtc></StartTime><FrequencyChanges><FrequencyChange><Frequency dt:dt=""r8"">3215273</Frequency><Timestamp dt:dt=""r8"">1300652066335</Timestamp><Current dt:dt=""r8"">0</Current><DateUtc dt:dt=""string"">2018-10-24T17:16:35Z</DateUtc></FrequencyChange></FrequencyChanges></Clock>\n",KW_Experiment5A-39-1,59.945,1.0.0.105,2,-722405570,Professional,2.0.10.353,2.0.10.353,10/24/2018,10/24/2018 17:16,13:16:35,2.0.10.248,2,2,1,2,,,,,,,,TrainingProc,BlockList,35,2,Distractor1.bmp,1,0,,1,0,182228,601,,0,0,lime,600,3,600,,horizontal,lime,Distractor2.bmp,cyan,Distractor1.bmp,purple,Distractor2.bmp,red,Target2.bmp,blue,Distractor1.bmp,yellow,Distractor2.bmp,,,,TrialProc,6,TrainingTrialList,1,2,-999999,1,182829,0,2,1134,183963,Target2.bmp,red,2,,,,10,3,35
KW_Experiment5A,39,1,"<?xml version=""1.0""?>\n<Clock xmlns:dt=""urn:schemas-microsoft-com:datatypes""><Description dt:dt=""string"">E-Prime Primary Realtime Clock</Description><StartTime><Timestamp dt:dt=""int"">0</Timestamp><DateUtc dt:dt=""string"">2018-10-24T17:16:35Z</DateUtc></StartTime><FrequencyChanges><FrequencyChange><Frequency dt:dt=""r8"">3215273</Frequency><Timestamp dt:dt=""r8"">1300652066335</Timestamp><Current dt:dt=""r8"">0</Current><DateUtc dt:dt=""string"">2018-10-24T17:16:35Z</DateUtc></FrequencyChange></FrequencyChanges></Clock>\n",KW_Experiment5A-39-1,59.945,1.0.0.105,2,-722405570,Professional,2.0.10.353,2.0.10.353,10/24/2018,10/24/2018 17:16,13:16:35,2.0.10.248,2,2,1,2,,,,,,,,TrainingProc,BlockList,36,1,Distractor2.bmp,2,0,,0,1,184981,400,,0,0,lime,400,1,400,,vertical,lime,Distractor1.bmp,blue,Distractor2.bmp,cyan,Distractor1.bmp,red,Target1.bmp,yellow,Distractor2.bmp,purple,Distractor1.bmp,,,,TrialProc,6,TrainingTrialList,1,1,-999999,0,185381,0,1,1062,186443,Target1.bmp,red,1,,,,10,3,36
KW_Experiment5A,39,1,"<?xml version=""1.0""?>\n<Clock xmlns:dt=""urn:schemas-microsoft-com:datatypes""><Description dt:dt=""string"">E-Prime Primary Realtime Clock</Description><StartTime><Timestamp dt:dt=""int"">0</Timestamp><DateUtc dt:dt=""string"">2018-10-24T17:16:35Z</DateUtc></StartTime><FrequencyChanges><FrequencyChange><Frequency dt:dt=""r8"">3215273</Frequency><Timestamp dt:dt=""r8"">1300652066335</Timestamp><Current dt:dt=""r8"">0</Current><DateUtc dt:dt=""string"">2018-10-24T17:16:35Z</DateUtc></FrequencyChange></FrequencyChanges></Clock>\n",KW_Experiment5A-39-1,59.945,1.0.0.105,2,-722405570,Professional,2.0.10.353,2.0.10.353,10/24/2018,10/24/2018 17:16,13:16:35,2.0.10.248,2,2,1,2,,,,,,,,TrainingProc,BlockList,37,1,Distractor2.bmp,2,0,,0,1,187467,400,,0,0,cyan,400,1,400,,vertical,cyan,Distractor2.bmp,lime,Distractor1.bmp,purple,Distractor2.bmp,blue,Distractor1.bmp,yellow,Distractor1.bmp,red,Target1.bmp,,,,TrialProc,4,TrainingTrialList,1,1,-999999,0,187867,0,1,704,188571,Target1.bmp,red,1,,,,12,3,37
KW_Experiment5A,39,1,"<?xml version=""1.0""?>\n<Clock xmlns:dt=""urn:schemas-microsoft-com:datatypes""><Description dt:dt=""string"">E-Prime Primary Realtime Clock</Description><StartTime><Timestamp dt:dt=""int"">0</Timestamp><DateUtc dt:dt=""string"">2018-10-24T17:16:35Z</DateUtc></StartTime><FrequencyChanges><FrequencyChange><Frequency dt:dt=""r8"">3215273</Frequency><Timestamp dt:dt=""r8"">1300652066335</Timestamp><Current dt:dt=""r8"">0</Current><DateUtc dt:dt=""string"">2018-10-24T17:16:35Z</DateUtc></FrequencyChange></FrequencyChanges></Clock>\n",KW_Experiment5A-39-1,59.945,1.0.0.105,2,-722405570,Professional,2.0.10.353,2.0.10.353,10/24/2018,10/24/2018 17:16,13:16:35,2.0.10.248,2,2,1,2,,,,,,,,TrainingProc,BlockList,38,2,Distractor2.bmp,2,0,,0,1,189585,501,,0,0,cyan,500,2,500,,horizontal,cyan,Distractor2.bmp,lime,Distractor2.bmp,yellow,Distractor1.bmp,red,Target2.bmp,purple,Distractor2.bmp,blue,Distractor2.bmp,,,,TrialProc,4,TrainingTrialList,1,2,-999999,1,190086,0,2,661,190747,Target2.bmp,red,2,,,,10,3,38
KW_Experiment5A,39,1,"<?xml version=""1.0""?>\n<Clock xmlns:dt=""urn:schemas-microsoft-com:datatypes""><Description dt:dt=""string"">E-Prime Primary Realtime Clock</Description><StartTime><Timestamp dt:dt=""int"">0</Timestamp><DateUtc dt:dt=""string"">2018-10-24T17:16:35Z</DateUtc></StartTime><FrequencyChanges><FrequencyChange><Frequency dt:dt=""r8"">3215273</Frequency><Timestamp dt:dt=""r8"">1300652066335</Timestamp><Current dt:dt=""r8"">0</Current><DateUtc dt:dt=""string"">2018-10-24T17:16:35Z</DateUtc></FrequencyChange></FrequencyChanges></Clock>\n",KW_Experiment5A-39-1,59.945,1.0.0.105,2,-722405570,Professional,2.0.10.353,2.0.10.353,10/24/2018,10/24/2018 17:16,13:16:35,2.0.10.248,2,2,1,2,,,,,,,,TrainingProc,BlockList,39,1,Distractor1.bmp,1,0,,0,1,191771,400,,0,0,blue,400,1,400,,vertical,blue,Distractor1.bmp,lime,Distractor1.bmp,yellow,Distractor1.bmp,cyan,Distractor2.bmp,red,Target1.bmp,purple,Distractor1.bmp,,,,TrialProc,3,TrainingTrialList,1,1,-999999,0,192171,0,1,576,192747,Target1.bmp,red,1,,,,11,3,39
KW_Experiment5A,39,1,"<?xml version=""1.0""?>\n<Clock xmlns:dt=""urn:schemas-microsoft-com:datatypes""><Description dt:dt=""string"">E-Prime Primary Realtime Clock</Description><StartTime><Timestamp dt:dt=""int"">0</Timestamp><DateUtc dt:dt=""string"">2018-10-24T17:16:35Z</DateUtc></StartTime><FrequencyChanges><FrequencyChange><Frequency dt:dt=""r8"">3215273</Frequency><Timestamp dt:dt=""r8"">1300652066335</Timestamp><Current dt:dt=""r8"">0</Current><DateUtc dt:dt=""string"">2018-10-24T17:16:35Z</DateUtc></FrequencyChange></FrequencyChanges></Clock>\n",KW_Experiment5A-39-1,59.945,1.0.0.105,2,-722405570,Professional,2.0.10.353,2.0.10.353,10/24/2018,10/24/2018 17:16,13:16:35,2.0.10.248,2,2,1,2,,,,,,,,TrainingProc,BlockList,40,1,Distractor1.bmp,1,0,,0,1,193772,501,,0,0,lime,500,2,500,,vertical,lime,Distractor1.bmp,cyan,Distractor1.bmp,blue,Distractor1.bmp,purple,Distractor1.bmp,yellow,Distractor2.bmp,red,Target1.bmp,,,,TrialProc,6,TrainingTrialList,1,1,-999999,1,194273,0,1,626,194899,Target1.bmp,red,1,,,,12,3,40
KW_Experiment5A,39,1,"<?xml version=""1.0""?>\n<Clock xmlns:dt=""urn:schemas-microsoft-com:datatypes""><Description dt:dt=""string"">E-Prime Primary Realtime Clock</Description><StartTime><Timestamp dt:dt=""int"">0</Timestamp><DateUtc dt:dt=""string"">2018-10-24T17:16:35Z</DateUtc></StartTime><FrequencyChanges><FrequencyChange><Frequency dt:dt=""r8"">3215273</Frequency><Timestamp dt:dt=""r8"">1300652066335</Timestamp><Current dt:dt=""r8"">0</Current><DateUtc dt:dt=""string"">2018-10-24T17:16:35Z</DateUtc></FrequencyChange></FrequencyChanges></Clock>\n",KW_Experiment5A-39-1,59.945,1.0.0.105,2,-722405570,Professional,2.0.10.353,2.0.10.353,10/24/2018,10/24/2018 17:16,13:16:35,2.0.10.248,2,2,1,2,,,,,,,,TrainingProc,BlockList,41,2,Distractor2.bmp,2,0,,0,1,195924,501,,0,0,lime,500,2,500,,horizontal,lime,Distractor1.bmp,red,Target2.bmp,blue,Distractor2.bmp,cyan,Distractor1.bmp,yellow,Distractor2.bmp,purple,Distractor1.bmp,,,,TrialProc,6,TrainingTrialList,1,2,-999999,1,196425,0,2,642,197067,Target2.bmp,red,2,,,,8,3,41
KW_Experiment5A,39,1,"<?xml version=""1.0""?>\n<Clock xmlns:dt=""urn:schemas-microsoft-com:datatypes""><Description dt:dt=""string"">E-Prime Primary Realtime Clock</Description><StartTime><Timestamp dt:dt=""int"">0</Timestamp><DateUtc dt:dt=""string"">2018-10-24T17:16:35Z</DateUtc></StartTime><FrequencyChanges><FrequencyChange><Frequency dt:dt=""r8"">3215273</Frequency><Timestamp dt:dt=""r8"">1300652066335</Timestamp><Current dt:dt=""r8"">0</Current><DateUtc dt:dt=""string"">2018-10-24T17:16:35Z</DateUtc></FrequencyChange></FrequencyChanges></Clock>\n",KW_Experiment5A-39-1,59.945,1.0.0.105,2,-722405570,Professional,2.0.10.353,2.0.10.353,10/24/2018,10/24/2018 17:16,13:16:35,2.0.10.248,2,2,1,2,,,,,,,,TrainingProc,BlockList,42,2,Distractor2.bmp,2,0,,0,1,198076,501,,0,0,yellow,500,2,500,2,horizontal,yellow,Distractor1.bmp,cyan,Distractor1.bmp,blue,Distractor2.bmp,red,Distractor1.bmp,lime,Target2.bmp,purple,Distractor2.bmp,,,,TrialProc,,TrainingTrialList,1,2,-999999,1,198577,0,2,522,199099,Target2.bmp,lime,2,,,,5,3,42
KW_Experiment5A,39,1,"<?xml version=""1.0""?>\n<Clock xmlns:dt=""urn:schemas-microsoft-com:datatypes""><Description dt:dt=""string"">E-Prime Primary Realtime Clock</Description><StartTime><Timestamp dt:dt=""int"">0</Timestamp><DateUtc dt:dt=""string"">2018-10-24T17:16:35Z</DateUtc></StartTime><FrequencyChanges><FrequencyChange><Frequency dt:dt=""r8"">3215273</Frequency><Timestamp dt:dt=""r8"">1300652066335</Timestamp><Current dt:dt=""r8"">0</Current><DateUtc dt:dt=""string"">2018-10-24T17:16:35Z</DateUtc></FrequencyChange></FrequencyChanges></Clock>\n",KW_Experiment5A-39-1,59.945,1.0.0.105,2,-722405570,Professional,2.0.10.353,2.0.10.353,10/24/2018,10/24/2018 17:16,13:16:35,2.0.10.248,2,2,1,2,,,,,,,,TrainingProc,BlockList,43,2,Distractor2.bmp,2,0,,1,0,200111,401,,0,0,lime,400,1,400,,horizontal,lime,Distractor2.bmp,cyan,Distractor2.bmp,blue,Distractor1.bmp,purple,Distractor1.bmp,red,Target2.bmp,yellow,Distractor2.bmp,,,,TrialProc,6,TrainingTrialList,0,2,-999999,1,200512,0,1,579,201091,Target2.bmp,red,2,,,,11,3,43
KW_Experiment5A,39,1,"<?xml version=""1.0""?>\n<Clock xmlns:dt=""urn:schemas-microsoft-com:datatypes""><Description dt:dt=""string"">E-Prime Primary Realtime Clock</Description><StartTime><Timestamp dt:dt=""int"">0</Timestamp><DateUtc dt:dt=""string"">2018-10-24T17:16:35Z</DateUtc></StartTime><FrequencyChanges><FrequencyChange><Frequency dt:dt=""r8"">3215273</Frequency><Timestamp dt:dt=""r8"">1300652066335</Timestamp><Current dt:dt=""r8"">0</Current><DateUtc dt:dt=""string"">2018-10-24T17:16:35Z</DateUtc></FrequencyChange></FrequencyChanges></Clock>\n",KW_Experiment5A-39-1,59.945,1.0.0.105,2,-722405570,Professional,2.0.10.353,2.0.10.353,10/24/2018,10/24/2018 17:16,13:16:35,2.0.10.248,2,2,1,2,,,,,,,,TrainingProc,BlockList,44,2,Distractor2.bmp,2,0,,0,1,202113,601,,0,0,purple,600,3,600,,horizontal,purple,Distractor2.bmp,cyan,Distractor2.bmp,red,Target2.bmp,blue,Distractor2.bmp,lime,Distractor2.bmp,yellow,Distractor1.bmp,,,,TrialProc,5,TrainingTrialList,1,2,-999999,1,202714,0,2,81,202795,Target2.bmp,red,2,,,,9,3,44
KW_Experiment5A,39,1,"<?xml version=""1.0""?>\n<Clock xmlns:dt=""urn:schemas-microsoft-com:datatypes""><Description dt:dt=""string"">E-Prime Primary Realtime Clock</Description><StartTime><Timestamp dt:dt=""int"">0</Timestamp><DateUtc dt:dt=""string"">2018-10-24T17:16:35Z</DateUtc></StartTime><FrequencyChanges><FrequencyChange><Frequency dt:dt=""r8"">3215273</Frequency><Timestamp dt:dt=""r8"">1300652066335</Timestamp><Current dt:dt=""r8"">0</Current><DateUtc dt:dt=""string"">2018-10-24T17:16:35Z</DateUtc></FrequencyChange></FrequencyChanges></Clock>\n",KW_Experiment5A-39-1,59.945,1.0.0.105,2,-722405570,Professional,2.0.10.353,2.0.10.353,10/24/2018,10/24/2018 17:16,13:16:35,2.0.10.248,2,2,1,2,,,,,,,,TrainingProc,BlockList,45,1,Distractor1.bmp,1,0,,0,1,203815,500,,0,0,lime,500,2,500,,vertical,lime,Distractor1.bmp,red,Target1.bmp,purple,Distractor1.bmp,yellow,Distractor2.bmp,cyan,Distractor2.bmp,blue,Distractor2.bmp,,,,TrialProc,6,TrainingTrialList,1,1,-999999,0,204315,0,1,880,205195,Target1.bmp,red,1,,,,8,3,45
KW_Experiment5A,39,1,"<?xml version=""1.0""?>\n<Clock xmlns:dt=""urn:schemas-microsoft-com:datatypes""><Description dt:dt=""string"">E-Prime Primary Realtime Clock</Description><StartTime><Timestamp dt:dt=""int"">0</Timestamp><DateUtc dt:dt=""string"">2018-10-24T17:16:35Z</DateUtc></StartTime><FrequencyChanges><FrequencyChange><Frequency dt:dt=""r8"">3215273</Frequency><Timestamp dt:dt=""r8"">1300652066335</Timestamp><Current dt:dt=""r8"">0</Current><DateUtc dt:dt=""string"">2018-10-24T17:16:35Z</DateUtc></FrequencyChange></FrequencyChanges></Clock>\n",KW_Experiment5A-39-1,59.945,1.0.0.105,2,-722405570,Professional,2.0.10.353,2.0.10.353,10/24/2018,10/24/2018 17:16,13:16:35,2.0.10.248,2,2,1,2,,,,,,,,TrainingProc,BlockList,46,1,Distractor1.bmp,1,0,,0,1,206217,601,,0,0,yellow,600,3,600,2,vertical,yellow,Distractor2.bmp,lime,Target1.bmp,red,Distractor1.bmp,cyan,Distractor2.bmp,blue,Distractor1.bmp,purple,Distractor1.bmp,,,,TrialProc,,TrainingTrialList,1,1,-999999,1,206818,0,1,633,207451,Target1.bmp,lime,1,,,,2,3,46
KW_Experiment5A,39,1,"<?xml version=""1.0""?>\n<Clock xmlns:dt=""urn:schemas-microsoft-com:datatypes""><Description dt:dt=""string"">E-Prime Primary Realtime Clock</Description><StartTime><Timestamp dt:dt=""int"">0</Timestamp><DateUtc dt:dt=""string"">2018-10-24T17:16:35Z</DateUtc></StartTime><FrequencyChanges><FrequencyChange><Frequency dt:dt=""r8"">3215273</Frequency><Timestamp dt:dt=""r8"">1300652066335</Timestamp><Current dt:dt=""r8"">0</Current><DateUtc dt:dt=""string"">2018-10-24T17:16:35Z</DateUtc></FrequencyChange></FrequencyChanges></Clock>\n",KW_Experiment5A-39-1,59.945,1.0.0.105,2,-722405570,Professional,2.0.10.353,2.0.10.353,10/24/2018,10/24/2018 17:16,13:16:35,2.0.10.248,2,2,1,2,,,,,,,,TrainingProc,BlockList,47,2,Distractor2.bmp,2,0,,0,1,208469,400,,0,0,cyan,400,1,400,4,horizontal,cyan,Distractor1.bmp,purple,Distractor1.bmp,red,Distractor1.bmp,lime,Target2.bmp,blue,Distractor2.bmp,yellow,Distractor1.bmp,,,,TrialProc,,TrainingTrialList,1,2,-999999,0,208869,0,2,918,209787,Target2.bmp,lime,2,,,,4,3,47
KW_Experiment5A,39,1,"<?xml version=""1.0""?>\n<Clock xmlns:dt=""urn:schemas-microsoft-com:datatypes""><Description dt:dt=""string"">E-Prime Primary Realtime Clock</Description><StartTime><Timestamp dt:dt=""int"">0</Timestamp><DateUtc dt:dt=""string"">2018-10-24T17:16:35Z</DateUtc></StartTime><FrequencyChanges><FrequencyChange><Frequency dt:dt=""r8"">3215273</Frequency><Timestamp dt:dt=""r8"">1300652066335</Timestamp><Current dt:dt=""r8"">0</Current><DateUtc dt:dt=""string"">2018-10-24T17:16:35Z</DateUtc></FrequencyChange></FrequencyChanges></Clock>\n",KW_Experiment5A-39-1,59.945,1.0.0.105,2,-722405570,Professional,2.0.10.353,2.0.10.353,10/24/2018,10/24/2018 17:16,13:16:35,2.0.10.248,2,2,1,2,,,,,,,,TrainingProc,BlockList,48,2,Distractor2.bmp,2,0,,0,1,210805,600,,0,0,yellow,600,3,600,,horizontal,yellow,Distractor2.bmp,blue,Distractor1.bmp,red,Target2.bmp,cyan,Distractor2.bmp,purple,Distractor1.bmp,lime,Distractor1.bmp,,,,TrialProc,2,TrainingTrialList,1,2,-999999,0,211405,0,2,1094,212499,Target2.bmp,red,2,,,,9,3,48
KW_Experiment5A,39,1,"<?xml version=""1.0""?>\n<Clock xmlns:dt=""urn:schemas-microsoft-com:datatypes""><Description dt:dt=""string"">E-Prime Primary Realtime Clock</Description><StartTime><Timestamp dt:dt=""int"">0</Timestamp><DateUtc dt:dt=""string"">2018-10-24T17:16:35Z</DateUtc></StartTime><FrequencyChanges><FrequencyChange><Frequency dt:dt=""r8"">3215273</Frequency><Timestamp dt:dt=""r8"">1300652066335</Timestamp><Current dt:dt=""r8"">0</Current><DateUtc dt:dt=""string"">2018-10-24T17:16:35Z</DateUtc></FrequencyChange></FrequencyChanges></Clock>\n",KW_Experiment5A-39-1,59.945,1.0.0.105,2,-722405570,Professional,2.0.10.353,2.0.10.353,10/24/2018,10/24/2018 17:16,13:16:35,2.0.10.248,3,2,1,3,,,,,,,,TrainingProc,BlockList,1,1,Distractor1.bmp,1,0,,0,24,215075,601,,0,0,yellow,600,3,600,2,vertical,yellow,Distractor2.bmp,lime,Target1.bmp,blue,Distractor1.bmp,purple,Distractor2.bmp,red,Distractor1.bmp,cyan,Distractor1.bmp,,,,TrialProc,,TrainingTrialList,1,1,-999999,1,215676,0,1,574,216250,Target1.bmp,lime,1,,,,2,4,49
KW_Experiment5A,39,1,"<?xml version=""1.0""?>\n<Clock xmlns:dt=""urn:schemas-microsoft-com:datatypes""><Description dt:dt=""string"">E-Prime Primary Realtime Clock</Description><StartTime><Timestamp dt:dt=""int"">0</Timestamp><DateUtc dt:dt=""string"">2018-10-24T17:16:35Z</DateUtc></StartTime><FrequencyChanges><FrequencyChange><Frequency dt:dt=""r8"">3215273</Frequency><Timestamp dt:dt=""r8"">1300652066335</Timestamp><Current dt:dt=""r8"">0</Current><DateUtc dt:dt=""string"">2018-10-24T17:16:35Z</DateUtc></FrequencyChange></FrequencyChanges></Clock>\n",KW_Experiment5A-39-1,59.945,1.0.0.105,2,-722405570,Professional,2.0.10.353,2.0.10.353,10/24/2018,10/24/2018 17:16,13:16:35,2.0.10.248,3,2,1,3,,,,,,,,TrainingProc,BlockList,2,1,Distractor2.bmp,2,0,,0,1,217261,500,,0,0,yellow,500,2,500,,vertical,yellow,Distractor1.bmp,blue,Distractor1.bmp,cyan,Distractor1.bmp,red,Target1.bmp,purple,Distractor2.bmp,lime,Distractor1.bmp,,,,TrialProc,2,TrainingTrialList,1,1,-999999,0,217761,0,1,705,218466,Target1.bmp,red,1,,,,10,4,50
KW_Experiment5A,39,1,"<?xml version=""1.0""?>\n<Clock xmlns:dt=""urn:schemas-microsoft-com:datatypes""><Description dt:dt=""string"">E-Prime Primary Realtime Clock</Description><StartTime><Timestamp dt:dt=""int"">0</Timestamp><DateUtc dt:dt=""string"">2018-10-24T17:16:35Z</DateUtc></StartTime><FrequencyChanges><FrequencyChange><Frequency dt:dt=""r8"">3215273</Frequency><Timestamp dt:dt=""r8"">1300652066335</Timestamp><Current dt:dt=""r8"">0</Current><DateUtc dt:dt=""string"">2018-10-24T17:16:35Z</DateUtc></FrequencyChange></FrequencyChanges></Clock>\n",KW_Experiment5A-39-1,59.945,1.0.0.105,2,-722405570,Professional,2.0.10.353,2.0.10.353,10/24/2018,10/24/2018 17:16,13:16:35,2.0.10.248,3,2,1,3,,,,,,,,TrainingProc,BlockList,3,1,Distractor1.bmp,1,0,,0,1,219479,601,,0,0,cyan,600,3,600,,vertical,cyan,Distractor1.bmp,yellow,Distractor1.bmp,red,Target1.bmp,lime,Distractor1.bmp,purple,Distractor1.bmp,blue,Distractor1.bmp,,,,TrialProc,4,TrainingTrialList,0,1,-999999,1,220080,0,2,754,220834,Target1.bmp,red,1,,,,9,4,51
KW_Experiment5A,39,1,"<?xml version=""1.0""?>\n<Clock xmlns:dt=""urn:schemas-microsoft-com:datatypes""><Description dt:dt=""string"">E-Prime Primary Realtime Clock</Description><StartTime><Timestamp dt:dt=""int"">0</Timestamp><DateUtc dt:dt=""string"">2018-10-24T17:16:35Z</DateUtc></StartTime><FrequencyChanges><FrequencyChange><Frequency dt:dt=""r8"">3215273</Frequency><Timestamp dt:dt=""r8"">1300652066335</Timestamp><Current dt:dt=""r8"">0</Current><DateUtc dt:dt=""string"">2018-10-24T17:16:35Z</DateUtc></FrequencyChange></FrequencyChanges></Clock>\n",KW_Experiment5A-39-1,59.945,1.0.0.105,2,-722405570,Professional,2.0.10.353,2.0.10.353,10/24/2018,10/24/2018 17:16,13:16:35,2.0.10.248,3,2,1,3,,,,,,,,TrainingProc,BlockList,4,1,Distractor1.bmp,1,0,,0,1,221848,400,,0,0,blue,400,1,400,,vertical,blue,Distractor1.bmp,yellow,Distractor2.bmp,cyan,Distractor1.bmp,purple,Distractor2.bmp,red,Target1.bmp,lime,Distractor1.bmp,,,,TrialProc,3,TrainingTrialList,1,1,-999999,0,222248,0,1,666,222914,Target1.bmp,red,1,,,,11,4,52
KW_Experiment5A,39,1,"<?xml version=""1.0""?>\n<Clock xmlns:dt=""urn:schemas-microsoft-com:datatypes""><Description dt:dt=""string"">E-Prime Primary Realtime Clock</Description><StartTime><Timestamp dt:dt=""int"">0</Timestamp><DateUtc dt:dt=""string"">2018-10-24T17:16:35Z</DateUtc></StartTime><FrequencyChanges><FrequencyChange><Frequency dt:dt=""r8"">3215273</Frequency><Timestamp dt:dt=""r8"">1300652066335</Timestamp><Current dt:dt=""r8"">0</Current><DateUtc dt:dt=""string"">2018-10-24T17:16:35Z</DateUtc></FrequencyChange></FrequencyChanges></Clock>\n",KW_Experiment5A-39-1,59.945,1.0.0.105,2,-722405570,Professional,2.0.10.353,2.0.10.353,10/24/2018,10/24/2018 17:16,13:16:35,2.0.10.248,3,2,1,3,,,,,,,,TrainingProc,BlockList,5,2,Distractor2.bmp,2,0,,0,1,223933,401,,0,0,cyan,400,1,400,4,horizontal,lime,Target2.bmp,cyan,Distractor2.bmp,blue,Distractor1.bmp,yellow,Distractor2.bmp,purple,Distractor1.bmp,red,Distractor1.bmp,,,,TrialProc,,TrainingTrialList,1,2,-999999,1,224334,0,2,652,224986,Target2.bmp,lime,2,,,,1,4,53
KW_Experiment5A,39,1,"<?xml version=""1.0""?>\n<Clock xmlns:dt=""urn:schemas-microsoft-com:datatypes""><Description dt:dt=""string"">E-Prime Primary Realtime Clock</Description><StartTime><Timestamp dt:dt=""int"">0</Timestamp><DateUtc dt:dt=""string"">2018-10-24T17:16:35Z</DateUtc></StartTime><FrequencyChanges><FrequencyChange><Frequency dt:dt=""r8"">3215273</Frequency><Timestamp dt:dt=""r8"">1300652066335</Timestamp><Current dt:dt=""r8"">0</Current><DateUtc dt:dt=""string"">2018-10-24T17:16:35Z</DateUtc></FrequencyChange></FrequencyChanges></Clock>\n",KW_Experiment5A-39-1,59.945,1.0.0.105,2,-722405570,Professional,2.0.10.353,2.0.10.353,10/24/2018,10/24/2018 17:16,13:16:35,2.0.10.248,3,2,1,3,,,,,,,,TrainingProc,BlockList,6,2,Distractor1.bmp,1,0,,0,1,226002,400,,0,0,blue,400,1,400,3,horizontal,blue,Distractor1.bmp,yellow,Distractor1.bmp,lime,Target2.bmp,cyan,Distractor1.bmp,purple,Distractor1.bmp,red,Distractor2.bmp,,,,TrialProc,,TrainingTrialList,1,2,-999999,0,226402,0,2,904,227306,Target2.bmp,lime,2,,,,3,4,54
KW_Experiment5A,39,1,"<?xml version=""1.0""?>\n<Clock xmlns:dt=""urn:schemas-microsoft-com:datatypes""><Description dt:dt=""string"">E-Prime Primary Realtime Clock</Description><StartTime><Timestamp dt:dt=""int"">0</Timestamp><DateUtc dt:dt=""string"">2018-10-24T17:16:35Z</DateUtc></StartTime><FrequencyChanges><FrequencyChange><Frequency dt:dt=""r8"">3215273</Frequency><Timestamp dt:dt=""r8"">1300652066335</Timestamp><Current dt:dt=""r8"">0</Current><DateUtc dt:dt=""string"">2018-10-24T17:16:35Z</DateUtc></FrequencyChange></FrequencyChanges></Clock>\n",KW_Experiment5A-39-1,59.945,1.0.0.105,2,-722405570,Professional,2.0.10.353,2.0.10.353,10/24/2018,10/24/2018 17:16,13:16:35,2.0.10.248,3,2,1,3,,,,,,,,TrainingProc,BlockList,7,2,Distractor2.bmp,2,0,,0,1,228321,400,,0,0,purple,400,1,400,,horizontal,purple,Distractor2.bmp,lime,Distractor1.bmp,cyan,Distractor1.bmp,yellow,Distractor1.bmp,blue,Distractor2.bmp,red,Target2.bmp,,,,TrialProc,5,TrainingTrialList,0,2,-999999,0,228721,0,1,833,229554,Target2.bmp,red,2,,,,12,4,55
KW_Experiment5A,39,1,"<?xml version=""1.0""?>\n<Clock xmlns:dt=""urn:schemas-microsoft-com:datatypes""><Description dt:dt=""string"">E-Prime Primary Realtime Clock</Description><StartTime><Timestamp dt:dt=""int"">0</Timestamp><DateUtc dt:dt=""string"">2018-10-24T17:16:35Z</DateUtc></StartTime><FrequencyChanges><FrequencyChange><Frequency dt:dt=""r8"">3215273</Frequency><Timestamp dt:dt=""r8"">1300652066335</Timestamp><Current dt:dt=""r8"">0</Current><DateUtc dt:dt=""string"">2018-10-24T17:16:35Z</DateUtc></FrequencyChange></FrequencyChanges></Clock>\n",KW_Experiment5A-39-1,59.945,1.0.0.105,2,-722405570,Professional,2.0.10.353,2.0.10.353,10/24/2018,10/24/2018 17:16,13:16:35,2.0.10.248,3,2,1,3,,,,,,,,TrainingProc,BlockList,8,2,Distractor1.bmp,1,0,,0,1,230573,600,,0,0,blue,600,3,600,,horizontal,red,Target2.bmp,purple,Distractor1.bmp,yellow,Distractor1.bmp,lime,Distractor2.bmp,cyan,Distractor2.bmp,blue,Distractor1.bmp,,,,TrialProc,3,TrainingTrialList,1,2,-999999,0,231173,0,2,621,231794,Target2.bmp,red,2,,,,7,4,56
KW_Experiment5A,39,1,"<?xml version=""1.0""?>\n<Clock xmlns:dt=""urn:schemas-microsoft-com:datatypes""><Description dt:dt=""string"">E-Prime Primary Realtime Clock</Description><StartTime><Timestamp dt:dt=""int"">0</Timestamp><DateUtc dt:dt=""string"">2018-10-24T17:16:35Z</DateUtc></StartTime><FrequencyChanges><FrequencyChange><Frequency dt:dt=""r8"">3215273</Frequency><Timestamp dt:dt=""r8"">1300652066335</Timestamp><Current dt:dt=""r8"">0</Current><DateUtc dt:dt=""string"">2018-10-24T17:16:35Z</DateUtc></FrequencyChange></FrequencyChanges></Clock>\n",KW_Experiment5A-39-1,59.945,1.0.0.105,2,-722405570,Professional,2.0.10.353,2.0.10.353,10/24/2018,10/24/2018 17:16,13:16:35,2.0.10.248,3,2,1,3,,,,,,,,TrainingProc,BlockList,9,2,Distractor2.bmp,2,0,,0,1,232808,400,,0,0,cyan,400,1,400,,horizontal,cyan,Distractor1.bmp,lime,Distractor1.bmp,yellow,Distractor1.bmp,blue,Distractor1.bmp,red,Target2.bmp,purple,Distractor2.bmp,,,,TrialProc,4,TrainingTrialList,1,2,-999999,0,233208,0,2,714,233922,Target2.bmp,red,2,,,,11,4,57
KW_Experiment5A,39,1,"<?xml version=""1.0""?>\n<Clock xmlns:dt=""urn:schemas-microsoft-com:datatypes""><Description dt:dt=""string"">E-Prime Primary Realtime Clock</Description><StartTime><Timestamp dt:dt=""int"">0</Timestamp><DateUtc dt:dt=""string"">2018-10-24T17:16:35Z</DateUtc></StartTime><FrequencyChanges><FrequencyChange><Frequency dt:dt=""r8"">3215273</Frequency><Timestamp dt:dt=""r8"">1300652066335</Timestamp><Current dt:dt=""r8"">0</Current><DateUtc dt:dt=""string"">2018-10-24T17:16:35Z</DateUtc></FrequencyChange></FrequencyChanges></Clock>\n",KW_Experiment5A-39-1,59.945,1.0.0.105,2,-722405570,Professional,2.0.10.353,2.0.10.353,10/24/2018,10/24/2018 17:16,13:16:35,2.0.10.248,3,2,1,3,,,,,,,,TrainingProc,BlockList,10,1,Distractor1.bmp,1,0,,0,1,234943,401,,0,0,lime,400,1,400,,vertical,lime,Distractor1.bmp,red,Target1.bmp,cyan,Distractor1.bmp,blue,Distractor1.bmp,yellow,Distractor1.bmp,purple,Distractor1.bmp,,,,TrialProc,6,TrainingTrialList,1,1,-999999,1,235344,0,1,530,235874,Target1.bmp,red,1,,,,8,4,58
KW_Experiment5A,39,1,"<?xml version=""1.0""?>\n<Clock xmlns:dt=""urn:schemas-microsoft-com:datatypes""><Description dt:dt=""string"">E-Prime Primary Realtime Clock</Description><StartTime><Timestamp dt:dt=""int"">0</Timestamp><DateUtc dt:dt=""string"">2018-10-24T17:16:35Z</DateUtc></StartTime><FrequencyChanges><FrequencyChange><Frequency dt:dt=""r8"">3215273</Frequency><Timestamp dt:dt=""r8"">1300652066335</Timestamp><Current dt:dt=""r8"">0</Current><DateUtc dt:dt=""string"">2018-10-24T17:16:35Z</DateUtc></FrequencyChange></FrequencyChanges></Clock>\n",KW_Experiment5A-39-1,59.945,1.0.0.105,2,-722405570,Professional,2.0.10.353,2.0.10.353,10/24/2018,10/24/2018 17:16,13:16:35,2.0.10.248,3,2,1,3,,,,,,,,TrainingProc,BlockList,11,2,Distractor1.bmp,1,0,,0,1,236895,501,,0,0,blue,500,2,500,3,horizontal,blue,Distractor1.bmp,yellow,Distractor1.bmp,purple,Distractor2.bmp,lime,Target2.bmp,cyan,Distractor1.bmp,red,Distractor1.bmp,,,,TrialProc,,TrainingTrialList,0,2,-999999,1,237396,0,1,678,238074,Target2.bmp,lime,2,,,,4,4,59
KW_Experiment5A,39,1,"<?xml version=""1.0""?>\n<Clock xmlns:dt=""urn:schemas-microsoft-com:datatypes""><Description dt:dt=""string"">E-Prime Primary Realtime Clock</Description><StartTime><Timestamp dt:dt=""int"">0</Timestamp><DateUtc dt:dt=""string"">2018-10-24T17:16:35Z</DateUtc></StartTime><FrequencyChanges><FrequencyChange><Frequency dt:dt=""r8"">3215273</Frequency><Timestamp dt:dt=""r8"">1300652066335</Timestamp><Current dt:dt=""r8"">0</Current><DateUtc dt:dt=""string"">2018-10-24T17:16:35Z</DateUtc></FrequencyChange></FrequencyChanges></Clock>\n",KW_Experiment5A-39-1,59.945,1.0.0.105,2,-722405570,Professional,2.0.10.353,2.0.10.353,10/24/2018,10/24/2018 17:16,13:16:35,2.0.10.248,3,2,1,3,,,,,,,,TrainingProc,BlockList,12,1,Distractor1.bmp,1,0,,0,1,239097,400,,0,0,purple,400,1,400,,vertical,purple,Distractor1.bmp,lime,Distractor2.bmp,blue,Distractor1.bmp,cyan,Distractor1.bmp,yellow,Distractor2.bmp,red,Target1.bmp,,,,TrialProc,5,TrainingTrialList,1,1,-999999,0,239497,0,1,825,240322,Target1.bmp,red,1,,,,12,4,60
KW_Experiment5A,39,1,"<?xml version=""1.0""?>\n<Clock xmlns:dt=""urn:schemas-microsoft-com:datatypes""><Description dt:dt=""string"">E-Prime Primary Realtime Clock</Description><StartTime><Timestamp dt:dt=""int"">0</Timestamp><DateUtc dt:dt=""string"">2018-10-24T17:16:35Z</DateUtc></StartTime><FrequencyChanges><FrequencyChange><Frequency dt:dt=""r8"">3215273</Frequency><Timestamp dt:dt=""r8"">1300652066335</Timestamp><Current dt:dt=""r8"">0</Current><DateUtc dt:dt=""string"">2018-10-24T17:16:35Z</DateUtc></FrequencyChange></FrequencyChanges></Clock>\n",KW_Experiment5A-39-1,59.945,1.0.0.105,2,-722405570,Professional,2.0.10.353,2.0.10.353,10/24/2018,10/24/2018 17:16,13:16:35,2.0.10.248,3,2,1,3,,,,,,,,TrainingProc,BlockList,13,1,Distractor1.bmp,1,0,,0,1,241333,400,,0,0,purple,400,1,400,,vertical,purple,Distractor1.bmp,blue,Distractor2.bmp,red,Target1.bmp,yellow,Distractor1.bmp,lime,Distractor1.bmp,cyan,Distractor2.bmp,,,,TrialProc,5,TrainingTrialList,1,1,-999999,0,241733,0,1,573,242306,Target1.bmp,red,1,,,,9,4,61
KW_Experiment5A,39,1,"<?xml version=""1.0""?>\n<Clock xmlns:dt=""urn:schemas-microsoft-com:datatypes""><Description dt:dt=""string"">E-Prime Primary Realtime Clock</Description><StartTime><Timestamp dt:dt=""int"">0</Timestamp><DateUtc dt:dt=""string"">2018-10-24T17:16:35Z</DateUtc></StartTime><FrequencyChanges><FrequencyChange><Frequency dt:dt=""r8"">3215273</Frequency><Timestamp dt:dt=""r8"">1300652066335</Timestamp><Current dt:dt=""r8"">0</Current><DateUtc dt:dt=""string"">2018-10-24T17:16:35Z</DateUtc></FrequencyChange></FrequencyChanges></Clock>\n",KW_Experiment5A-39-1,59.945,1.0.0.105,2,-722405570,Professional,2.0.10.353,2.0.10.353,10/24/2018,10/24/2018 17:16,13:16:35,2.0.10.248,3,2,1,3,,,,,,,,TrainingProc,BlockList,14,2,Distractor2.bmp,2,0,,0,1,243318,400,,0,0,red,400,1,400,1,horizontal,red,Distractor2.bmp,yellow,Distractor1.bmp,cyan,Distractor2.bmp,blue,Distractor2.bmp,purple,Distractor2.bmp,lime,Target2.bmp,,,,TrialProc,,TrainingTrialList,1,2,-999999,0,243718,0,2,620,244338,Target2.bmp,lime,2,,,,6,4,62
KW_Experiment5A,39,1,"<?xml version=""1.0""?>\n<Clock xmlns:dt=""urn:schemas-microsoft-com:datatypes""><Description dt:dt=""string"">E-Prime Primary Realtime Clock</Description><StartTime><Timestamp dt:dt=""int"">0</Timestamp><DateUtc dt:dt=""string"">2018-10-24T17:16:35Z</DateUtc></StartTime><FrequencyChanges><FrequencyChange><Frequency dt:dt=""r8"">3215273</Frequency><Timestamp dt:dt=""r8"">1300652066335</Timestamp><Current dt:dt=""r8"">0</Current><DateUtc dt:dt=""string"">2018-10-24T17:16:35Z</DateUtc></FrequencyChange></FrequencyChanges></Clock>\n",KW_Experiment5A-39-1,59.945,1.0.0.105,2,-722405570,Professional,2.0.10.353,2.0.10.353,10/24/2018,10/24/2018 17:16,13:16:35,2.0.10.248,3,2,1,3,,,,,,,,TrainingProc,BlockList,15,2,Distractor1.bmp,1,0,,0,1,245353,400,,0,0,yellow,400,1,400,,horizontal,yellow,Distractor2.bmp,red,Target2.bmp,purple,Distractor1.bmp,blue,Distractor1.bmp,cyan,Distractor2.bmp,lime,Distractor2.bmp,,,,TrialProc,2,TrainingTrialList,0,2,-999999,0,245753,0,1,889,246642,Target2.bmp,red,2,,,,8,4,63
KW_Experiment5A,39,1,"<?xml version=""1.0""?>\n<Clock xmlns:dt=""urn:schemas-microsoft-com:datatypes""><Description dt:dt=""string"">E-Prime Primary Realtime Clock</Description><StartTime><Timestamp dt:dt=""int"">0</Timestamp><DateUtc dt:dt=""string"">2018-10-24T17:16:35Z</DateUtc></StartTime><FrequencyChanges><FrequencyChange><Frequency dt:dt=""r8"">3215273</Frequency><Timestamp dt:dt=""r8"">1300652066335</Timestamp><Current dt:dt=""r8"">0</Current><DateUtc dt:dt=""string"">2018-10-24T17:16:35Z</DateUtc></FrequencyChange></FrequencyChanges></Clock>\n",KW_Experiment5A-39-1,59.945,1.0.0.105,2,-722405570,Professional,2.0.10.353,2.0.10.353,10/24/2018,10/24/2018 17:16,13:16:35,2.0.10.248,3,2,1,3,,,,,,,,TrainingProc,BlockList,16,2,Distractor2.bmp,2,0,,0,1,247655,601,,0,0,yellow,600,3,600,,horizontal,yellow,Distractor1.bmp,red,Target2.bmp,cyan,Distractor2.bmp,lime,Distractor1.bmp,blue,Distractor1.bmp,purple,Distractor1.bmp,,,,TrialProc,2,TrainingTrialList,1,2,-999999,1,248256,0,2,642,248898,Target2.bmp,red,2,,,,8,4,64
KW_Experiment5A,39,1,"<?xml version=""1.0""?>\n<Clock xmlns:dt=""urn:schemas-microsoft-com:datatypes""><Description dt:dt=""string"">E-Prime Primary Realtime Clock</Description><StartTime><Timestamp dt:dt=""int"">0</Timestamp><DateUtc dt:dt=""string"">2018-10-24T17:16:35Z</DateUtc></StartTime><FrequencyChanges><FrequencyChange><Frequency dt:dt=""r8"">3215273</Frequency><Timestamp dt:dt=""r8"">1300652066335</Timestamp><Current dt:dt=""r8"">0</Current><DateUtc dt:dt=""string"">2018-10-24T17:16:35Z</DateUtc></FrequencyChange></FrequencyChanges></Clock>\n",KW_Experiment5A-39-1,59.945,1.0.0.105,2,-722405570,Professional,2.0.10.353,2.0.10.353,10/24/2018,10/24/2018 17:16,13:16:35,2.0.10.248,3,2,1,3,,,,,,,,TrainingProc,BlockList,17,1,Distractor2.bmp,2,0,,0,1,249907,400,,0,0,yellow,400,1,400,2,vertical,yellow,Distractor2.bmp,red,Distractor2.bmp,purple,Distractor1.bmp,cyan,Distractor1.bmp,lime,Target1.bmp,blue,Distractor2.bmp,,,,TrialProc,,TrainingTrialList,1,1,-999999,0,250307,0,1,695,251002,Target1.bmp,lime,1,,,,5,4,65
KW_Experiment5A,39,1,"<?xml version=""1.0""?>\n<Clock xmlns:dt=""urn:schemas-microsoft-com:datatypes""><Description dt:dt=""string"">E-Prime Primary Realtime Clock</Description><StartTime><Timestamp dt:dt=""int"">0</Timestamp><DateUtc dt:dt=""string"">2018-10-24T17:16:35Z</DateUtc></StartTime><FrequencyChanges><FrequencyChange><Frequency dt:dt=""r8"">3215273</Frequency><Timestamp dt:dt=""r8"">1300652066335</Timestamp><Current dt:dt=""r8"">0</Current><DateUtc dt:dt=""string"">2018-10-24T17:16:35Z</DateUtc></FrequencyChange></FrequencyChanges></Clock>\n",KW_Experiment5A-39-1,59.945,1.0.0.105,2,-722405570,Professional,2.0.10.353,2.0.10.353,10/24/2018,10/24/2018 17:16,13:16:35,2.0.10.248,3,2,1,3,,,,,,,,TrainingProc,BlockList,18,1,Distractor1.bmp,1,0,,0,1,252026,600,,0,0,cyan,600,3,600,,vertical,cyan,Distractor2.bmp,blue,Distractor2.bmp,purple,Distractor2.bmp,yellow,Distractor2.bmp,red,Target1.bmp,lime,Distractor1.bmp,,,,TrialProc,4,TrainingTrialList,1,1,-999999,0,252626,0,1,712,253338,Target1.bmp,red,1,,,,11,4,66
KW_Experiment5A,39,1,"<?xml version=""1.0""?>\n<Clock xmlns:dt=""urn:schemas-microsoft-com:datatypes""><Description dt:dt=""string"">E-Prime Primary Realtime Clock</Description><StartTime><Timestamp dt:dt=""int"">0</Timestamp><DateUtc dt:dt=""string"">2018-10-24T17:16:35Z</DateUtc></StartTime><FrequencyChanges><FrequencyChange><Frequency dt:dt=""r8"">3215273</Frequency><Timestamp dt:dt=""r8"">1300652066335</Timestamp><Current dt:dt=""r8"">0</Current><DateUtc dt:dt=""string"">2018-10-24T17:16:35Z</DateUtc></FrequencyChange></FrequencyChanges></Clock>\n",KW_Experiment5A-39-1,59.945,1.0.0.105,2,-722405570,Professional,2.0.10.353,2.0.10.353,10/24/2018,10/24/2018 17:16,13:16:35,2.0.10.248,3,2,1,3,,,,,,,,TrainingProc,BlockList,19,1,Distractor2.bmp,2,0,,0,1,254361,400,,0,0,lime,400,1,400,,vertical,lime,Distractor1.bmp,cyan,Distractor1.bmp,red,Target1.bmp,blue,Distractor2.bmp,yellow,Distractor2.bmp,purple,Distractor1.bmp,,,,TrialProc,6,TrainingTrialList,1,1,-999999,0,254761,0,1,681,255442,Target1.bmp,red,1,,,,9,4,67
KW_Experiment5A,39,1,"<?xml version=""1.0""?>\n<Clock xmlns:dt=""urn:schemas-microsoft-com:datatypes""><Description dt:dt=""string"">E-Prime Primary Realtime Clock</Description><StartTime><Timestamp dt:dt=""int"">0</Timestamp><DateUtc dt:dt=""string"">2018-10-24T17:16:35Z</DateUtc></StartTime><FrequencyChanges><FrequencyChange><Frequency dt:dt=""r8"">3215273</Frequency><Timestamp dt:dt=""r8"">1300652066335</Timestamp><Current dt:dt=""r8"">0</Current><DateUtc dt:dt=""string"">2018-10-24T17:16:35Z</DateUtc></FrequencyChange></FrequencyChanges></Clock>\n",KW_Experiment5A-39-1,59.945,1.0.0.105,2,-722405570,Professional,2.0.10.353,2.0.10.353,10/24/2018,10/24/2018 17:16,13:16:35,2.0.10.248,3,2,1,3,,,,,,,,TrainingProc,BlockList,20,2,Distractor2.bmp,2,0,,0,1,256463,601,,0,0,purple,600,3,600,,horizontal,red,Target2.bmp,blue,Distractor2.bmp,cyan,Distractor2.bmp,lime,Distractor2.bmp,yellow,Distractor2.bmp,purple,Distractor1.bmp,,,,TrialProc,5,TrainingTrialList,1,2,-999999,1,257064,0,2,938,258002,Target2.bmp,red,2,,,,7,4,68
KW_Experiment5A,39,1,"<?xml version=""1.0""?>\n<Clock xmlns:dt=""urn:schemas-microsoft-com:datatypes""><Description dt:dt=""string"">E-Prime Primary Realtime Clock</Description><StartTime><Timestamp dt:dt=""int"">0</Timestamp><DateUtc dt:dt=""string"">2018-10-24T17:16:35Z</DateUtc></StartTime><FrequencyChanges><FrequencyChange><Frequency dt:dt=""r8"">3215273</Frequency><Timestamp dt:dt=""r8"">1300652066335</Timestamp><Current dt:dt=""r8"">0</Current><DateUtc dt:dt=""string"">2018-10-24T17:16:35Z</DateUtc></FrequencyChange></FrequencyChanges></Clock>\n",KW_Experiment5A-39-1,59.945,1.0.0.105,2,-722405570,Professional,2.0.10.353,2.0.10.353,10/24/2018,10/24/2018 17:16,13:16:35,2.0.10.248,3,2,1,3,,,,,,,,TrainingProc,BlockList,21,2,Distractor1.bmp,1,0,,0,1,259015,601,,0,0,cyan,600,3,600,,horizontal,cyan,Distractor1.bmp,lime,Distractor2.bmp,purple,Distractor1.bmp,yellow,Distractor1.bmp,blue,Distractor1.bmp,red,Target2.bmp,,,,TrialProc,4,TrainingTrialList,1,2,-999999,1,259616,0,2,730,260346,Target2.bmp,red,2,,,,12,4,69
KW_Experiment5A,39,1,"<?xml version=""1.0""?>\n<Clock xmlns:dt=""urn:schemas-microsoft-com:datatypes""><Description dt:dt=""string"">E-Prime Primary Realtime Clock</Description><StartTime><Timestamp dt:dt=""int"">0</Timestamp><DateUtc dt:dt=""string"">2018-10-24T17:16:35Z</DateUtc></StartTime><FrequencyChanges><FrequencyChange><Frequency dt:dt=""r8"">3215273</Frequency><Timestamp dt:dt=""r8"">1300652066335</Timestamp><Current dt:dt=""r8"">0</Current><DateUtc dt:dt=""string"">2018-10-24T17:16:35Z</DateUtc></FrequencyChange></FrequencyChanges></Clock>\n",KW_Experiment5A-39-1,59.945,1.0.0.105,2,-722405570,Professional,2.0.10.353,2.0.10.353,10/24/2018,10/24/2018 17:16,13:16:35,2.0.10.248,3,2,1,3,,,,,,,,TrainingProc,BlockList,22,2,Distractor2.bmp,2,0,,0,1,261368,600,,0,0,cyan,600,3,600,,horizontal,cyan,Distractor1.bmp,purple,Distractor1.bmp,yellow,Distractor1.bmp,red,Target2.bmp,blue,Distractor2.bmp,lime,Distractor2.bmp,,,,TrialProc,4,TrainingTrialList,1,2,-999999,0,261968,0,2,818,262786,Target2.bmp,red,2,,,,10,4,70
KW_Experiment5A,39,1,"<?xml version=""1.0""?>\n<Clock xmlns:dt=""urn:schemas-microsoft-com:datatypes""><Description dt:dt=""string"">E-Prime Primary Realtime Clock</Description><StartTime><Timestamp dt:dt=""int"">0</Timestamp><DateUtc dt:dt=""string"">2018-10-24T17:16:35Z</DateUtc></StartTime><FrequencyChanges><FrequencyChange><Frequency dt:dt=""r8"">3215273</Frequency><Timestamp dt:dt=""r8"">1300652066335</Timestamp><Current dt:dt=""r8"">0</Current><DateUtc dt:dt=""string"">2018-10-24T17:16:35Z</DateUtc></FrequencyChange></FrequencyChanges></Clock>\n",KW_Experiment5A-39-1,59.945,1.0.0.105,2,-722405570,Professional,2.0.10.353,2.0.10.353,10/24/2018,10/24/2018 17:16,13:16:35,2.0.10.248,3,2,1,3,,,,,,,,TrainingProc,BlockList,23,1,Distractor2.bmp,2,0,,0,1,263803,601,,0,0,blue,600,3,600,,vertical,red,Target1.bmp,cyan,Distractor2.bmp,purple,Distractor2.bmp,lime,Distractor2.bmp,yellow,Distractor2.bmp,blue,Distractor2.bmp,,,,TrialProc,3,TrainingTrialList,1,1,-999999,1,264404,0,1,734,265138,Target1.bmp,red,1,,,,7,4,71
KW_Experiment5A,39,1,"<?xml version=""1.0""?>\n<Clock xmlns:dt=""urn:schemas-microsoft-com:datatypes""><Description dt:dt=""string"">E-Prime Primary Realtime Clock</Description><StartTime><Timestamp dt:dt=""int"">0</Timestamp><DateUtc dt:dt=""string"">2018-10-24T17:16:35Z</DateUtc></StartTime><FrequencyChanges><FrequencyChange><Frequency dt:dt=""r8"">3215273</Frequency><Timestamp dt:dt=""r8"">1300652066335</Timestamp><Current dt:dt=""r8"">0</Current><DateUtc dt:dt=""string"">2018-10-24T17:16:35Z</DateUtc></FrequencyChange></FrequencyChanges></Clock>\n",KW_Experiment5A-39-1,59.945,1.0.0.105,2,-722405570,Professional,2.0.10.353,2.0.10.353,10/24/2018,10/24/2018 17:16,13:16:35,2.0.10.248,3,2,1,3,,,,,,,,TrainingProc,BlockList,24,1,Distractor1.bmp,1,0,,0,1,266155,601,,0,0,blue,600,3,600,,vertical,blue,Distractor1.bmp,lime,Distractor2.bmp,purple,Distractor2.bmp,red,Target1.bmp,cyan,Distractor1.bmp,yellow,Distractor2.bmp,,,,TrialProc,3,TrainingTrialList,1,1,-999999,1,266756,0,1,749,267505,Target1.bmp,red,1,,,,10,4,72
KW_Experiment5A,39,1,"<?xml version=""1.0""?>\n<Clock xmlns:dt=""urn:schemas-microsoft-com:datatypes""><Description dt:dt=""string"">E-Prime Primary Realtime Clock</Description><StartTime><Timestamp dt:dt=""int"">0</Timestamp><DateUtc dt:dt=""string"">2018-10-24T17:16:35Z</DateUtc></StartTime><FrequencyChanges><FrequencyChange><Frequency dt:dt=""r8"">3215273</Frequency><Timestamp dt:dt=""r8"">1300652066335</Timestamp><Current dt:dt=""r8"">0</Current><DateUtc dt:dt=""string"">2018-10-24T17:16:35Z</DateUtc></FrequencyChange></FrequencyChanges></Clock>\n",KW_Experiment5A-39-1,59.945,1.0.0.105,2,-722405570,Professional,2.0.10.353,2.0.10.353,10/24/2018,10/24/2018 17:16,13:16:35,2.0.10.248,3,2,1,3,,,,,,,,TrainingProc,BlockList,25,2,Distractor2.bmp,2,0,,0,1,268524,601,,0,0,lime,600,3,600,,horizontal,lime,Distractor2.bmp,cyan,Distractor2.bmp,blue,Distractor1.bmp,yellow,Distractor2.bmp,red,Target2.bmp,purple,Distractor2.bmp,,,,TrialProc,6,TrainingTrialList,1,2,-999999,1,269125,0,2,740,269865,Target2.bmp,red,2,,,,11,5,73
KW_Experiment5A,39,1,"<?xml version=""1.0""?>\n<Clock xmlns:dt=""urn:schemas-microsoft-com:datatypes""><Description dt:dt=""string"">E-Prime Primary Realtime Clock</Description><StartTime><Timestamp dt:dt=""int"">0</Timestamp><DateUtc dt:dt=""string"">2018-10-24T17:16:35Z</DateUtc></StartTime><FrequencyChanges><FrequencyChange><Frequency dt:dt=""r8"">3215273</Frequency><Timestamp dt:dt=""r8"">1300652066335</Timestamp><Current dt:dt=""r8"">0</Current><DateUtc dt:dt=""string"">2018-10-24T17:16:35Z</DateUtc></FrequencyChange></FrequencyChanges></Clock>\n",KW_Experiment5A-39-1,59.945,1.0.0.105,2,-722405570,Professional,2.0.10.353,2.0.10.353,10/24/2018,10/24/2018 17:16,13:16:35,2.0.10.248,3,2,1,3,,,,,,,,TrainingProc,BlockList,26,1,Distractor1.bmp,1,0,,0,1,270876,501,,0,0,purple,500,2,500,,vertical,purple,Distractor1.bmp,lime,Distractor2.bmp,blue,Distractor1.bmp,cyan,Distractor1.bmp,yellow,Distractor2.bmp,red,Target1.bmp,,,,TrialProc,5,TrainingTrialList,1,1,-999999,1,271377,0,1,776,272153,Target1.bmp,red,1,,,,12,5,74
KW_Experiment5A,39,1,"<?xml version=""1.0""?>\n<Clock xmlns:dt=""urn:schemas-microsoft-com:datatypes""><Description dt:dt=""string"">E-Prime Primary Realtime Clock</Description><StartTime><Timestamp dt:dt=""int"">0</Timestamp><DateUtc dt:dt=""string"">2018-10-24T17:16:35Z</DateUtc></StartTime><FrequencyChanges><FrequencyChange><Frequency dt:dt=""r8"">3215273</Frequency><Timestamp dt:dt=""r8"">1300652066335</Timestamp><Current dt:dt=""r8"">0</Current><DateUtc dt:dt=""string"">2018-10-24T17:16:35Z</DateUtc></FrequencyChange></FrequencyChanges></Clock>\n",KW_Experiment5A-39-1,59.945,1.0.0.105,2,-722405570,Professional,2.0.10.353,2.0.10.353,10/24/2018,10/24/2018 17:16,13:16:35,2.0.10.248,3,2,1,3,,,,,,,,TrainingProc,BlockList,27,1,Distractor2.bmp,2,0,,0,1,273178,601,,0,0,yellow,600,3,600,,vertical,yellow,Distractor2.bmp,red,Target1.bmp,cyan,Distractor2.bmp,blue,Distractor2.bmp,lime,Distractor1.bmp,purple,Distractor1.bmp,,,,TrialProc,2,TrainingTrialList,1,1,-999999,1,273779,0,1,662,274441,Target1.bmp,red,1,,,,8,5,75
KW_Experiment5A,39,1,"<?xml version=""1.0""?>\n<Clock xmlns:dt=""urn:schemas-microsoft-com:datatypes""><Description dt:dt=""string"">E-Prime Primary Realtime Clock</Description><StartTime><Timestamp dt:dt=""int"">0</Timestamp><DateUtc dt:dt=""string"">2018-10-24T17:16:35Z</DateUtc></StartTime><FrequencyChanges><FrequencyChange><Frequency dt:dt=""r8"">3215273</Frequency><Timestamp dt:dt=""r8"">1300652066335</Timestamp><Current dt:dt=""r8"">0</Current><DateUtc dt:dt=""string"">2018-10-24T17:16:35Z</DateUtc></FrequencyChange></FrequencyChanges></Clock>\n",KW_Experiment5A-39-1,59.945,1.0.0.105,2,-722405570,Professional,2.0.10.353,2.0.10.353,10/24/2018,10/24/2018 17:16,13:16:35,2.0.10.248,3,2,1,3,,,,,,,,TrainingProc,BlockList,28,1,Distractor1.bmp,1,0,,0,1,275464,600,,0,0,yellow,600,3,600,,vertical,red,Target1.bmp,lime,Distractor1.bmp,blue,Distractor2.bmp,cyan,Distractor2.bmp,purple,Distractor1.bmp,yellow,Distractor1.bmp,,,,TrialProc,2,TrainingTrialList,1,1,-999999,0,276064,0,1,609,276673,Target1.bmp,red,1,,,,7,5,76
KW_Experiment5A,39,1,"<?xml version=""1.0""?>\n<Clock xmlns:dt=""urn:schemas-microsoft-com:datatypes""><Description dt:dt=""string"">E-Prime Primary Realtime Clock</Description><StartTime><Timestamp dt:dt=""int"">0</Timestamp><DateUtc dt:dt=""string"">2018-10-24T17:16:35Z</DateUtc></StartTime><FrequencyChanges><FrequencyChange><Frequency dt:dt=""r8"">3215273</Frequency><Timestamp dt:dt=""r8"">1300652066335</Timestamp><Current dt:dt=""r8"">0</Current><DateUtc dt:dt=""string"">2018-10-24T17:16:35Z</DateUtc></FrequencyChange></FrequencyChanges></Clock>\n",KW_Experiment5A-39-1,59.945,1.0.0.105,2,-722405570,Professional,2.0.10.353,2.0.10.353,10/24/2018,10/24/2018 17:16,13:16:35,2.0.10.248,3,2,1,3,,,,,,,,TrainingProc,BlockList,29,2,Distractor1.bmp,1,0,,0,0,277682,601,,0,0,yellow,600,3,600,,horizontal,yellow,Distractor1.bmp,lime,Distractor2.bmp,cyan,Distractor2.bmp,red,Target2.bmp,blue,Distractor1.bmp,purple,Distractor2.bmp,,,,TrialProc,2,TrainingTrialList,1,2,-999999,1,278283,0,2,774,279057,Target2.bmp,red,2,,,,10,5,77
KW_Experiment5A,39,1,"<?xml version=""1.0""?>\n<Clock xmlns:dt=""urn:schemas-microsoft-com:datatypes""><Description dt:dt=""string"">E-Prime Primary Realtime Clock</Description><StartTime><Timestamp dt:dt=""int"">0</Timestamp><DateUtc dt:dt=""string"">2018-10-24T17:16:35Z</DateUtc></StartTime><FrequencyChanges><FrequencyChange><Frequency dt:dt=""r8"">3215273</Frequency><Timestamp dt:dt=""r8"">1300652066335</Timestamp><Current dt:dt=""r8"">0</Current><DateUtc dt:dt=""string"">2018-10-24T17:16:35Z</DateUtc></FrequencyChange></FrequencyChanges></Clock>\n",KW_Experiment5A-39-1,59.945,1.0.0.105,2,-722405570,Professional,2.0.10.353,2.0.10.353,10/24/2018,10/24/2018 17:16,13:16:35,2.0.10.248,3,2,1,3,,,,,,,,TrainingProc,BlockList,30,2,Distractor2.bmp,2,0,,0,1,280068,500,,0,0,yellow,500,2,500,2,horizontal,lime,Target2.bmp,yellow,Distractor2.bmp,purple,Distractor1.bmp,red,Distractor2.bmp,blue,Distractor1.bmp,cyan,Distractor1.bmp,,,,TrialProc,,TrainingTrialList,1,2,-999999,0,280568,0,2,777,281345,Target2.bmp,lime,2,,,,1,5,78
KW_Experiment5A,39,1,"<?xml version=""1.0""?>\n<Clock xmlns:dt=""urn:schemas-microsoft-com:datatypes""><Description dt:dt=""string"">E-Prime Primary Realtime Clock</Description><StartTime><Timestamp dt:dt=""int"">0</Timestamp><DateUtc dt:dt=""string"">2018-10-24T17:16:35Z</DateUtc></StartTime><FrequencyChanges><FrequencyChange><Frequency dt:dt=""r8"">3215273</Frequency><Timestamp dt:dt=""r8"">1300652066335</Timestamp><Current dt:dt=""r8"">0</Current><DateUtc dt:dt=""string"">2018-10-24T17:16:35Z</DateUtc></FrequencyChange></FrequencyChanges></Clock>\n",KW_Experiment5A-39-1,59.945,1.0.0.105,2,-722405570,Professional,2.0.10.353,2.0.10.353,10/24/2018,10/24/2018 17:16,13:16:35,2.0.10.248,3,2,1,3,,,,,,,,TrainingProc,BlockList,31,1,Distractor2.bmp,2,0,,0,1,282370,400,,0,0,purple,400,1,400,,vertical,purple,Distractor2.bmp,blue,Distractor2.bmp,yellow,Distractor2.bmp,cyan,Distractor1.bmp,lime,Distractor2.bmp,red,Target1.bmp,,,,TrialProc,5,TrainingTrialList,1,1,-999999,0,282770,0,1,639,283409,Target1.bmp,red,1,,,,12,5,79
KW_Experiment5A,39,1,"<?xml version=""1.0""?>\n<Clock xmlns:dt=""urn:schemas-microsoft-com:datatypes""><Description dt:dt=""string"">E-Prime Primary Realtime Clock</Description><StartTime><Timestamp dt:dt=""int"">0</Timestamp><DateUtc dt:dt=""string"">2018-10-24T17:16:35Z</DateUtc></StartTime><FrequencyChanges><FrequencyChange><Frequency dt:dt=""r8"">3215273</Frequency><Timestamp dt:dt=""r8"">1300652066335</Timestamp><Current dt:dt=""r8"">0</Current><DateUtc dt:dt=""string"">2018-10-24T17:16:35Z</DateUtc></FrequencyChange></FrequencyChanges></Clock>\n",KW_Experiment5A-39-1,59.945,1.0.0.105,2,-722405570,Professional,2.0.10.353,2.0.10.353,10/24/2018,10/24/2018 17:16,13:16:35,2.0.10.248,3,2,1,3,,,,,,,,TrainingProc,BlockList,32,1,Distractor1.bmp,1,0,,0,1,284422,500,,0,0,blue,500,2,500,,vertical,blue,Distractor2.bmp,purple,Distractor2.bmp,red,Target1.bmp,cyan,Distractor1.bmp,lime,Distractor2.bmp,yellow,Distractor1.bmp,,,,TrialProc,3,TrainingTrialList,1,1,-999999,0,284922,0,1,647,285569,Target1.bmp,red,1,,,,9,5,80
KW_Experiment5A,39,1,"<?xml version=""1.0""?>\n<Clock xmlns:dt=""urn:schemas-microsoft-com:datatypes""><Description dt:dt=""string"">E-Prime Primary Realtime Clock</Description><StartTime><Timestamp dt:dt=""int"">0</Timestamp><DateUtc dt:dt=""string"">2018-10-24T17:16:35Z</DateUtc></StartTime><FrequencyChanges><FrequencyChange><Frequency dt:dt=""r8"">3215273</Frequency><Timestamp dt:dt=""r8"">1300652066335</Timestamp><Current dt:dt=""r8"">0</Current><DateUtc dt:dt=""string"">2018-10-24T17:16:35Z</DateUtc></FrequencyChange></FrequencyChanges></Clock>\n",KW_Experiment5A-39-1,59.945,1.0.0.105,2,-722405570,Professional,2.0.10.353,2.0.10.353,10/24/2018,10/24/2018 17:16,13:16:35,2.0.10.248,3,2,1,3,,,,,,,,TrainingProc,BlockList,33,2,Distractor1.bmp,1,0,,0,1,286591,500,,0,0,cyan,500,2,500,4,horizontal,cyan,Distractor2.bmp,yellow,Distractor1.bmp,lime,Target2.bmp,purple,Distractor1.bmp,red,Distractor2.bmp,blue,Distractor1.bmp,,,,TrialProc,,TrainingTrialList,1,2,-999999,0,287091,0,2,710,287801,Target2.bmp,lime,2,,,,3,5,81
KW_Experiment5A,39,1,"<?xml version=""1.0""?>\n<Clock xmlns:dt=""urn:schemas-microsoft-com:datatypes""><Description dt:dt=""string"">E-Prime Primary Realtime Clock</Description><StartTime><Timestamp dt:dt=""int"">0</Timestamp><DateUtc dt:dt=""string"">2018-10-24T17:16:35Z</DateUtc></StartTime><FrequencyChanges><FrequencyChange><Frequency dt:dt=""r8"">3215273</Frequency><Timestamp dt:dt=""r8"">1300652066335</Timestamp><Current dt:dt=""r8"">0</Current><DateUtc dt:dt=""string"">2018-10-24T17:16:35Z</DateUtc></FrequencyChange></FrequencyChanges></Clock>\n",KW_Experiment5A-39-1,59.945,1.0.0.105,2,-722405570,Professional,2.0.10.353,2.0.10.353,10/24/2018,10/24/2018 17:16,13:16:35,2.0.10.248,3,2,1,3,,,,,,,,TrainingProc,BlockList,34,1,Distractor1.bmp,1,0,,0,1,288826,400,,0,0,purple,400,1,400,,vertical,purple,Distractor1.bmp,yellow,Distractor2.bmp,lime,Distractor2.bmp,red,Target1.bmp,blue,Distractor1.bmp,cyan,Distractor1.bmp,,,,TrialProc,5,TrainingTrialList,1,1,-999999,0,289226,0,1,583,289809,Target1.bmp,red,1,,,,10,5,82
KW_Experiment5A,39,1,"<?xml version=""1.0""?>\n<Clock xmlns:dt=""urn:schemas-microsoft-com:datatypes""><Description dt:dt=""string"">E-Prime Primary Realtime Clock</Description><StartTime><Timestamp dt:dt=""int"">0</Timestamp><DateUtc dt:dt=""string"">2018-10-24T17:16:35Z</DateUtc></StartTime><FrequencyChanges><FrequencyChange><Frequency dt:dt=""r8"">3215273</Frequency><Timestamp dt:dt=""r8"">1300652066335</Timestamp><Current dt:dt=""r8"">0</Current><DateUtc dt:dt=""string"">2018-10-24T17:16:35Z</DateUtc></FrequencyChange></FrequencyChanges></Clock>\n",KW_Experiment5A-39-1,59.945,1.0.0.105,2,-722405570,Professional,2.0.10.353,2.0.10.353,10/24/2018,10/24/2018 17:16,13:16:35,2.0.10.248,3,2,1,3,,,,,,,,TrainingProc,BlockList,35,1,Distractor1.bmp,1,0,,0,1,290828,600,,0,0,cyan,600,3,600,,vertical,cyan,Distractor2.bmp,lime,Distractor1.bmp,purple,Distractor1.bmp,yellow,Distractor2.bmp,red,Target1.bmp,blue,Distractor1.bmp,,,,TrialProc,4,TrainingTrialList,1,1,-999999,0,291428,0,1,597,292025,Target1.bmp,red,1,,,,11,5,83
KW_Experiment5A,39,1,"<?xml version=""1.0""?>\n<Clock xmlns:dt=""urn:schemas-microsoft-com:datatypes""><Description dt:dt=""string"">E-Prime Primary Realtime Clock</Description><StartTime><Timestamp dt:dt=""int"">0</Timestamp><DateUtc dt:dt=""string"">2018-10-24T17:16:35Z</DateUtc></StartTime><FrequencyChanges><FrequencyChange><Frequency dt:dt=""r8"">3215273</Frequency><Timestamp dt:dt=""r8"">1300652066335</Timestamp><Current dt:dt=""r8"">0</Current><DateUtc dt:dt=""string"">2018-10-24T17:16:35Z</DateUtc></FrequencyChange></FrequencyChanges></Clock>\n",KW_Experiment5A-39-1,59.945,1.0.0.105,2,-722405570,Professional,2.0.10.353,2.0.10.353,10/24/2018,10/24/2018 17:16,13:16:35,2.0.10.248,3,2,1,3,,,,,,,,TrainingProc,BlockList,36,2,Distractor1.bmp,1,0,,1,0,293046,501,,0,0,yellow,500,2,500,,horizontal,yellow,Distractor2.bmp,blue,Distractor1.bmp,red,Target2.bmp,cyan,Distractor1.bmp,lime,Distractor1.bmp,purple,Distractor1.bmp,,,,TrialProc,2,TrainingTrialList,1,2,-999999,1,293547,0,2,598,294145,Target2.bmp,red,2,,,,9,5,84
KW_Experiment5A,39,1,"<?xml version=""1.0""?>\n<Clock xmlns:dt=""urn:schemas-microsoft-com:datatypes""><Description dt:dt=""string"">E-Prime Primary Realtime Clock</Description><StartTime><Timestamp dt:dt=""int"">0</Timestamp><DateUtc dt:dt=""string"">2018-10-24T17:16:35Z</DateUtc></StartTime><FrequencyChanges><FrequencyChange><Frequency dt:dt=""r8"">3215273</Frequency><Timestamp dt:dt=""r8"">1300652066335</Timestamp><Current dt:dt=""r8"">0</Current><DateUtc dt:dt=""string"">2018-10-24T17:16:35Z</DateUtc></FrequencyChange></FrequencyChanges></Clock>\n",KW_Experiment5A-39-1,59.945,1.0.0.105,2,-722405570,Professional,2.0.10.353,2.0.10.353,10/24/2018,10/24/2018 17:16,13:16:35,2.0.10.248,3,2,1,3,,,,,,,,TrainingProc,BlockList,37,2,Distractor2.bmp,2,0,,0,1,295165,400,,0,0,lime,400,1,400,,horizontal,lime,Distractor2.bmp,red,Target2.bmp,blue,Distractor2.bmp,yellow,Distractor1.bmp,cyan,Distractor1.bmp,purple,Distractor1.bmp,,,,TrialProc,6,TrainingTrialList,1,2,-999999,0,295565,0,2,628,296193,Target2.bmp,red,2,,,,8,5,85
KW_Experiment5A,39,1,"<?xml version=""1.0""?>\n<Clock xmlns:dt=""urn:schemas-microsoft-com:datatypes""><Description dt:dt=""string"">E-Prime Primary Realtime Clock</Description><StartTime><Timestamp dt:dt=""int"">0</Timestamp><DateUtc dt:dt=""string"">2018-10-24T17:16:35Z</DateUtc></StartTime><FrequencyChanges><FrequencyChange><Frequency dt:dt=""r8"">3215273</Frequency><Timestamp dt:dt=""r8"">1300652066335</Timestamp><Current dt:dt=""r8"">0</Current><DateUtc dt:dt=""string"">2018-10-24T17:16:35Z</DateUtc></FrequencyChange></FrequencyChanges></Clock>\n",KW_Experiment5A-39-1,59.945,1.0.0.105,2,-722405570,Professional,2.0.10.353,2.0.10.353,10/24/2018,10/24/2018 17:16,13:16:35,2.0.10.248,3,2,1,3,,,,,,,,TrainingProc,BlockList,38,2,Distractor1.bmp,1,0,,0,1,297217,500,,0,0,cyan,500,2,500,,horizontal,red,Target2.bmp,blue,Distractor1.bmp,lime,Distractor2.bmp,yellow,Distractor1.bmp,purple,Distractor1.bmp,cyan,Distractor1.bmp,,,,TrialProc,4,TrainingTrialList,1,2,-999999,0,297717,0,2,716,298433,Target2.bmp,red,2,,,,7,5,86
KW_Experiment5A,39,1,"<?xml version=""1.0""?>\n<Clock xmlns:dt=""urn:schemas-microsoft-com:datatypes""><Description dt:dt=""string"">E-Prime Primary Realtime Clock</Description><StartTime><Timestamp dt:dt=""int"">0</Timestamp><DateUtc dt:dt=""string"">2018-10-24T17:16:35Z</DateUtc></StartTime><FrequencyChanges><FrequencyChange><Frequency dt:dt=""r8"">3215273</Frequency><Timestamp dt:dt=""r8"">1300652066335</Timestamp><Current dt:dt=""r8"">0</Current><DateUtc dt:dt=""string"">2018-10-24T17:16:35Z</DateUtc></FrequencyChange></FrequencyChanges></Clock>\n",KW_Experiment5A-39-1,59.945,1.0.0.105,2,-722405570,Professional,2.0.10.353,2.0.10.353,10/24/2018,10/24/2018 17:16,13:16:35,2.0.10.248,3,2,1,3,,,,,,,,TrainingProc,BlockList,39,2,Distractor1.bmp,1,0,,0,1,299452,401,,0,0,cyan,400,1,400,,horizontal,cyan,Distractor2.bmp,lime,Distractor2.bmp,purple,Distractor1.bmp,blue,Distractor1.bmp,red,Target2.bmp,yellow,Distractor1.bmp,,,,TrialProc,4,TrainingTrialList,1,2,-999999,1,299853,0,2,772,300625,Target2.bmp,red,2,,,,11,5,87
KW_Experiment5A,39,1,"<?xml version=""1.0""?>\n<Clock xmlns:dt=""urn:schemas-microsoft-com:datatypes""><Description dt:dt=""string"">E-Prime Primary Realtime Clock</Description><StartTime><Timestamp dt:dt=""int"">0</Timestamp><DateUtc dt:dt=""string"">2018-10-24T17:16:35Z</DateUtc></StartTime><FrequencyChanges><FrequencyChange><Frequency dt:dt=""r8"">3215273</Frequency><Timestamp dt:dt=""r8"">1300652066335</Timestamp><Current dt:dt=""r8"">0</Current><DateUtc dt:dt=""string"">2018-10-24T17:16:35Z</DateUtc></FrequencyChange></FrequencyChanges></Clock>\n",KW_Experiment5A-39-1,59.945,1.0.0.105,2,-722405570,Professional,2.0.10.353,2.0.10.353,10/24/2018,10/24/2018 17:16,13:16:35,2.0.10.248,3,2,1,3,,,,,,,,TrainingProc,BlockList,40,2,Distractor1.bmp,1,0,,0,1,301638,600,,0,0,blue,600,3,600,3,horizontal,blue,Distractor1.bmp,cyan,Distractor2.bmp,yellow,Distractor1.bmp,lime,Target2.bmp,purple,Distractor1.bmp,red,Distractor2.bmp,,,,TrialProc,,TrainingTrialList,1,2,-999999,0,302238,0,2,787,303025,Target2.bmp,lime,2,,,,4,5,88
KW_Experiment5A,39,1,"<?xml version=""1.0""?>\n<Clock xmlns:dt=""urn:schemas-microsoft-com:datatypes""><Description dt:dt=""string"">E-Prime Primary Realtime Clock</Description><StartTime><Timestamp dt:dt=""int"">0</Timestamp><DateUtc dt:dt=""string"">2018-10-24T17:16:35Z</DateUtc></StartTime><FrequencyChanges><FrequencyChange><Frequency dt:dt=""r8"">3215273</Frequency><Timestamp dt:dt=""r8"">1300652066335</Timestamp><Current dt:dt=""r8"">0</Current><DateUtc dt:dt=""string"">2018-10-24T17:16:35Z</DateUtc></FrequencyChange></FrequencyChanges></Clock>\n",KW_Experiment5A-39-1,59.945,1.0.0.105,2,-722405570,Professional,2.0.10.353,2.0.10.353,10/24/2018,10/24/2018 17:16,13:16:35,2.0.10.248,3,2,1,3,,,,,,,,TrainingProc,BlockList,41,1,Distractor2.bmp,2,0,,0,1,304040,600,,0,0,purple,600,3,600,,vertical,purple,Distractor1.bmp,lime,Distractor1.bmp,yellow,Distractor2.bmp,red,Target1.bmp,cyan,Distractor2.bmp,blue,Distractor1.bmp,,,,TrialProc,5,TrainingTrialList,1,1,-999999,0,304640,0,1,609,305249,Target1.bmp,red,1,,,,10,5,89
KW_Experiment5A,39,1,"<?xml version=""1.0""?>\n<Clock xmlns:dt=""urn:schemas-microsoft-com:datatypes""><Description dt:dt=""string"">E-Prime Primary Realtime Clock</Description><StartTime><Timestamp dt:dt=""int"">0</Timestamp><DateUtc dt:dt=""string"">2018-10-24T17:16:35Z</DateUtc></StartTime><FrequencyChanges><FrequencyChange><Frequency dt:dt=""r8"">3215273</Frequency><Timestamp dt:dt=""r8"">1300652066335</Timestamp><Current dt:dt=""r8"">0</Current><DateUtc dt:dt=""string"">2018-10-24T17:16:35Z</DateUtc></FrequencyChange></FrequencyChanges></Clock>\n",KW_Experiment5A-39-1,59.945,1.0.0.105,2,-722405570,Professional,2.0.10.353,2.0.10.353,10/24/2018,10/24/2018 17:16,13:16:35,2.0.10.248,3,2,1,3,,,,,,,,TrainingProc,BlockList,42,1,Distractor1.bmp,1,0,,0,1,306259,500,,0,0,yellow,500,2,500,,vertical,yellow,Distractor1.bmp,blue,Distractor2.bmp,red,Target1.bmp,cyan,Distractor1.bmp,purple,Distractor2.bmp,lime,Distractor1.bmp,,,,TrialProc,2,TrainingTrialList,1,1,-999999,0,306759,0,1,522,307281,Target1.bmp,red,1,,,,9,5,90
