ExperimentName,Subject,Session,Clock.Information,DataFile.Basename,Display.RefreshRate,ExperimentVersion,Group,RandomSeed,RuntimeCapabilities,RuntimeVersion,RuntimeVersionExpected,SessionDate,SessionStartDateTimeUtc,SessionTime,StudioVersion,Block,BlockList,BlockList.Cycle,BlockList.Sample,PostTestQ1.RESP,PostTestQ1CJ.RESP,PostTestQ2.RESP,PostTestQ2CJ.RESP,PostTestQ3.RESP,PostTestQ3CJ.RESP,PostTestSlide.RESP,Procedure[Block],Running[Block],Trial,CorrectResponse,Distractor,DistractorList,Fixation.ACC,Fixation.CRESP,Fixation.DurationError,Fixation.OnsetDelay,Fixation.OnsetTime,Fixation.OnsetToOnsetTime,Fixation.RESP,Fixation.RT,Fixation.RTTime,ItemColor,Jitter,JitterList,JitterTime,Lime0List,Orientation,Pos1Color,Pos1Item,Pos2Color,Pos2Item,Pos3Color,Pos3Item,Pos4Color,Pos4Item,Pos5Color,Pos5Item,Pos6Color,Pos6Item,PracticeTrialList,PracticeTrialList.Cycle,PracticeTrialList.Sample,Procedure[Trial],Red0List,Running[Trial],Stimulus.ACC,Stimulus.CRESP,Stimulus.DurationError,Stimulus.OnsetDelay,Stimulus.OnsetTime,Stimulus.OnsetToOnsetTime,Stimulus.RESP,Stimulus.RT,Stimulus.RTTime,Target,TargetColor,TargetList,TestTrialList,TestTrialList.Cycle,TestTrialList.Sample,TrainingTrialList,TrainingTrialList.Cycle,TrainingTrialList.Sample
KW_Experiment5A,43,1,"<?xml version=""1.0""?>\n<Clock xmlns:dt=""urn:schemas-microsoft-com:datatypes""><Description dt:dt=""string"">E-Prime Primary Realtime Clock</Description><StartTime><Timestamp dt:dt=""int"">0</Timestamp><DateUtc dt:dt=""string"">2018-10-25T19:02:32Z</DateUtc></StartTime><FrequencyChanges><FrequencyChange><Frequency dt:dt=""r8"">3215292</Frequency><Timestamp dt:dt=""r8"">1598637407119</Timestamp><Current dt:dt=""r8"">0</Current><DateUtc dt:dt=""string"">2018-10-25T19:02:32Z</DateUtc></FrequencyChange></FrequencyChanges></Clock>\n",KW_Experiment5A-43-1,59.947,1.0.0.105,2,910202918,Professional,2.0.10.353,2.0.10.353,10/25/2018,10/25/2018 19:02,15:02:33,2.0.10.248,1,1,1,1,,,,,,,,PracticeProc,BlockList,1,1,Distractor2.bmp,2,0,,0,75,62424,500,,0,0,red,500,2,500,1,vertical,blue,Distractor2.bmp,purple,Distractor1.bmp,cyan,Distractor2.bmp,red,Distractor1.bmp,lime,Target1.bmp,yellow,Distractor2.bmp,5,1,1,TrialProc,,PracticeTrialList,1,1,-999999,0,62924,0,1,1121,64045,Target1.bmp,lime,1,,,,,,
KW_Experiment5A,43,1,"<?xml version=""1.0""?>\n<Clock xmlns:dt=""urn:schemas-microsoft-com:datatypes""><Description dt:dt=""string"">E-Prime Primary Realtime Clock</Description><StartTime><Timestamp dt:dt=""int"">0</Timestamp><DateUtc dt:dt=""string"">2018-10-25T19:02:32Z</DateUtc></StartTime><FrequencyChanges><FrequencyChange><Frequency dt:dt=""r8"">3215292</Frequency><Timestamp dt:dt=""r8"">1598637407119</Timestamp><Current dt:dt=""r8"">0</Current><DateUtc dt:dt=""string"">2018-10-25T19:02:32Z</DateUtc></FrequencyChange></FrequencyChanges></Clock>\n",KW_Experiment5A-43-1,59.947,1.0.0.105,2,910202918,Professional,2.0.10.353,2.0.10.353,10/25/2018,10/25/2018 19:02,15:02:33,2.0.10.248,1,1,1,1,,,,,,,,PracticeProc,BlockList,2,1,Distractor1.bmp,1,0,,0,1,65060,600,,0,0,blue,600,3,600,3,vertical,lime,Target1.bmp,purple,Distractor1.bmp,cyan,Distractor2.bmp,yellow,Distractor1.bmp,red,Distractor2.bmp,blue,Distractor1.bmp,1,1,2,TrialProc,,PracticeTrialList,1,1,-999999,0,65660,0,1,1017,66677,Target1.bmp,lime,1,,,,,,
KW_Experiment5A,43,1,"<?xml version=""1.0""?>\n<Clock xmlns:dt=""urn:schemas-microsoft-com:datatypes""><Description dt:dt=""string"">E-Prime Primary Realtime Clock</Description><StartTime><Timestamp dt:dt=""int"">0</Timestamp><DateUtc dt:dt=""string"">2018-10-25T19:02:32Z</DateUtc></StartTime><FrequencyChanges><FrequencyChange><Frequency dt:dt=""r8"">3215292</Frequency><Timestamp dt:dt=""r8"">1598637407119</Timestamp><Current dt:dt=""r8"">0</Current><DateUtc dt:dt=""string"">2018-10-25T19:02:32Z</DateUtc></FrequencyChange></FrequencyChanges></Clock>\n",KW_Experiment5A-43-1,59.947,1.0.0.105,2,910202918,Professional,2.0.10.353,2.0.10.353,10/25/2018,10/25/2018 19:02,15:02:33,2.0.10.248,1,1,1,1,,,,,,,,PracticeProc,BlockList,3,1,Distractor2.bmp,2,0,,0,1,67695,501,,0,0,blue,500,2,500,,vertical,blue,Distractor2.bmp,red,Target1.bmp,lime,Distractor2.bmp,purple,Distractor1.bmp,cyan,Distractor2.bmp,yellow,Distractor1.bmp,2,1,3,TrialProc,3,PracticeTrialList,1,1,-999999,1,68196,0,1,513,68709,Target1.bmp,red,1,,,,,,
KW_Experiment5A,43,1,"<?xml version=""1.0""?>\n<Clock xmlns:dt=""urn:schemas-microsoft-com:datatypes""><Description dt:dt=""string"">E-Prime Primary Realtime Clock</Description><StartTime><Timestamp dt:dt=""int"">0</Timestamp><DateUtc dt:dt=""string"">2018-10-25T19:02:32Z</DateUtc></StartTime><FrequencyChanges><FrequencyChange><Frequency dt:dt=""r8"">3215292</Frequency><Timestamp dt:dt=""r8"">1598637407119</Timestamp><Current dt:dt=""r8"">0</Current><DateUtc dt:dt=""string"">2018-10-25T19:02:32Z</DateUtc></FrequencyChange></FrequencyChanges></Clock>\n",KW_Experiment5A-43-1,59.947,1.0.0.105,2,910202918,Professional,2.0.10.353,2.0.10.353,10/25/2018,10/25/2018 19:02,15:02:33,2.0.10.248,1,1,1,1,,,,,,,,PracticeProc,BlockList,4,2,Distractor2.bmp,2,0,,0,1,69731,500,,0,0,blue,500,2,500,,horizontal,yellow,Distractor2.bmp,purple,Distractor2.bmp,lime,Distractor1.bmp,cyan,Distractor1.bmp,blue,Distractor2.bmp,red,Target2.bmp,6,1,4,TrialProc,3,PracticeTrialList,1,2,-999999,0,70231,0,2,646,70877,Target2.bmp,red,2,,,,,,
KW_Experiment5A,43,1,"<?xml version=""1.0""?>\n<Clock xmlns:dt=""urn:schemas-microsoft-com:datatypes""><Description dt:dt=""string"">E-Prime Primary Realtime Clock</Description><StartTime><Timestamp dt:dt=""int"">0</Timestamp><DateUtc dt:dt=""string"">2018-10-25T19:02:32Z</DateUtc></StartTime><FrequencyChanges><FrequencyChange><Frequency dt:dt=""r8"">3215292</Frequency><Timestamp dt:dt=""r8"">1598637407119</Timestamp><Current dt:dt=""r8"">0</Current><DateUtc dt:dt=""string"">2018-10-25T19:02:32Z</DateUtc></FrequencyChange></FrequencyChanges></Clock>\n",KW_Experiment5A-43-1,59.947,1.0.0.105,2,910202918,Professional,2.0.10.353,2.0.10.353,10/25/2018,10/25/2018 19:02,15:02:33,2.0.10.248,1,1,1,1,,,,,,,,PracticeProc,BlockList,5,2,Distractor1.bmp,1,0,,0,1,71899,501,,0,0,lime,500,2,500,,horizontal,cyan,Distractor2.bmp,purple,Distractor1.bmp,lime,Distractor1.bmp,red,Target2.bmp,blue,Distractor1.bmp,yellow,Distractor2.bmp,4,1,5,TrialProc,6,PracticeTrialList,1,2,-999999,1,72400,0,2,653,73053,Target2.bmp,red,2,,,,,,
KW_Experiment5A,43,1,"<?xml version=""1.0""?>\n<Clock xmlns:dt=""urn:schemas-microsoft-com:datatypes""><Description dt:dt=""string"">E-Prime Primary Realtime Clock</Description><StartTime><Timestamp dt:dt=""int"">0</Timestamp><DateUtc dt:dt=""string"">2018-10-25T19:02:32Z</DateUtc></StartTime><FrequencyChanges><FrequencyChange><Frequency dt:dt=""r8"">3215292</Frequency><Timestamp dt:dt=""r8"">1598637407119</Timestamp><Current dt:dt=""r8"">0</Current><DateUtc dt:dt=""string"">2018-10-25T19:02:32Z</DateUtc></FrequencyChange></FrequencyChanges></Clock>\n",KW_Experiment5A-43-1,59.947,1.0.0.105,2,910202918,Professional,2.0.10.353,2.0.10.353,10/25/2018,10/25/2018 19:02,15:02:33,2.0.10.248,1,1,1,1,,,,,,,,PracticeProc,BlockList,6,2,Distractor1.bmp,1,0,,0,1,74068,400,,0,0,cyan,400,1,400,4,horizontal,blue,Distractor1.bmp,cyan,Distractor2.bmp,lime,Target2.bmp,purple,Distractor1.bmp,yellow,Distractor1.bmp,red,Distractor1.bmp,3,1,6,TrialProc,,PracticeTrialList,1,2,-999999,0,74468,0,2,553,75021,Target2.bmp,lime,2,,,,,,
KW_Experiment5A,43,1,"<?xml version=""1.0""?>\n<Clock xmlns:dt=""urn:schemas-microsoft-com:datatypes""><Description dt:dt=""string"">E-Prime Primary Realtime Clock</Description><StartTime><Timestamp dt:dt=""int"">0</Timestamp><DateUtc dt:dt=""string"">2018-10-25T19:02:32Z</DateUtc></StartTime><FrequencyChanges><FrequencyChange><Frequency dt:dt=""r8"">3215292</Frequency><Timestamp dt:dt=""r8"">1598637407119</Timestamp><Current dt:dt=""r8"">0</Current><DateUtc dt:dt=""string"">2018-10-25T19:02:32Z</DateUtc></FrequencyChange></FrequencyChanges></Clock>\n",KW_Experiment5A-43-1,59.947,1.0.0.105,2,910202918,Professional,2.0.10.353,2.0.10.353,10/25/2018,10/25/2018 19:02,15:02:33,2.0.10.248,2,2,1,2,,,,,,,,TrainingProc,BlockList,1,1,Distractor2.bmp,2,0,,0,24,82909,501,,0,0,blue,500,2,500,3,vertical,blue,Distractor1.bmp,yellow,Distractor1.bmp,purple,Distractor1.bmp,lime,Target1.bmp,red,Distractor2.bmp,cyan,Distractor1.bmp,,,,TrialProc,,TrainingTrialList,1,1,-999999,1,83410,0,1,779,84189,Target1.bmp,lime,1,,,,4,2,1
KW_Experiment5A,43,1,"<?xml version=""1.0""?>\n<Clock xmlns:dt=""urn:schemas-microsoft-com:datatypes""><Description dt:dt=""string"">E-Prime Primary Realtime Clock</Description><StartTime><Timestamp dt:dt=""int"">0</Timestamp><DateUtc dt:dt=""string"">2018-10-25T19:02:32Z</DateUtc></StartTime><FrequencyChanges><FrequencyChange><Frequency dt:dt=""r8"">3215292</Frequency><Timestamp dt:dt=""r8"">1598637407119</Timestamp><Current dt:dt=""r8"">0</Current><DateUtc dt:dt=""string"">2018-10-25T19:02:32Z</DateUtc></FrequencyChange></FrequencyChanges></Clock>\n",KW_Experiment5A-43-1,59.947,1.0.0.105,2,910202918,Professional,2.0.10.353,2.0.10.353,10/25/2018,10/25/2018 19:02,15:02:33,2.0.10.248,2,2,1,2,,,,,,,,TrainingProc,BlockList,2,2,Distractor2.bmp,2,0,,0,1,85211,501,,0,0,lime,500,2,500,,horizontal,lime,Distractor1.bmp,purple,Distractor2.bmp,yellow,Distractor1.bmp,red,Target2.bmp,cyan,Distractor2.bmp,blue,Distractor1.bmp,,,,TrialProc,6,TrainingTrialList,1,2,-999999,1,85712,0,2,541,86253,Target2.bmp,red,2,,,,10,2,2
KW_Experiment5A,43,1,"<?xml version=""1.0""?>\n<Clock xmlns:dt=""urn:schemas-microsoft-com:datatypes""><Description dt:dt=""string"">E-Prime Primary Realtime Clock</Description><StartTime><Timestamp dt:dt=""int"">0</Timestamp><DateUtc dt:dt=""string"">2018-10-25T19:02:32Z</DateUtc></StartTime><FrequencyChanges><FrequencyChange><Frequency dt:dt=""r8"">3215292</Frequency><Timestamp dt:dt=""r8"">1598637407119</Timestamp><Current dt:dt=""r8"">0</Current><DateUtc dt:dt=""string"">2018-10-25T19:02:32Z</DateUtc></FrequencyChange></FrequencyChanges></Clock>\n",KW_Experiment5A-43-1,59.947,1.0.0.105,2,910202918,Professional,2.0.10.353,2.0.10.353,10/25/2018,10/25/2018 19:02,15:02:33,2.0.10.248,2,2,1,2,,,,,,,,TrainingProc,BlockList,3,2,Distractor2.bmp,2,0,,0,1,87263,400,,0,0,blue,400,1,400,,horizontal,blue,Distractor2.bmp,yellow,Distractor1.bmp,red,Target2.bmp,lime,Distractor2.bmp,purple,Distractor1.bmp,cyan,Distractor2.bmp,,,,TrialProc,3,TrainingTrialList,0,2,-999999,0,87663,0,1,798,88461,Target2.bmp,red,2,,,,9,2,3
KW_Experiment5A,43,1,"<?xml version=""1.0""?>\n<Clock xmlns:dt=""urn:schemas-microsoft-com:datatypes""><Description dt:dt=""string"">E-Prime Primary Realtime Clock</Description><StartTime><Timestamp dt:dt=""int"">0</Timestamp><DateUtc dt:dt=""string"">2018-10-25T19:02:32Z</DateUtc></StartTime><FrequencyChanges><FrequencyChange><Frequency dt:dt=""r8"">3215292</Frequency><Timestamp dt:dt=""r8"">1598637407119</Timestamp><Current dt:dt=""r8"">0</Current><DateUtc dt:dt=""string"">2018-10-25T19:02:32Z</DateUtc></FrequencyChange></FrequencyChanges></Clock>\n",KW_Experiment5A-43-1,59.947,1.0.0.105,2,910202918,Professional,2.0.10.353,2.0.10.353,10/25/2018,10/25/2018 19:02,15:02:33,2.0.10.248,2,2,1,2,,,,,,,,TrainingProc,BlockList,4,2,Distractor1.bmp,1,0,,0,1,89482,500,,0,0,blue,500,2,500,,horizontal,blue,Distractor2.bmp,yellow,Distractor1.bmp,lime,Distractor1.bmp,red,Target2.bmp,purple,Distractor1.bmp,cyan,Distractor1.bmp,,,,TrialProc,3,TrainingTrialList,1,2,-999999,0,89982,0,2,702,90684,Target2.bmp,red,2,,,,10,2,4
KW_Experiment5A,43,1,"<?xml version=""1.0""?>\n<Clock xmlns:dt=""urn:schemas-microsoft-com:datatypes""><Description dt:dt=""string"">E-Prime Primary Realtime Clock</Description><StartTime><Timestamp dt:dt=""int"">0</Timestamp><DateUtc dt:dt=""string"">2018-10-25T19:02:32Z</DateUtc></StartTime><FrequencyChanges><FrequencyChange><Frequency dt:dt=""r8"">3215292</Frequency><Timestamp dt:dt=""r8"">1598637407119</Timestamp><Current dt:dt=""r8"">0</Current><DateUtc dt:dt=""string"">2018-10-25T19:02:32Z</DateUtc></FrequencyChange></FrequencyChanges></Clock>\n",KW_Experiment5A-43-1,59.947,1.0.0.105,2,910202918,Professional,2.0.10.353,2.0.10.353,10/25/2018,10/25/2018 19:02,15:02:33,2.0.10.248,2,2,1,2,,,,,,,,TrainingProc,BlockList,5,1,Distractor1.bmp,1,0,,1,0,91700,601,,0,0,cyan,600,3,600,,vertical,cyan,Distractor1.bmp,purple,Distractor2.bmp,blue,Distractor1.bmp,lime,Distractor2.bmp,yellow,Distractor1.bmp,red,Target1.bmp,,,,TrialProc,4,TrainingTrialList,1,1,-999999,1,92301,0,1,455,92756,Target1.bmp,red,1,,,,12,2,5
KW_Experiment5A,43,1,"<?xml version=""1.0""?>\n<Clock xmlns:dt=""urn:schemas-microsoft-com:datatypes""><Description dt:dt=""string"">E-Prime Primary Realtime Clock</Description><StartTime><Timestamp dt:dt=""int"">0</Timestamp><DateUtc dt:dt=""string"">2018-10-25T19:02:32Z</DateUtc></StartTime><FrequencyChanges><FrequencyChange><Frequency dt:dt=""r8"">3215292</Frequency><Timestamp dt:dt=""r8"">1598637407119</Timestamp><Current dt:dt=""r8"">0</Current><DateUtc dt:dt=""string"">2018-10-25T19:02:32Z</DateUtc></FrequencyChange></FrequencyChanges></Clock>\n",KW_Experiment5A-43-1,59.947,1.0.0.105,2,910202918,Professional,2.0.10.353,2.0.10.353,10/25/2018,10/25/2018 19:02,15:02:33,2.0.10.248,2,2,1,2,,,,,,,,TrainingProc,BlockList,6,1,Distractor2.bmp,2,0,,0,1,93769,500,,0,0,cyan,500,2,500,,vertical,cyan,Distractor2.bmp,yellow,Distractor1.bmp,blue,Distractor2.bmp,red,Target1.bmp,purple,Distractor2.bmp,lime,Distractor2.bmp,,,,TrialProc,4,TrainingTrialList,1,1,-999999,0,94269,0,1,487,94756,Target1.bmp,red,1,,,,10,2,6
KW_Experiment5A,43,1,"<?xml version=""1.0""?>\n<Clock xmlns:dt=""urn:schemas-microsoft-com:datatypes""><Description dt:dt=""string"">E-Prime Primary Realtime Clock</Description><StartTime><Timestamp dt:dt=""int"">0</Timestamp><DateUtc dt:dt=""string"">2018-10-25T19:02:32Z</DateUtc></StartTime><FrequencyChanges><FrequencyChange><Frequency dt:dt=""r8"">3215292</Frequency><Timestamp dt:dt=""r8"">1598637407119</Timestamp><Current dt:dt=""r8"">0</Current><DateUtc dt:dt=""string"">2018-10-25T19:02:32Z</DateUtc></FrequencyChange></FrequencyChanges></Clock>\n",KW_Experiment5A-43-1,59.947,1.0.0.105,2,910202918,Professional,2.0.10.353,2.0.10.353,10/25/2018,10/25/2018 19:02,15:02:33,2.0.10.248,2,2,1,2,,,,,,,,TrainingProc,BlockList,7,2,Distractor1.bmp,1,0,,0,1,95771,500,,0,0,yellow,500,2,500,2,horizontal,yellow,Distractor1.bmp,cyan,Distractor1.bmp,purple,Distractor2.bmp,red,Distractor2.bmp,blue,Distractor2.bmp,lime,Target2.bmp,,,,TrialProc,,TrainingTrialList,1,2,-999999,0,96271,0,2,621,96892,Target2.bmp,lime,2,,,,6,2,7
KW_Experiment5A,43,1,"<?xml version=""1.0""?>\n<Clock xmlns:dt=""urn:schemas-microsoft-com:datatypes""><Description dt:dt=""string"">E-Prime Primary Realtime Clock</Description><StartTime><Timestamp dt:dt=""int"">0</Timestamp><DateUtc dt:dt=""string"">2018-10-25T19:02:32Z</DateUtc></StartTime><FrequencyChanges><FrequencyChange><Frequency dt:dt=""r8"">3215292</Frequency><Timestamp dt:dt=""r8"">1598637407119</Timestamp><Current dt:dt=""r8"">0</Current><DateUtc dt:dt=""string"">2018-10-25T19:02:32Z</DateUtc></FrequencyChange></FrequencyChanges></Clock>\n",KW_Experiment5A-43-1,59.947,1.0.0.105,2,910202918,Professional,2.0.10.353,2.0.10.353,10/25/2018,10/25/2018 19:02,15:02:33,2.0.10.248,2,2,1,2,,,,,,,,TrainingProc,BlockList,8,2,Distractor2.bmp,2,0,,0,1,97906,601,,0,0,cyan,600,3,600,,horizontal,cyan,Distractor1.bmp,blue,Distractor2.bmp,red,Target2.bmp,yellow,Distractor2.bmp,lime,Distractor2.bmp,purple,Distractor2.bmp,,,,TrialProc,4,TrainingTrialList,1,2,-999999,1,98507,0,2,505,99012,Target2.bmp,red,2,,,,9,2,8
KW_Experiment5A,43,1,"<?xml version=""1.0""?>\n<Clock xmlns:dt=""urn:schemas-microsoft-com:datatypes""><Description dt:dt=""string"">E-Prime Primary Realtime Clock</Description><StartTime><Timestamp dt:dt=""int"">0</Timestamp><DateUtc dt:dt=""string"">2018-10-25T19:02:32Z</DateUtc></StartTime><FrequencyChanges><FrequencyChange><Frequency dt:dt=""r8"">3215292</Frequency><Timestamp dt:dt=""r8"">1598637407119</Timestamp><Current dt:dt=""r8"">0</Current><DateUtc dt:dt=""string"">2018-10-25T19:02:32Z</DateUtc></FrequencyChange></FrequencyChanges></Clock>\n",KW_Experiment5A-43-1,59.947,1.0.0.105,2,910202918,Professional,2.0.10.353,2.0.10.353,10/25/2018,10/25/2018 19:02,15:02:33,2.0.10.248,2,2,1,2,,,,,,,,TrainingProc,BlockList,9,2,Distractor2.bmp,2,0,,0,1,100025,500,,0,0,cyan,500,2,500,,horizontal,cyan,Distractor1.bmp,red,Target2.bmp,blue,Distractor2.bmp,yellow,Distractor2.bmp,lime,Distractor2.bmp,purple,Distractor1.bmp,,,,TrialProc,4,TrainingTrialList,1,2,-999999,0,100525,0,2,591,101116,Target2.bmp,red,2,,,,8,2,9
KW_Experiment5A,43,1,"<?xml version=""1.0""?>\n<Clock xmlns:dt=""urn:schemas-microsoft-com:datatypes""><Description dt:dt=""string"">E-Prime Primary Realtime Clock</Description><StartTime><Timestamp dt:dt=""int"">0</Timestamp><DateUtc dt:dt=""string"">2018-10-25T19:02:32Z</DateUtc></StartTime><FrequencyChanges><FrequencyChange><Frequency dt:dt=""r8"">3215292</Frequency><Timestamp dt:dt=""r8"">1598637407119</Timestamp><Current dt:dt=""r8"">0</Current><DateUtc dt:dt=""string"">2018-10-25T19:02:32Z</DateUtc></FrequencyChange></FrequencyChanges></Clock>\n",KW_Experiment5A-43-1,59.947,1.0.0.105,2,910202918,Professional,2.0.10.353,2.0.10.353,10/25/2018,10/25/2018 19:02,15:02:33,2.0.10.248,2,2,1,2,,,,,,,,TrainingProc,BlockList,10,1,Distractor2.bmp,2,0,,0,1,102127,600,,0,0,cyan,600,3,600,,vertical,cyan,Distractor2.bmp,yellow,Distractor2.bmp,red,Target1.bmp,blue,Distractor2.bmp,purple,Distractor2.bmp,lime,Distractor2.bmp,,,,TrialProc,4,TrainingTrialList,0,1,-999999,0,102727,0,2,845,103572,Target1.bmp,red,1,,,,9,2,10
KW_Experiment5A,43,1,"<?xml version=""1.0""?>\n<Clock xmlns:dt=""urn:schemas-microsoft-com:datatypes""><Description dt:dt=""string"">E-Prime Primary Realtime Clock</Description><StartTime><Timestamp dt:dt=""int"">0</Timestamp><DateUtc dt:dt=""string"">2018-10-25T19:02:32Z</DateUtc></StartTime><FrequencyChanges><FrequencyChange><Frequency dt:dt=""r8"">3215292</Frequency><Timestamp dt:dt=""r8"">1598637407119</Timestamp><Current dt:dt=""r8"">0</Current><DateUtc dt:dt=""string"">2018-10-25T19:02:32Z</DateUtc></FrequencyChange></FrequencyChanges></Clock>\n",KW_Experiment5A-43-1,59.947,1.0.0.105,2,910202918,Professional,2.0.10.353,2.0.10.353,10/25/2018,10/25/2018 19:02,15:02:33,2.0.10.248,2,2,1,2,,,,,,,,TrainingProc,BlockList,11,1,Distractor1.bmp,1,0,,1,0,104595,401,,0,0,red,400,1,400,1,vertical,red,Distractor2.bmp,lime,Target1.bmp,purple,Distractor1.bmp,cyan,Distractor2.bmp,blue,Distractor2.bmp,yellow,Distractor1.bmp,,,,TrialProc,,TrainingTrialList,1,1,-999999,1,104996,0,1,880,105876,Target1.bmp,lime,1,,,,2,2,11
KW_Experiment5A,43,1,"<?xml version=""1.0""?>\n<Clock xmlns:dt=""urn:schemas-microsoft-com:datatypes""><Description dt:dt=""string"">E-Prime Primary Realtime Clock</Description><StartTime><Timestamp dt:dt=""int"">0</Timestamp><DateUtc dt:dt=""string"">2018-10-25T19:02:32Z</DateUtc></StartTime><FrequencyChanges><FrequencyChange><Frequency dt:dt=""r8"">3215292</Frequency><Timestamp dt:dt=""r8"">1598637407119</Timestamp><Current dt:dt=""r8"">0</Current><DateUtc dt:dt=""string"">2018-10-25T19:02:32Z</DateUtc></FrequencyChange></FrequencyChanges></Clock>\n",KW_Experiment5A-43-1,59.947,1.0.0.105,2,910202918,Professional,2.0.10.353,2.0.10.353,10/25/2018,10/25/2018 19:02,15:02:33,2.0.10.248,2,2,1,2,,,,,,,,TrainingProc,BlockList,12,2,Distractor2.bmp,2,0,,0,1,106898,500,,0,0,blue,500,2,500,,horizontal,blue,Distractor2.bmp,purple,Distractor1.bmp,cyan,Distractor1.bmp,lime,Distractor1.bmp,red,Target2.bmp,yellow,Distractor2.bmp,,,,TrialProc,3,TrainingTrialList,0,2,-999999,0,107398,0,1,262,107660,Target2.bmp,red,2,,,,11,2,12
KW_Experiment5A,43,1,"<?xml version=""1.0""?>\n<Clock xmlns:dt=""urn:schemas-microsoft-com:datatypes""><Description dt:dt=""string"">E-Prime Primary Realtime Clock</Description><StartTime><Timestamp dt:dt=""int"">0</Timestamp><DateUtc dt:dt=""string"">2018-10-25T19:02:32Z</DateUtc></StartTime><FrequencyChanges><FrequencyChange><Frequency dt:dt=""r8"">3215292</Frequency><Timestamp dt:dt=""r8"">1598637407119</Timestamp><Current dt:dt=""r8"">0</Current><DateUtc dt:dt=""string"">2018-10-25T19:02:32Z</DateUtc></FrequencyChange></FrequencyChanges></Clock>\n",KW_Experiment5A-43-1,59.947,1.0.0.105,2,910202918,Professional,2.0.10.353,2.0.10.353,10/25/2018,10/25/2018 19:02,15:02:33,2.0.10.248,2,2,1,2,,,,,,,,TrainingProc,BlockList,13,2,Distractor2.bmp,2,0,,0,1,108683,400,,0,0,yellow,400,1,400,,horizontal,yellow,Distractor2.bmp,blue,Distractor2.bmp,purple,Distractor2.bmp,cyan,Distractor2.bmp,lime,Distractor1.bmp,red,Target2.bmp,,,,TrialProc,2,TrainingTrialList,1,2,-999999,0,109083,0,2,737,109820,Target2.bmp,red,2,,,,12,2,13
KW_Experiment5A,43,1,"<?xml version=""1.0""?>\n<Clock xmlns:dt=""urn:schemas-microsoft-com:datatypes""><Description dt:dt=""string"">E-Prime Primary Realtime Clock</Description><StartTime><Timestamp dt:dt=""int"">0</Timestamp><DateUtc dt:dt=""string"">2018-10-25T19:02:32Z</DateUtc></StartTime><FrequencyChanges><FrequencyChange><Frequency dt:dt=""r8"">3215292</Frequency><Timestamp dt:dt=""r8"">1598637407119</Timestamp><Current dt:dt=""r8"">0</Current><DateUtc dt:dt=""string"">2018-10-25T19:02:32Z</DateUtc></FrequencyChange></FrequencyChanges></Clock>\n",KW_Experiment5A-43-1,59.947,1.0.0.105,2,910202918,Professional,2.0.10.353,2.0.10.353,10/25/2018,10/25/2018 19:02,15:02:33,2.0.10.248,2,2,1,2,,,,,,,,TrainingProc,BlockList,14,2,Distractor1.bmp,1,0,,1,0,110834,601,,0,0,yellow,600,3,600,,horizontal,yellow,Distractor1.bmp,cyan,Distractor2.bmp,blue,Distractor1.bmp,purple,Distractor1.bmp,red,Target2.bmp,lime,Distractor1.bmp,,,,TrialProc,2,TrainingTrialList,1,2,-999999,1,111435,0,2,601,112036,Target2.bmp,red,2,,,,11,2,14
KW_Experiment5A,43,1,"<?xml version=""1.0""?>\n<Clock xmlns:dt=""urn:schemas-microsoft-com:datatypes""><Description dt:dt=""string"">E-Prime Primary Realtime Clock</Description><StartTime><Timestamp dt:dt=""int"">0</Timestamp><DateUtc dt:dt=""string"">2018-10-25T19:02:32Z</DateUtc></StartTime><FrequencyChanges><FrequencyChange><Frequency dt:dt=""r8"">3215292</Frequency><Timestamp dt:dt=""r8"">1598637407119</Timestamp><Current dt:dt=""r8"">0</Current><DateUtc dt:dt=""string"">2018-10-25T19:02:32Z</DateUtc></FrequencyChange></FrequencyChanges></Clock>\n",KW_Experiment5A-43-1,59.947,1.0.0.105,2,910202918,Professional,2.0.10.353,2.0.10.353,10/25/2018,10/25/2018 19:02,15:02:33,2.0.10.248,2,2,1,2,,,,,,,,TrainingProc,BlockList,15,2,Distractor1.bmp,1,0,,0,1,113053,401,,0,0,purple,400,1,400,5,horizontal,purple,Distractor1.bmp,cyan,Distractor2.bmp,lime,Target2.bmp,yellow,Distractor1.bmp,blue,Distractor1.bmp,red,Distractor2.bmp,,,,TrialProc,,TrainingTrialList,1,2,-999999,1,113454,0,2,558,114012,Target2.bmp,lime,2,,,,3,2,15
KW_Experiment5A,43,1,"<?xml version=""1.0""?>\n<Clock xmlns:dt=""urn:schemas-microsoft-com:datatypes""><Description dt:dt=""string"">E-Prime Primary Realtime Clock</Description><StartTime><Timestamp dt:dt=""int"">0</Timestamp><DateUtc dt:dt=""string"">2018-10-25T19:02:32Z</DateUtc></StartTime><FrequencyChanges><FrequencyChange><Frequency dt:dt=""r8"">3215292</Frequency><Timestamp dt:dt=""r8"">1598637407119</Timestamp><Current dt:dt=""r8"">0</Current><DateUtc dt:dt=""string"">2018-10-25T19:02:32Z</DateUtc></FrequencyChange></FrequencyChanges></Clock>\n",KW_Experiment5A-43-1,59.947,1.0.0.105,2,910202918,Professional,2.0.10.353,2.0.10.353,10/25/2018,10/25/2018 19:02,15:02:33,2.0.10.248,2,2,1,2,,,,,,,,TrainingProc,BlockList,16,2,Distractor1.bmp,1,0,,0,1,115022,600,,0,0,blue,600,3,600,,horizontal,red,Target2.bmp,lime,Distractor1.bmp,purple,Distractor2.bmp,yellow,Distractor2.bmp,cyan,Distractor2.bmp,blue,Distractor1.bmp,,,,TrialProc,3,TrainingTrialList,1,2,-999999,0,115622,0,2,574,116196,Target2.bmp,red,2,,,,7,2,16
KW_Experiment5A,43,1,"<?xml version=""1.0""?>\n<Clock xmlns:dt=""urn:schemas-microsoft-com:datatypes""><Description dt:dt=""string"">E-Prime Primary Realtime Clock</Description><StartTime><Timestamp dt:dt=""int"">0</Timestamp><DateUtc dt:dt=""string"">2018-10-25T19:02:32Z</DateUtc></StartTime><FrequencyChanges><FrequencyChange><Frequency dt:dt=""r8"">3215292</Frequency><Timestamp dt:dt=""r8"">1598637407119</Timestamp><Current dt:dt=""r8"">0</Current><DateUtc dt:dt=""string"">2018-10-25T19:02:32Z</DateUtc></FrequencyChange></FrequencyChanges></Clock>\n",KW_Experiment5A-43-1,59.947,1.0.0.105,2,910202918,Professional,2.0.10.353,2.0.10.353,10/25/2018,10/25/2018 19:02,15:02:33,2.0.10.248,2,2,1,2,,,,,,,,TrainingProc,BlockList,17,1,Distractor1.bmp,1,0,,0,1,117207,400,,0,0,purple,400,1,400,,vertical,purple,Distractor2.bmp,cyan,Distractor2.bmp,yellow,Distractor2.bmp,blue,Distractor2.bmp,red,Target1.bmp,lime,Distractor1.bmp,,,,TrialProc,5,TrainingTrialList,1,1,-999999,0,117607,0,1,677,118284,Target1.bmp,red,1,,,,11,2,17
KW_Experiment5A,43,1,"<?xml version=""1.0""?>\n<Clock xmlns:dt=""urn:schemas-microsoft-com:datatypes""><Description dt:dt=""string"">E-Prime Primary Realtime Clock</Description><StartTime><Timestamp dt:dt=""int"">0</Timestamp><DateUtc dt:dt=""string"">2018-10-25T19:02:32Z</DateUtc></StartTime><FrequencyChanges><FrequencyChange><Frequency dt:dt=""r8"">3215292</Frequency><Timestamp dt:dt=""r8"">1598637407119</Timestamp><Current dt:dt=""r8"">0</Current><DateUtc dt:dt=""string"">2018-10-25T19:02:32Z</DateUtc></FrequencyChange></FrequencyChanges></Clock>\n",KW_Experiment5A-43-1,59.947,1.0.0.105,2,910202918,Professional,2.0.10.353,2.0.10.353,10/25/2018,10/25/2018 19:02,15:02:33,2.0.10.248,2,2,1,2,,,,,,,,TrainingProc,BlockList,18,1,Distractor2.bmp,2,0,,0,1,119309,500,,0,0,blue,500,2,500,3,vertical,blue,Distractor1.bmp,purple,Distractor2.bmp,yellow,Distractor1.bmp,red,Distractor1.bmp,lime,Target1.bmp,cyan,Distractor2.bmp,,,,TrialProc,,TrainingTrialList,1,1,-999999,0,119809,0,1,467,120276,Target1.bmp,lime,1,,,,5,2,18
KW_Experiment5A,43,1,"<?xml version=""1.0""?>\n<Clock xmlns:dt=""urn:schemas-microsoft-com:datatypes""><Description dt:dt=""string"">E-Prime Primary Realtime Clock</Description><StartTime><Timestamp dt:dt=""int"">0</Timestamp><DateUtc dt:dt=""string"">2018-10-25T19:02:32Z</DateUtc></StartTime><FrequencyChanges><FrequencyChange><Frequency dt:dt=""r8"">3215292</Frequency><Timestamp dt:dt=""r8"">1598637407119</Timestamp><Current dt:dt=""r8"">0</Current><DateUtc dt:dt=""string"">2018-10-25T19:02:32Z</DateUtc></FrequencyChange></FrequencyChanges></Clock>\n",KW_Experiment5A-43-1,59.947,1.0.0.105,2,910202918,Professional,2.0.10.353,2.0.10.353,10/25/2018,10/25/2018 19:02,15:02:33,2.0.10.248,2,2,1,2,,,,,,,,TrainingProc,BlockList,19,1,Distractor1.bmp,1,0,,0,1,121294,601,,0,0,cyan,600,3,600,,vertical,red,Target1.bmp,lime,Distractor1.bmp,yellow,Distractor1.bmp,blue,Distractor2.bmp,purple,Distractor1.bmp,cyan,Distractor2.bmp,,,,TrialProc,4,TrainingTrialList,1,1,-999999,1,121895,0,1,525,122420,Target1.bmp,red,1,,,,7,2,19
KW_Experiment5A,43,1,"<?xml version=""1.0""?>\n<Clock xmlns:dt=""urn:schemas-microsoft-com:datatypes""><Description dt:dt=""string"">E-Prime Primary Realtime Clock</Description><StartTime><Timestamp dt:dt=""int"">0</Timestamp><DateUtc dt:dt=""string"">2018-10-25T19:02:32Z</DateUtc></StartTime><FrequencyChanges><FrequencyChange><Frequency dt:dt=""r8"">3215292</Frequency><Timestamp dt:dt=""r8"">1598637407119</Timestamp><Current dt:dt=""r8"">0</Current><DateUtc dt:dt=""string"">2018-10-25T19:02:32Z</DateUtc></FrequencyChange></FrequencyChanges></Clock>\n",KW_Experiment5A-43-1,59.947,1.0.0.105,2,910202918,Professional,2.0.10.353,2.0.10.353,10/25/2018,10/25/2018 19:02,15:02:33,2.0.10.248,2,2,1,2,,,,,,,,TrainingProc,BlockList,20,2,Distractor1.bmp,1,0,,0,1,123429,401,,0,0,lime,400,1,400,,horizontal,red,Target2.bmp,purple,Distractor1.bmp,blue,Distractor1.bmp,yellow,Distractor1.bmp,cyan,Distractor2.bmp,lime,Distractor2.bmp,,,,TrialProc,6,TrainingTrialList,1,2,-999999,1,123830,0,2,614,124444,Target2.bmp,red,2,,,,7,2,20
KW_Experiment5A,43,1,"<?xml version=""1.0""?>\n<Clock xmlns:dt=""urn:schemas-microsoft-com:datatypes""><Description dt:dt=""string"">E-Prime Primary Realtime Clock</Description><StartTime><Timestamp dt:dt=""int"">0</Timestamp><DateUtc dt:dt=""string"">2018-10-25T19:02:32Z</DateUtc></StartTime><FrequencyChanges><FrequencyChange><Frequency dt:dt=""r8"">3215292</Frequency><Timestamp dt:dt=""r8"">1598637407119</Timestamp><Current dt:dt=""r8"">0</Current><DateUtc dt:dt=""string"">2018-10-25T19:02:32Z</DateUtc></FrequencyChange></FrequencyChanges></Clock>\n",KW_Experiment5A-43-1,59.947,1.0.0.105,2,910202918,Professional,2.0.10.353,2.0.10.353,10/25/2018,10/25/2018 19:02,15:02:33,2.0.10.248,2,2,1,2,,,,,,,,TrainingProc,BlockList,21,1,Distractor1.bmp,1,0,,0,1,125464,601,,0,0,blue,600,3,600,,vertical,blue,Distractor2.bmp,red,Target1.bmp,yellow,Distractor1.bmp,cyan,Distractor2.bmp,lime,Distractor1.bmp,purple,Distractor2.bmp,,,,TrialProc,3,TrainingTrialList,1,1,-999999,1,126065,0,1,475,126540,Target1.bmp,red,1,,,,8,2,21
KW_Experiment5A,43,1,"<?xml version=""1.0""?>\n<Clock xmlns:dt=""urn:schemas-microsoft-com:datatypes""><Description dt:dt=""string"">E-Prime Primary Realtime Clock</Description><StartTime><Timestamp dt:dt=""int"">0</Timestamp><DateUtc dt:dt=""string"">2018-10-25T19:02:32Z</DateUtc></StartTime><FrequencyChanges><FrequencyChange><Frequency dt:dt=""r8"">3215292</Frequency><Timestamp dt:dt=""r8"">1598637407119</Timestamp><Current dt:dt=""r8"">0</Current><DateUtc dt:dt=""string"">2018-10-25T19:02:32Z</DateUtc></FrequencyChange></FrequencyChanges></Clock>\n",KW_Experiment5A-43-1,59.947,1.0.0.105,2,910202918,Professional,2.0.10.353,2.0.10.353,10/25/2018,10/25/2018 19:02,15:02:33,2.0.10.248,2,2,1,2,,,,,,,,TrainingProc,BlockList,22,1,Distractor2.bmp,2,0,,0,1,127550,400,,0,0,yellow,400,1,400,,vertical,yellow,Distractor2.bmp,red,Target1.bmp,lime,Distractor2.bmp,blue,Distractor1.bmp,purple,Distractor1.bmp,cyan,Distractor2.bmp,,,,TrialProc,2,TrainingTrialList,0,1,-999999,0,127950,0,2,750,128700,Target1.bmp,red,1,,,,8,2,22
KW_Experiment5A,43,1,"<?xml version=""1.0""?>\n<Clock xmlns:dt=""urn:schemas-microsoft-com:datatypes""><Description dt:dt=""string"">E-Prime Primary Realtime Clock</Description><StartTime><Timestamp dt:dt=""int"">0</Timestamp><DateUtc dt:dt=""string"">2018-10-25T19:02:32Z</DateUtc></StartTime><FrequencyChanges><FrequencyChange><Frequency dt:dt=""r8"">3215292</Frequency><Timestamp dt:dt=""r8"">1598637407119</Timestamp><Current dt:dt=""r8"">0</Current><DateUtc dt:dt=""string"">2018-10-25T19:02:32Z</DateUtc></FrequencyChange></FrequencyChanges></Clock>\n",KW_Experiment5A-43-1,59.947,1.0.0.105,2,910202918,Professional,2.0.10.353,2.0.10.353,10/25/2018,10/25/2018 19:02,15:02:33,2.0.10.248,2,2,1,2,,,,,,,,TrainingProc,BlockList,23,1,Distractor2.bmp,2,0,,0,1,129718,401,,0,0,yellow,400,1,400,,vertical,yellow,Distractor2.bmp,cyan,Distractor2.bmp,lime,Distractor1.bmp,purple,Distractor1.bmp,blue,Distractor1.bmp,red,Target1.bmp,,,,TrialProc,2,TrainingTrialList,1,1,-999999,1,130119,0,1,852,130971,Target1.bmp,red,1,,,,12,2,23
KW_Experiment5A,43,1,"<?xml version=""1.0""?>\n<Clock xmlns:dt=""urn:schemas-microsoft-com:datatypes""><Description dt:dt=""string"">E-Prime Primary Realtime Clock</Description><StartTime><Timestamp dt:dt=""int"">0</Timestamp><DateUtc dt:dt=""string"">2018-10-25T19:02:32Z</DateUtc></StartTime><FrequencyChanges><FrequencyChange><Frequency dt:dt=""r8"">3215292</Frequency><Timestamp dt:dt=""r8"">1598637407119</Timestamp><Current dt:dt=""r8"">0</Current><DateUtc dt:dt=""string"">2018-10-25T19:02:32Z</DateUtc></FrequencyChange></FrequencyChanges></Clock>\n",KW_Experiment5A-43-1,59.947,1.0.0.105,2,910202918,Professional,2.0.10.353,2.0.10.353,10/25/2018,10/25/2018 19:02,15:02:33,2.0.10.248,2,2,1,2,,,,,,,,TrainingProc,BlockList,24,1,Distractor2.bmp,2,0,,0,1,131987,500,,0,0,red,500,2,500,1,vertical,lime,Target1.bmp,red,Distractor2.bmp,blue,Distractor1.bmp,cyan,Distractor1.bmp,yellow,Distractor2.bmp,purple,Distractor2.bmp,,,,TrialProc,,TrainingTrialList,1,1,-999999,0,132487,0,1,964,133451,Target1.bmp,lime,1,,,,1,2,24
KW_Experiment5A,43,1,"<?xml version=""1.0""?>\n<Clock xmlns:dt=""urn:schemas-microsoft-com:datatypes""><Description dt:dt=""string"">E-Prime Primary Realtime Clock</Description><StartTime><Timestamp dt:dt=""int"">0</Timestamp><DateUtc dt:dt=""string"">2018-10-25T19:02:32Z</DateUtc></StartTime><FrequencyChanges><FrequencyChange><Frequency dt:dt=""r8"">3215292</Frequency><Timestamp dt:dt=""r8"">1598637407119</Timestamp><Current dt:dt=""r8"">0</Current><DateUtc dt:dt=""string"">2018-10-25T19:02:32Z</DateUtc></FrequencyChange></FrequencyChanges></Clock>\n",KW_Experiment5A-43-1,59.947,1.0.0.105,2,910202918,Professional,2.0.10.353,2.0.10.353,10/25/2018,10/25/2018 19:02,15:02:33,2.0.10.248,2,2,1,2,,,,,,,,TrainingProc,BlockList,25,1,Distractor1.bmp,1,0,,0,1,134473,600,,0,0,purple,600,3,600,,vertical,purple,Distractor2.bmp,red,Target1.bmp,lime,Distractor1.bmp,blue,Distractor2.bmp,yellow,Distractor2.bmp,cyan,Distractor1.bmp,,,,TrialProc,5,TrainingTrialList,1,1,-999999,0,135073,0,1,626,135699,Target1.bmp,red,1,,,,8,3,25
KW_Experiment5A,43,1,"<?xml version=""1.0""?>\n<Clock xmlns:dt=""urn:schemas-microsoft-com:datatypes""><Description dt:dt=""string"">E-Prime Primary Realtime Clock</Description><StartTime><Timestamp dt:dt=""int"">0</Timestamp><DateUtc dt:dt=""string"">2018-10-25T19:02:32Z</DateUtc></StartTime><FrequencyChanges><FrequencyChange><Frequency dt:dt=""r8"">3215292</Frequency><Timestamp dt:dt=""r8"">1598637407119</Timestamp><Current dt:dt=""r8"">0</Current><DateUtc dt:dt=""string"">2018-10-25T19:02:32Z</DateUtc></FrequencyChange></FrequencyChanges></Clock>\n",KW_Experiment5A-43-1,59.947,1.0.0.105,2,910202918,Professional,2.0.10.353,2.0.10.353,10/25/2018,10/25/2018 19:02,15:02:33,2.0.10.248,2,2,1,2,,,,,,,,TrainingProc,BlockList,26,1,Distractor1.bmp,1,0,,0,1,136725,600,,0,0,purple,600,3,600,,vertical,purple,Distractor1.bmp,blue,Distractor2.bmp,cyan,Distractor1.bmp,red,Target1.bmp,yellow,Distractor1.bmp,lime,Distractor1.bmp,,,,TrialProc,5,TrainingTrialList,1,1,-999999,0,137325,0,1,550,137875,Target1.bmp,red,1,,,,10,3,26
KW_Experiment5A,43,1,"<?xml version=""1.0""?>\n<Clock xmlns:dt=""urn:schemas-microsoft-com:datatypes""><Description dt:dt=""string"">E-Prime Primary Realtime Clock</Description><StartTime><Timestamp dt:dt=""int"">0</Timestamp><DateUtc dt:dt=""string"">2018-10-25T19:02:32Z</DateUtc></StartTime><FrequencyChanges><FrequencyChange><Frequency dt:dt=""r8"">3215292</Frequency><Timestamp dt:dt=""r8"">1598637407119</Timestamp><Current dt:dt=""r8"">0</Current><DateUtc dt:dt=""string"">2018-10-25T19:02:32Z</DateUtc></FrequencyChange></FrequencyChanges></Clock>\n",KW_Experiment5A-43-1,59.947,1.0.0.105,2,910202918,Professional,2.0.10.353,2.0.10.353,10/25/2018,10/25/2018 19:02,15:02:33,2.0.10.248,2,2,1,2,,,,,,,,TrainingProc,BlockList,27,2,Distractor1.bmp,1,0,,0,1,138893,601,,0,0,blue,600,3,600,,horizontal,red,Target2.bmp,yellow,Distractor1.bmp,purple,Distractor2.bmp,cyan,Distractor1.bmp,lime,Distractor1.bmp,blue,Distractor1.bmp,,,,TrialProc,3,TrainingTrialList,1,2,-999999,1,139494,0,2,637,140131,Target2.bmp,red,2,,,,7,3,27
KW_Experiment5A,43,1,"<?xml version=""1.0""?>\n<Clock xmlns:dt=""urn:schemas-microsoft-com:datatypes""><Description dt:dt=""string"">E-Prime Primary Realtime Clock</Description><StartTime><Timestamp dt:dt=""int"">0</Timestamp><DateUtc dt:dt=""string"">2018-10-25T19:02:32Z</DateUtc></StartTime><FrequencyChanges><FrequencyChange><Frequency dt:dt=""r8"">3215292</Frequency><Timestamp dt:dt=""r8"">1598637407119</Timestamp><Current dt:dt=""r8"">0</Current><DateUtc dt:dt=""string"">2018-10-25T19:02:32Z</DateUtc></FrequencyChange></FrequencyChanges></Clock>\n",KW_Experiment5A-43-1,59.947,1.0.0.105,2,910202918,Professional,2.0.10.353,2.0.10.353,10/25/2018,10/25/2018 19:02,15:02:33,2.0.10.248,2,2,1,2,,,,,,,,TrainingProc,BlockList,28,1,Distractor1.bmp,1,0,,0,1,141145,501,,0,0,cyan,500,2,500,4,vertical,cyan,Distractor1.bmp,red,Distractor1.bmp,purple,Distractor1.bmp,blue,Distractor1.bmp,lime,Target1.bmp,yellow,Distractor1.bmp,,,,TrialProc,,TrainingTrialList,1,1,-999999,1,141646,0,1,645,142291,Target1.bmp,lime,1,,,,5,3,28
KW_Experiment5A,43,1,"<?xml version=""1.0""?>\n<Clock xmlns:dt=""urn:schemas-microsoft-com:datatypes""><Description dt:dt=""string"">E-Prime Primary Realtime Clock</Description><StartTime><Timestamp dt:dt=""int"">0</Timestamp><DateUtc dt:dt=""string"">2018-10-25T19:02:32Z</DateUtc></StartTime><FrequencyChanges><FrequencyChange><Frequency dt:dt=""r8"">3215292</Frequency><Timestamp dt:dt=""r8"">1598637407119</Timestamp><Current dt:dt=""r8"">0</Current><DateUtc dt:dt=""string"">2018-10-25T19:02:32Z</DateUtc></FrequencyChange></FrequencyChanges></Clock>\n",KW_Experiment5A-43-1,59.947,1.0.0.105,2,910202918,Professional,2.0.10.353,2.0.10.353,10/25/2018,10/25/2018 19:02,15:02:33,2.0.10.248,2,2,1,2,,,,,,,,TrainingProc,BlockList,29,1,Distractor2.bmp,2,0,,0,1,143314,400,,0,0,lime,400,1,400,,vertical,lime,Distractor1.bmp,blue,Distractor2.bmp,red,Target1.bmp,cyan,Distractor2.bmp,yellow,Distractor1.bmp,purple,Distractor1.bmp,,,,TrialProc,6,TrainingTrialList,1,1,-999999,0,143714,0,1,537,144251,Target1.bmp,red,1,,,,9,3,29
KW_Experiment5A,43,1,"<?xml version=""1.0""?>\n<Clock xmlns:dt=""urn:schemas-microsoft-com:datatypes""><Description dt:dt=""string"">E-Prime Primary Realtime Clock</Description><StartTime><Timestamp dt:dt=""int"">0</Timestamp><DateUtc dt:dt=""string"">2018-10-25T19:02:32Z</DateUtc></StartTime><FrequencyChanges><FrequencyChange><Frequency dt:dt=""r8"">3215292</Frequency><Timestamp dt:dt=""r8"">1598637407119</Timestamp><Current dt:dt=""r8"">0</Current><DateUtc dt:dt=""string"">2018-10-25T19:02:32Z</DateUtc></FrequencyChange></FrequencyChanges></Clock>\n",KW_Experiment5A-43-1,59.947,1.0.0.105,2,910202918,Professional,2.0.10.353,2.0.10.353,10/25/2018,10/25/2018 19:02,15:02:33,2.0.10.248,2,2,1,2,,,,,,,,TrainingProc,BlockList,30,2,Distractor1.bmp,1,0,,0,1,145266,500,,0,0,purple,500,2,500,,horizontal,purple,Distractor1.bmp,yellow,Distractor1.bmp,cyan,Distractor2.bmp,blue,Distractor2.bmp,lime,Distractor1.bmp,red,Target2.bmp,,,,TrialProc,5,TrainingTrialList,1,2,-999999,0,145766,0,2,877,146643,Target2.bmp,red,2,,,,12,3,30
KW_Experiment5A,43,1,"<?xml version=""1.0""?>\n<Clock xmlns:dt=""urn:schemas-microsoft-com:datatypes""><Description dt:dt=""string"">E-Prime Primary Realtime Clock</Description><StartTime><Timestamp dt:dt=""int"">0</Timestamp><DateUtc dt:dt=""string"">2018-10-25T19:02:32Z</DateUtc></StartTime><FrequencyChanges><FrequencyChange><Frequency dt:dt=""r8"">3215292</Frequency><Timestamp dt:dt=""r8"">1598637407119</Timestamp><Current dt:dt=""r8"">0</Current><DateUtc dt:dt=""string"">2018-10-25T19:02:32Z</DateUtc></FrequencyChange></FrequencyChanges></Clock>\n",KW_Experiment5A-43-1,59.947,1.0.0.105,2,910202918,Professional,2.0.10.353,2.0.10.353,10/25/2018,10/25/2018 19:02,15:02:33,2.0.10.248,2,2,1,2,,,,,,,,TrainingProc,BlockList,31,1,Distractor1.bmp,1,0,,0,1,147668,400,,0,0,purple,400,1,400,,vertical,purple,Distractor2.bmp,blue,Distractor2.bmp,red,Target1.bmp,yellow,Distractor1.bmp,lime,Distractor2.bmp,cyan,Distractor2.bmp,,,,TrialProc,5,TrainingTrialList,1,1,-999999,0,148068,0,1,759,148827,Target1.bmp,red,1,,,,9,3,31
KW_Experiment5A,43,1,"<?xml version=""1.0""?>\n<Clock xmlns:dt=""urn:schemas-microsoft-com:datatypes""><Description dt:dt=""string"">E-Prime Primary Realtime Clock</Description><StartTime><Timestamp dt:dt=""int"">0</Timestamp><DateUtc dt:dt=""string"">2018-10-25T19:02:32Z</DateUtc></StartTime><FrequencyChanges><FrequencyChange><Frequency dt:dt=""r8"">3215292</Frequency><Timestamp dt:dt=""r8"">1598637407119</Timestamp><Current dt:dt=""r8"">0</Current><DateUtc dt:dt=""string"">2018-10-25T19:02:32Z</DateUtc></FrequencyChange></FrequencyChanges></Clock>\n",KW_Experiment5A-43-1,59.947,1.0.0.105,2,910202918,Professional,2.0.10.353,2.0.10.353,10/25/2018,10/25/2018 19:02,15:02:33,2.0.10.248,2,2,1,2,,,,,,,,TrainingProc,BlockList,32,2,Distractor1.bmp,1,0,,0,1,149837,500,,0,0,cyan,500,2,500,,horizontal,cyan,Distractor1.bmp,purple,Distractor2.bmp,lime,Distractor1.bmp,yellow,Distractor2.bmp,blue,Distractor1.bmp,red,Target2.bmp,,,,TrialProc,4,TrainingTrialList,1,2,-999999,0,150337,0,2,882,151219,Target2.bmp,red,2,,,,12,3,32
KW_Experiment5A,43,1,"<?xml version=""1.0""?>\n<Clock xmlns:dt=""urn:schemas-microsoft-com:datatypes""><Description dt:dt=""string"">E-Prime Primary Realtime Clock</Description><StartTime><Timestamp dt:dt=""int"">0</Timestamp><DateUtc dt:dt=""string"">2018-10-25T19:02:32Z</DateUtc></StartTime><FrequencyChanges><FrequencyChange><Frequency dt:dt=""r8"">3215292</Frequency><Timestamp dt:dt=""r8"">1598637407119</Timestamp><Current dt:dt=""r8"">0</Current><DateUtc dt:dt=""string"">2018-10-25T19:02:32Z</DateUtc></FrequencyChange></FrequencyChanges></Clock>\n",KW_Experiment5A-43-1,59.947,1.0.0.105,2,910202918,Professional,2.0.10.353,2.0.10.353,10/25/2018,10/25/2018 19:02,15:02:33,2.0.10.248,2,2,1,2,,,,,,,,TrainingProc,BlockList,33,1,Distractor1.bmp,1,0,,0,1,152239,600,,0,0,cyan,600,3,600,4,vertical,cyan,Distractor1.bmp,red,Distractor2.bmp,yellow,Distractor1.bmp,lime,Target1.bmp,blue,Distractor1.bmp,purple,Distractor1.bmp,,,,TrialProc,,TrainingTrialList,1,1,-999999,0,152839,0,1,596,153435,Target1.bmp,lime,1,,,,4,3,33
KW_Experiment5A,43,1,"<?xml version=""1.0""?>\n<Clock xmlns:dt=""urn:schemas-microsoft-com:datatypes""><Description dt:dt=""string"">E-Prime Primary Realtime Clock</Description><StartTime><Timestamp dt:dt=""int"">0</Timestamp><DateUtc dt:dt=""string"">2018-10-25T19:02:32Z</DateUtc></StartTime><FrequencyChanges><FrequencyChange><Frequency dt:dt=""r8"">3215292</Frequency><Timestamp dt:dt=""r8"">1598637407119</Timestamp><Current dt:dt=""r8"">0</Current><DateUtc dt:dt=""string"">2018-10-25T19:02:32Z</DateUtc></FrequencyChange></FrequencyChanges></Clock>\n",KW_Experiment5A-43-1,59.947,1.0.0.105,2,910202918,Professional,2.0.10.353,2.0.10.353,10/25/2018,10/25/2018 19:02,15:02:33,2.0.10.248,2,2,1,2,,,,,,,,TrainingProc,BlockList,34,1,Distractor1.bmp,1,0,,0,1,154457,601,,0,0,yellow,600,3,600,,vertical,red,Target1.bmp,lime,Distractor1.bmp,cyan,Distractor1.bmp,purple,Distractor2.bmp,blue,Distractor2.bmp,yellow,Distractor2.bmp,,,,TrialProc,2,TrainingTrialList,0,1,-999999,1,155058,0,2,849,155907,Target1.bmp,red,1,,,,7,3,34
KW_Experiment5A,43,1,"<?xml version=""1.0""?>\n<Clock xmlns:dt=""urn:schemas-microsoft-com:datatypes""><Description dt:dt=""string"">E-Prime Primary Realtime Clock</Description><StartTime><Timestamp dt:dt=""int"">0</Timestamp><DateUtc dt:dt=""string"">2018-10-25T19:02:32Z</DateUtc></StartTime><FrequencyChanges><FrequencyChange><Frequency dt:dt=""r8"">3215292</Frequency><Timestamp dt:dt=""r8"">1598637407119</Timestamp><Current dt:dt=""r8"">0</Current><DateUtc dt:dt=""string"">2018-10-25T19:02:32Z</DateUtc></FrequencyChange></FrequencyChanges></Clock>\n",KW_Experiment5A-43-1,59.947,1.0.0.105,2,910202918,Professional,2.0.10.353,2.0.10.353,10/25/2018,10/25/2018 19:02,15:02:33,2.0.10.248,2,2,1,2,,,,,,,,TrainingProc,BlockList,35,1,Distractor1.bmp,1,0,,0,1,156926,501,,0,0,cyan,500,2,500,,vertical,cyan,Distractor2.bmp,blue,Distractor1.bmp,lime,Distractor2.bmp,yellow,Distractor2.bmp,red,Target1.bmp,purple,Distractor1.bmp,,,,TrialProc,4,TrainingTrialList,1,1,-999999,1,157427,0,1,520,157947,Target1.bmp,red,1,,,,11,3,35
KW_Experiment5A,43,1,"<?xml version=""1.0""?>\n<Clock xmlns:dt=""urn:schemas-microsoft-com:datatypes""><Description dt:dt=""string"">E-Prime Primary Realtime Clock</Description><StartTime><Timestamp dt:dt=""int"">0</Timestamp><DateUtc dt:dt=""string"">2018-10-25T19:02:32Z</DateUtc></StartTime><FrequencyChanges><FrequencyChange><Frequency dt:dt=""r8"">3215292</Frequency><Timestamp dt:dt=""r8"">1598637407119</Timestamp><Current dt:dt=""r8"">0</Current><DateUtc dt:dt=""string"">2018-10-25T19:02:32Z</DateUtc></FrequencyChange></FrequencyChanges></Clock>\n",KW_Experiment5A-43-1,59.947,1.0.0.105,2,910202918,Professional,2.0.10.353,2.0.10.353,10/25/2018,10/25/2018 19:02,15:02:33,2.0.10.248,2,2,1,2,,,,,,,,TrainingProc,BlockList,36,1,Distractor1.bmp,1,0,,1,0,158961,501,,0,0,blue,500,2,500,,vertical,blue,Distractor1.bmp,purple,Distractor2.bmp,lime,Distractor2.bmp,yellow,Distractor2.bmp,red,Target1.bmp,cyan,Distractor1.bmp,,,,TrialProc,3,TrainingTrialList,1,1,-999999,1,159462,0,1,485,159947,Target1.bmp,red,1,,,,11,3,36
KW_Experiment5A,43,1,"<?xml version=""1.0""?>\n<Clock xmlns:dt=""urn:schemas-microsoft-com:datatypes""><Description dt:dt=""string"">E-Prime Primary Realtime Clock</Description><StartTime><Timestamp dt:dt=""int"">0</Timestamp><DateUtc dt:dt=""string"">2018-10-25T19:02:32Z</DateUtc></StartTime><FrequencyChanges><FrequencyChange><Frequency dt:dt=""r8"">3215292</Frequency><Timestamp dt:dt=""r8"">1598637407119</Timestamp><Current dt:dt=""r8"">0</Current><DateUtc dt:dt=""string"">2018-10-25T19:02:32Z</DateUtc></FrequencyChange></FrequencyChanges></Clock>\n",KW_Experiment5A-43-1,59.947,1.0.0.105,2,910202918,Professional,2.0.10.353,2.0.10.353,10/25/2018,10/25/2018 19:02,15:02:33,2.0.10.248,2,2,1,2,,,,,,,,TrainingProc,BlockList,37,2,Distractor1.bmp,1,0,,0,1,160963,501,,0,0,blue,500,2,500,,horizontal,blue,Distractor1.bmp,cyan,Distractor2.bmp,lime,Distractor2.bmp,red,Target2.bmp,purple,Distractor1.bmp,yellow,Distractor2.bmp,,,,TrialProc,3,TrainingTrialList,1,2,-999999,1,161464,0,2,803,162267,Target2.bmp,red,2,,,,10,3,37
KW_Experiment5A,43,1,"<?xml version=""1.0""?>\n<Clock xmlns:dt=""urn:schemas-microsoft-com:datatypes""><Description dt:dt=""string"">E-Prime Primary Realtime Clock</Description><StartTime><Timestamp dt:dt=""int"">0</Timestamp><DateUtc dt:dt=""string"">2018-10-25T19:02:32Z</DateUtc></StartTime><FrequencyChanges><FrequencyChange><Frequency dt:dt=""r8"">3215292</Frequency><Timestamp dt:dt=""r8"">1598637407119</Timestamp><Current dt:dt=""r8"">0</Current><DateUtc dt:dt=""string"">2018-10-25T19:02:32Z</DateUtc></FrequencyChange></FrequencyChanges></Clock>\n",KW_Experiment5A-43-1,59.947,1.0.0.105,2,910202918,Professional,2.0.10.353,2.0.10.353,10/25/2018,10/25/2018 19:02,15:02:33,2.0.10.248,2,2,1,2,,,,,,,,TrainingProc,BlockList,38,1,Distractor2.bmp,2,0,,0,1,163282,400,,0,0,blue,400,1,400,,vertical,blue,Distractor1.bmp,cyan,Distractor2.bmp,red,Target1.bmp,purple,Distractor2.bmp,yellow,Distractor2.bmp,lime,Distractor1.bmp,,,,TrialProc,3,TrainingTrialList,1,1,-999999,0,163682,0,1,753,164435,Target1.bmp,red,1,,,,9,3,38
KW_Experiment5A,43,1,"<?xml version=""1.0""?>\n<Clock xmlns:dt=""urn:schemas-microsoft-com:datatypes""><Description dt:dt=""string"">E-Prime Primary Realtime Clock</Description><StartTime><Timestamp dt:dt=""int"">0</Timestamp><DateUtc dt:dt=""string"">2018-10-25T19:02:32Z</DateUtc></StartTime><FrequencyChanges><FrequencyChange><Frequency dt:dt=""r8"">3215292</Frequency><Timestamp dt:dt=""r8"">1598637407119</Timestamp><Current dt:dt=""r8"">0</Current><DateUtc dt:dt=""string"">2018-10-25T19:02:32Z</DateUtc></FrequencyChange></FrequencyChanges></Clock>\n",KW_Experiment5A-43-1,59.947,1.0.0.105,2,910202918,Professional,2.0.10.353,2.0.10.353,10/25/2018,10/25/2018 19:02,15:02:33,2.0.10.248,2,2,1,2,,,,,,,,TrainingProc,BlockList,39,2,Distractor2.bmp,2,0,,0,1,165451,600,,0,0,blue,600,3,600,3,horizontal,blue,Distractor2.bmp,red,Distractor1.bmp,lime,Target2.bmp,cyan,Distractor2.bmp,purple,Distractor2.bmp,yellow,Distractor2.bmp,,,,TrialProc,,TrainingTrialList,1,2,-999999,0,166051,0,2,920,166971,Target2.bmp,lime,2,,,,3,3,39
KW_Experiment5A,43,1,"<?xml version=""1.0""?>\n<Clock xmlns:dt=""urn:schemas-microsoft-com:datatypes""><Description dt:dt=""string"">E-Prime Primary Realtime Clock</Description><StartTime><Timestamp dt:dt=""int"">0</Timestamp><DateUtc dt:dt=""string"">2018-10-25T19:02:32Z</DateUtc></StartTime><FrequencyChanges><FrequencyChange><Frequency dt:dt=""r8"">3215292</Frequency><Timestamp dt:dt=""r8"">1598637407119</Timestamp><Current dt:dt=""r8"">0</Current><DateUtc dt:dt=""string"">2018-10-25T19:02:32Z</DateUtc></FrequencyChange></FrequencyChanges></Clock>\n",KW_Experiment5A-43-1,59.947,1.0.0.105,2,910202918,Professional,2.0.10.353,2.0.10.353,10/25/2018,10/25/2018 19:02,15:02:33,2.0.10.248,2,2,1,2,,,,,,,,TrainingProc,BlockList,40,1,Distractor2.bmp,2,0,,0,1,167986,501,,0,0,lime,500,2,500,,vertical,lime,Distractor1.bmp,yellow,Distractor1.bmp,cyan,Distractor2.bmp,red,Target1.bmp,blue,Distractor2.bmp,purple,Distractor1.bmp,,,,TrialProc,6,TrainingTrialList,1,1,-999999,1,168487,0,1,724,169211,Target1.bmp,red,1,,,,10,3,40
KW_Experiment5A,43,1,"<?xml version=""1.0""?>\n<Clock xmlns:dt=""urn:schemas-microsoft-com:datatypes""><Description dt:dt=""string"">E-Prime Primary Realtime Clock</Description><StartTime><Timestamp dt:dt=""int"">0</Timestamp><DateUtc dt:dt=""string"">2018-10-25T19:02:32Z</DateUtc></StartTime><FrequencyChanges><FrequencyChange><Frequency dt:dt=""r8"">3215292</Frequency><Timestamp dt:dt=""r8"">1598637407119</Timestamp><Current dt:dt=""r8"">0</Current><DateUtc dt:dt=""string"">2018-10-25T19:02:32Z</DateUtc></FrequencyChange></FrequencyChanges></Clock>\n",KW_Experiment5A-43-1,59.947,1.0.0.105,2,910202918,Professional,2.0.10.353,2.0.10.353,10/25/2018,10/25/2018 19:02,15:02:33,2.0.10.248,2,2,1,2,,,,,,,,TrainingProc,BlockList,41,1,Distractor2.bmp,2,0,,0,1,170222,600,,0,0,yellow,600,3,600,,vertical,yellow,Distractor1.bmp,blue,Distractor1.bmp,lime,Distractor1.bmp,cyan,Distractor1.bmp,red,Target1.bmp,purple,Distractor2.bmp,,,,TrialProc,2,TrainingTrialList,1,1,-999999,0,170822,0,1,660,171482,Target1.bmp,red,1,,,,11,3,41
KW_Experiment5A,43,1,"<?xml version=""1.0""?>\n<Clock xmlns:dt=""urn:schemas-microsoft-com:datatypes""><Description dt:dt=""string"">E-Prime Primary Realtime Clock</Description><StartTime><Timestamp dt:dt=""int"">0</Timestamp><DateUtc dt:dt=""string"">2018-10-25T19:02:32Z</DateUtc></StartTime><FrequencyChanges><FrequencyChange><Frequency dt:dt=""r8"">3215292</Frequency><Timestamp dt:dt=""r8"">1598637407119</Timestamp><Current dt:dt=""r8"">0</Current><DateUtc dt:dt=""string"">2018-10-25T19:02:32Z</DateUtc></FrequencyChange></FrequencyChanges></Clock>\n",KW_Experiment5A-43-1,59.947,1.0.0.105,2,910202918,Professional,2.0.10.353,2.0.10.353,10/25/2018,10/25/2018 19:02,15:02:33,2.0.10.248,2,2,1,2,,,,,,,,TrainingProc,BlockList,42,1,Distractor1.bmp,1,0,,0,1,172507,500,,0,0,red,500,2,500,1,vertical,lime,Target1.bmp,red,Distractor1.bmp,yellow,Distractor2.bmp,blue,Distractor2.bmp,purple,Distractor1.bmp,cyan,Distractor1.bmp,,,,TrialProc,,TrainingTrialList,1,1,-999999,0,173007,0,1,595,173602,Target1.bmp,lime,1,,,,1,3,42
KW_Experiment5A,43,1,"<?xml version=""1.0""?>\n<Clock xmlns:dt=""urn:schemas-microsoft-com:datatypes""><Description dt:dt=""string"">E-Prime Primary Realtime Clock</Description><StartTime><Timestamp dt:dt=""int"">0</Timestamp><DateUtc dt:dt=""string"">2018-10-25T19:02:32Z</DateUtc></StartTime><FrequencyChanges><FrequencyChange><Frequency dt:dt=""r8"">3215292</Frequency><Timestamp dt:dt=""r8"">1598637407119</Timestamp><Current dt:dt=""r8"">0</Current><DateUtc dt:dt=""string"">2018-10-25T19:02:32Z</DateUtc></FrequencyChange></FrequencyChanges></Clock>\n",KW_Experiment5A-43-1,59.947,1.0.0.105,2,910202918,Professional,2.0.10.353,2.0.10.353,10/25/2018,10/25/2018 19:02,15:02:33,2.0.10.248,2,2,1,2,,,,,,,,TrainingProc,BlockList,43,2,Distractor1.bmp,1,0,,0,1,174626,600,,0,0,lime,600,3,600,,horizontal,lime,Distractor1.bmp,red,Target2.bmp,blue,Distractor1.bmp,purple,Distractor1.bmp,yellow,Distractor1.bmp,cyan,Distractor1.bmp,,,,TrialProc,6,TrainingTrialList,1,2,-999999,0,175226,0,2,664,175890,Target2.bmp,red,2,,,,8,3,43
KW_Experiment5A,43,1,"<?xml version=""1.0""?>\n<Clock xmlns:dt=""urn:schemas-microsoft-com:datatypes""><Description dt:dt=""string"">E-Prime Primary Realtime Clock</Description><StartTime><Timestamp dt:dt=""int"">0</Timestamp><DateUtc dt:dt=""string"">2018-10-25T19:02:32Z</DateUtc></StartTime><FrequencyChanges><FrequencyChange><Frequency dt:dt=""r8"">3215292</Frequency><Timestamp dt:dt=""r8"">1598637407119</Timestamp><Current dt:dt=""r8"">0</Current><DateUtc dt:dt=""string"">2018-10-25T19:02:32Z</DateUtc></FrequencyChange></FrequencyChanges></Clock>\n",KW_Experiment5A-43-1,59.947,1.0.0.105,2,910202918,Professional,2.0.10.353,2.0.10.353,10/25/2018,10/25/2018 19:02,15:02:33,2.0.10.248,2,2,1,2,,,,,,,,TrainingProc,BlockList,44,2,Distractor1.bmp,1,0,,0,1,176911,601,,0,0,blue,600,3,600,,horizontal,blue,Distractor2.bmp,red,Target2.bmp,purple,Distractor1.bmp,yellow,Distractor2.bmp,cyan,Distractor1.bmp,lime,Distractor2.bmp,,,,TrialProc,3,TrainingTrialList,1,2,-999999,1,177512,0,2,866,178378,Target2.bmp,red,2,,,,8,3,44
KW_Experiment5A,43,1,"<?xml version=""1.0""?>\n<Clock xmlns:dt=""urn:schemas-microsoft-com:datatypes""><Description dt:dt=""string"">E-Prime Primary Realtime Clock</Description><StartTime><Timestamp dt:dt=""int"">0</Timestamp><DateUtc dt:dt=""string"">2018-10-25T19:02:32Z</DateUtc></StartTime><FrequencyChanges><FrequencyChange><Frequency dt:dt=""r8"">3215292</Frequency><Timestamp dt:dt=""r8"">1598637407119</Timestamp><Current dt:dt=""r8"">0</Current><DateUtc dt:dt=""string"">2018-10-25T19:02:32Z</DateUtc></FrequencyChange></FrequencyChanges></Clock>\n",KW_Experiment5A-43-1,59.947,1.0.0.105,2,910202918,Professional,2.0.10.353,2.0.10.353,10/25/2018,10/25/2018 19:02,15:02:33,2.0.10.248,2,2,1,2,,,,,,,,TrainingProc,BlockList,45,2,Distractor1.bmp,1,0,,0,1,179397,500,,0,0,purple,500,2,500,5,horizontal,purple,Distractor1.bmp,yellow,Distractor1.bmp,blue,Distractor2.bmp,red,Distractor2.bmp,cyan,Distractor2.bmp,lime,Target2.bmp,,,,TrialProc,,TrainingTrialList,1,2,-999999,0,179897,0,2,609,180506,Target2.bmp,lime,2,,,,6,3,45
KW_Experiment5A,43,1,"<?xml version=""1.0""?>\n<Clock xmlns:dt=""urn:schemas-microsoft-com:datatypes""><Description dt:dt=""string"">E-Prime Primary Realtime Clock</Description><StartTime><Timestamp dt:dt=""int"">0</Timestamp><DateUtc dt:dt=""string"">2018-10-25T19:02:32Z</DateUtc></StartTime><FrequencyChanges><FrequencyChange><Frequency dt:dt=""r8"">3215292</Frequency><Timestamp dt:dt=""r8"">1598637407119</Timestamp><Current dt:dt=""r8"">0</Current><DateUtc dt:dt=""string"">2018-10-25T19:02:32Z</DateUtc></FrequencyChange></FrequencyChanges></Clock>\n",KW_Experiment5A-43-1,59.947,1.0.0.105,2,910202918,Professional,2.0.10.353,2.0.10.353,10/25/2018,10/25/2018 19:02,15:02:33,2.0.10.248,2,2,1,2,,,,,,,,TrainingProc,BlockList,46,2,Distractor1.bmp,1,0,,0,1,181515,401,,0,0,cyan,400,1,400,,horizontal,cyan,Distractor1.bmp,blue,Distractor1.bmp,yellow,Distractor1.bmp,lime,Distractor1.bmp,purple,Distractor1.bmp,red,Target2.bmp,,,,TrialProc,4,TrainingTrialList,1,2,-999999,1,181916,0,2,558,182474,Target2.bmp,red,2,,,,12,3,46
KW_Experiment5A,43,1,"<?xml version=""1.0""?>\n<Clock xmlns:dt=""urn:schemas-microsoft-com:datatypes""><Description dt:dt=""string"">E-Prime Primary Realtime Clock</Description><StartTime><Timestamp dt:dt=""int"">0</Timestamp><DateUtc dt:dt=""string"">2018-10-25T19:02:32Z</DateUtc></StartTime><FrequencyChanges><FrequencyChange><Frequency dt:dt=""r8"">3215292</Frequency><Timestamp dt:dt=""r8"">1598637407119</Timestamp><Current dt:dt=""r8"">0</Current><DateUtc dt:dt=""string"">2018-10-25T19:02:32Z</DateUtc></FrequencyChange></FrequencyChanges></Clock>\n",KW_Experiment5A-43-1,59.947,1.0.0.105,2,910202918,Professional,2.0.10.353,2.0.10.353,10/25/2018,10/25/2018 19:02,15:02:33,2.0.10.248,2,2,1,2,,,,,,,,TrainingProc,BlockList,47,1,Distractor2.bmp,2,0,,0,1,183484,600,,0,0,cyan,600,3,600,4,vertical,cyan,Distractor2.bmp,lime,Target1.bmp,yellow,Distractor2.bmp,purple,Distractor2.bmp,red,Distractor2.bmp,blue,Distractor1.bmp,,,,TrialProc,,TrainingTrialList,1,1,-999999,0,184084,0,1,654,184738,Target1.bmp,lime,1,,,,2,3,47
KW_Experiment5A,43,1,"<?xml version=""1.0""?>\n<Clock xmlns:dt=""urn:schemas-microsoft-com:datatypes""><Description dt:dt=""string"">E-Prime Primary Realtime Clock</Description><StartTime><Timestamp dt:dt=""int"">0</Timestamp><DateUtc dt:dt=""string"">2018-10-25T19:02:32Z</DateUtc></StartTime><FrequencyChanges><FrequencyChange><Frequency dt:dt=""r8"">3215292</Frequency><Timestamp dt:dt=""r8"">1598637407119</Timestamp><Current dt:dt=""r8"">0</Current><DateUtc dt:dt=""string"">2018-10-25T19:02:32Z</DateUtc></FrequencyChange></FrequencyChanges></Clock>\n",KW_Experiment5A-43-1,59.947,1.0.0.105,2,910202918,Professional,2.0.10.353,2.0.10.353,10/25/2018,10/25/2018 19:02,15:02:33,2.0.10.248,2,2,1,2,,,,,,,,TrainingProc,BlockList,48,1,Distractor1.bmp,1,0,,0,0,185752,601,,0,0,yellow,600,3,600,,vertical,red,Target1.bmp,cyan,Distractor1.bmp,purple,Distractor1.bmp,blue,Distractor1.bmp,lime,Distractor2.bmp,yellow,Distractor2.bmp,,,,TrialProc,2,TrainingTrialList,1,1,-999999,1,186353,0,1,697,187050,Target1.bmp,red,1,,,,7,3,48
KW_Experiment5A,43,1,"<?xml version=""1.0""?>\n<Clock xmlns:dt=""urn:schemas-microsoft-com:datatypes""><Description dt:dt=""string"">E-Prime Primary Realtime Clock</Description><StartTime><Timestamp dt:dt=""int"">0</Timestamp><DateUtc dt:dt=""string"">2018-10-25T19:02:32Z</DateUtc></StartTime><FrequencyChanges><FrequencyChange><Frequency dt:dt=""r8"">3215292</Frequency><Timestamp dt:dt=""r8"">1598637407119</Timestamp><Current dt:dt=""r8"">0</Current><DateUtc dt:dt=""string"">2018-10-25T19:02:32Z</DateUtc></FrequencyChange></FrequencyChanges></Clock>\n",KW_Experiment5A-43-1,59.947,1.0.0.105,2,910202918,Professional,2.0.10.353,2.0.10.353,10/25/2018,10/25/2018 19:02,15:02:33,2.0.10.248,3,2,1,3,,,,,,,,TrainingProc,BlockList,1,1,Distractor1.bmp,1,0,,0,25,189339,400,,0,0,blue,400,1,400,,vertical,blue,Distractor1.bmp,purple,Distractor2.bmp,lime,Distractor2.bmp,red,Target1.bmp,yellow,Distractor1.bmp,cyan,Distractor1.bmp,,,,TrialProc,3,TrainingTrialList,0,1,-999999,0,189739,0,2,1207,190946,Target1.bmp,red,1,,,,10,4,49
KW_Experiment5A,43,1,"<?xml version=""1.0""?>\n<Clock xmlns:dt=""urn:schemas-microsoft-com:datatypes""><Description dt:dt=""string"">E-Prime Primary Realtime Clock</Description><StartTime><Timestamp dt:dt=""int"">0</Timestamp><DateUtc dt:dt=""string"">2018-10-25T19:02:32Z</DateUtc></StartTime><FrequencyChanges><FrequencyChange><Frequency dt:dt=""r8"">3215292</Frequency><Timestamp dt:dt=""r8"">1598637407119</Timestamp><Current dt:dt=""r8"">0</Current><DateUtc dt:dt=""string"">2018-10-25T19:02:32Z</DateUtc></FrequencyChange></FrequencyChanges></Clock>\n",KW_Experiment5A-43-1,59.947,1.0.0.105,2,910202918,Professional,2.0.10.353,2.0.10.353,10/25/2018,10/25/2018 19:02,15:02:33,2.0.10.248,3,2,1,3,,,,,,,,TrainingProc,BlockList,2,1,Distractor2.bmp,2,0,,0,1,191958,501,,0,0,blue,500,2,500,3,vertical,lime,Target1.bmp,blue,Distractor2.bmp,yellow,Distractor2.bmp,cyan,Distractor1.bmp,red,Distractor1.bmp,purple,Distractor1.bmp,,,,TrialProc,,TrainingTrialList,1,1,-999999,1,192459,0,1,775,193234,Target1.bmp,lime,1,,,,1,4,50
KW_Experiment5A,43,1,"<?xml version=""1.0""?>\n<Clock xmlns:dt=""urn:schemas-microsoft-com:datatypes""><Description dt:dt=""string"">E-Prime Primary Realtime Clock</Description><StartTime><Timestamp dt:dt=""int"">0</Timestamp><DateUtc dt:dt=""string"">2018-10-25T19:02:32Z</DateUtc></StartTime><FrequencyChanges><FrequencyChange><Frequency dt:dt=""r8"">3215292</Frequency><Timestamp dt:dt=""r8"">1598637407119</Timestamp><Current dt:dt=""r8"">0</Current><DateUtc dt:dt=""string"">2018-10-25T19:02:32Z</DateUtc></FrequencyChange></FrequencyChanges></Clock>\n",KW_Experiment5A-43-1,59.947,1.0.0.105,2,910202918,Professional,2.0.10.353,2.0.10.353,10/25/2018,10/25/2018 19:02,15:02:33,2.0.10.248,3,2,1,3,,,,,,,,TrainingProc,BlockList,3,2,Distractor1.bmp,1,0,,1,0,194243,501,,0,0,blue,500,2,500,,horizontal,blue,Distractor1.bmp,lime,Distractor1.bmp,purple,Distractor1.bmp,yellow,Distractor1.bmp,cyan,Distractor1.bmp,red,Target2.bmp,,,,TrialProc,3,TrainingTrialList,1,2,-999999,1,194744,0,2,706,195450,Target2.bmp,red,2,,,,12,4,51
KW_Experiment5A,43,1,"<?xml version=""1.0""?>\n<Clock xmlns:dt=""urn:schemas-microsoft-com:datatypes""><Description dt:dt=""string"">E-Prime Primary Realtime Clock</Description><StartTime><Timestamp dt:dt=""int"">0</Timestamp><DateUtc dt:dt=""string"">2018-10-25T19:02:32Z</DateUtc></StartTime><FrequencyChanges><FrequencyChange><Frequency dt:dt=""r8"">3215292</Frequency><Timestamp dt:dt=""r8"">1598637407119</Timestamp><Current dt:dt=""r8"">0</Current><DateUtc dt:dt=""string"">2018-10-25T19:02:32Z</DateUtc></FrequencyChange></FrequencyChanges></Clock>\n",KW_Experiment5A-43-1,59.947,1.0.0.105,2,910202918,Professional,2.0.10.353,2.0.10.353,10/25/2018,10/25/2018 19:02,15:02:33,2.0.10.248,3,2,1,3,,,,,,,,TrainingProc,BlockList,4,1,Distractor2.bmp,2,0,,0,1,196462,501,,0,0,yellow,500,2,500,2,vertical,yellow,Distractor2.bmp,cyan,Distractor1.bmp,purple,Distractor2.bmp,red,Distractor1.bmp,blue,Distractor2.bmp,lime,Target1.bmp,,,,TrialProc,,TrainingTrialList,1,1,-999999,1,196963,0,1,583,197546,Target1.bmp,lime,1,,,,6,4,52
KW_Experiment5A,43,1,"<?xml version=""1.0""?>\n<Clock xmlns:dt=""urn:schemas-microsoft-com:datatypes""><Description dt:dt=""string"">E-Prime Primary Realtime Clock</Description><StartTime><Timestamp dt:dt=""int"">0</Timestamp><DateUtc dt:dt=""string"">2018-10-25T19:02:32Z</DateUtc></StartTime><FrequencyChanges><FrequencyChange><Frequency dt:dt=""r8"">3215292</Frequency><Timestamp dt:dt=""r8"">1598637407119</Timestamp><Current dt:dt=""r8"">0</Current><DateUtc dt:dt=""string"">2018-10-25T19:02:32Z</DateUtc></FrequencyChange></FrequencyChanges></Clock>\n",KW_Experiment5A-43-1,59.947,1.0.0.105,2,910202918,Professional,2.0.10.353,2.0.10.353,10/25/2018,10/25/2018 19:02,15:02:33,2.0.10.248,3,2,1,3,,,,,,,,TrainingProc,BlockList,5,2,Distractor2.bmp,2,0,,0,1,198564,601,,0,0,purple,600,3,600,,horizontal,purple,Distractor2.bmp,cyan,Distractor1.bmp,lime,Distractor2.bmp,yellow,Distractor2.bmp,blue,Distractor1.bmp,red,Target2.bmp,,,,TrialProc,5,TrainingTrialList,1,2,-999999,1,199165,0,2,645,199810,Target2.bmp,red,2,,,,12,4,53
KW_Experiment5A,43,1,"<?xml version=""1.0""?>\n<Clock xmlns:dt=""urn:schemas-microsoft-com:datatypes""><Description dt:dt=""string"">E-Prime Primary Realtime Clock</Description><StartTime><Timestamp dt:dt=""int"">0</Timestamp><DateUtc dt:dt=""string"">2018-10-25T19:02:32Z</DateUtc></StartTime><FrequencyChanges><FrequencyChange><Frequency dt:dt=""r8"">3215292</Frequency><Timestamp dt:dt=""r8"">1598637407119</Timestamp><Current dt:dt=""r8"">0</Current><DateUtc dt:dt=""string"">2018-10-25T19:02:32Z</DateUtc></FrequencyChange></FrequencyChanges></Clock>\n",KW_Experiment5A-43-1,59.947,1.0.0.105,2,910202918,Professional,2.0.10.353,2.0.10.353,10/25/2018,10/25/2018 19:02,15:02:33,2.0.10.248,3,2,1,3,,,,,,,,TrainingProc,BlockList,6,1,Distractor2.bmp,2,0,,0,1,200833,500,,0,0,lime,500,2,500,,vertical,lime,Distractor2.bmp,yellow,Distractor1.bmp,cyan,Distractor1.bmp,purple,Distractor2.bmp,red,Target1.bmp,blue,Distractor2.bmp,,,,TrialProc,6,TrainingTrialList,1,1,-999999,0,201333,0,1,1237,202570,Target1.bmp,red,1,,,,11,4,54
KW_Experiment5A,43,1,"<?xml version=""1.0""?>\n<Clock xmlns:dt=""urn:schemas-microsoft-com:datatypes""><Description dt:dt=""string"">E-Prime Primary Realtime Clock</Description><StartTime><Timestamp dt:dt=""int"">0</Timestamp><DateUtc dt:dt=""string"">2018-10-25T19:02:32Z</DateUtc></StartTime><FrequencyChanges><FrequencyChange><Frequency dt:dt=""r8"">3215292</Frequency><Timestamp dt:dt=""r8"">1598637407119</Timestamp><Current dt:dt=""r8"">0</Current><DateUtc dt:dt=""string"">2018-10-25T19:02:32Z</DateUtc></FrequencyChange></FrequencyChanges></Clock>\n",KW_Experiment5A-43-1,59.947,1.0.0.105,2,910202918,Professional,2.0.10.353,2.0.10.353,10/25/2018,10/25/2018 19:02,15:02:33,2.0.10.248,3,2,1,3,,,,,,,,TrainingProc,BlockList,7,2,Distractor1.bmp,1,0,,0,1,203585,401,,0,0,cyan,400,1,400,,horizontal,cyan,Distractor1.bmp,purple,Distractor1.bmp,red,Target2.bmp,lime,Distractor1.bmp,yellow,Distractor1.bmp,blue,Distractor2.bmp,,,,TrialProc,4,TrainingTrialList,1,2,-999999,1,203986,0,2,632,204618,Target2.bmp,red,2,,,,9,4,55
KW_Experiment5A,43,1,"<?xml version=""1.0""?>\n<Clock xmlns:dt=""urn:schemas-microsoft-com:datatypes""><Description dt:dt=""string"">E-Prime Primary Realtime Clock</Description><StartTime><Timestamp dt:dt=""int"">0</Timestamp><DateUtc dt:dt=""string"">2018-10-25T19:02:32Z</DateUtc></StartTime><FrequencyChanges><FrequencyChange><Frequency dt:dt=""r8"">3215292</Frequency><Timestamp dt:dt=""r8"">1598637407119</Timestamp><Current dt:dt=""r8"">0</Current><DateUtc dt:dt=""string"">2018-10-25T19:02:32Z</DateUtc></FrequencyChange></FrequencyChanges></Clock>\n",KW_Experiment5A-43-1,59.947,1.0.0.105,2,910202918,Professional,2.0.10.353,2.0.10.353,10/25/2018,10/25/2018 19:02,15:02:33,2.0.10.248,3,2,1,3,,,,,,,,TrainingProc,BlockList,8,1,Distractor2.bmp,2,0,,0,1,205637,401,,0,0,purple,400,1,400,,vertical,purple,Distractor2.bmp,cyan,Distractor2.bmp,yellow,Distractor2.bmp,blue,Distractor2.bmp,red,Target1.bmp,lime,Distractor2.bmp,,,,TrialProc,5,TrainingTrialList,1,1,-999999,1,206038,0,1,588,206626,Target1.bmp,red,1,,,,11,4,56
KW_Experiment5A,43,1,"<?xml version=""1.0""?>\n<Clock xmlns:dt=""urn:schemas-microsoft-com:datatypes""><Description dt:dt=""string"">E-Prime Primary Realtime Clock</Description><StartTime><Timestamp dt:dt=""int"">0</Timestamp><DateUtc dt:dt=""string"">2018-10-25T19:02:32Z</DateUtc></StartTime><FrequencyChanges><FrequencyChange><Frequency dt:dt=""r8"">3215292</Frequency><Timestamp dt:dt=""r8"">1598637407119</Timestamp><Current dt:dt=""r8"">0</Current><DateUtc dt:dt=""string"">2018-10-25T19:02:32Z</DateUtc></FrequencyChange></FrequencyChanges></Clock>\n",KW_Experiment5A-43-1,59.947,1.0.0.105,2,910202918,Professional,2.0.10.353,2.0.10.353,10/25/2018,10/25/2018 19:02,15:02:33,2.0.10.248,3,2,1,3,,,,,,,,TrainingProc,BlockList,9,2,Distractor2.bmp,2,0,,0,1,207639,400,,0,0,yellow,400,1,400,,horizontal,yellow,Distractor2.bmp,purple,Distractor2.bmp,lime,Distractor1.bmp,red,Target2.bmp,blue,Distractor2.bmp,cyan,Distractor2.bmp,,,,TrialProc,2,TrainingTrialList,1,2,-999999,0,208039,0,2,659,208698,Target2.bmp,red,2,,,,10,4,57
KW_Experiment5A,43,1,"<?xml version=""1.0""?>\n<Clock xmlns:dt=""urn:schemas-microsoft-com:datatypes""><Description dt:dt=""string"">E-Prime Primary Realtime Clock</Description><StartTime><Timestamp dt:dt=""int"">0</Timestamp><DateUtc dt:dt=""string"">2018-10-25T19:02:32Z</DateUtc></StartTime><FrequencyChanges><FrequencyChange><Frequency dt:dt=""r8"">3215292</Frequency><Timestamp dt:dt=""r8"">1598637407119</Timestamp><Current dt:dt=""r8"">0</Current><DateUtc dt:dt=""string"">2018-10-25T19:02:32Z</DateUtc></FrequencyChange></FrequencyChanges></Clock>\n",KW_Experiment5A-43-1,59.947,1.0.0.105,2,910202918,Professional,2.0.10.353,2.0.10.353,10/25/2018,10/25/2018 19:02,15:02:33,2.0.10.248,3,2,1,3,,,,,,,,TrainingProc,BlockList,10,2,Distractor2.bmp,2,0,,1,0,209707,401,,0,0,purple,400,1,400,5,horizontal,purple,Distractor1.bmp,yellow,Distractor2.bmp,red,Distractor1.bmp,lime,Target2.bmp,blue,Distractor2.bmp,cyan,Distractor2.bmp,,,,TrialProc,,TrainingTrialList,1,2,-999999,1,210108,0,2,614,210722,Target2.bmp,lime,2,,,,4,4,58
KW_Experiment5A,43,1,"<?xml version=""1.0""?>\n<Clock xmlns:dt=""urn:schemas-microsoft-com:datatypes""><Description dt:dt=""string"">E-Prime Primary Realtime Clock</Description><StartTime><Timestamp dt:dt=""int"">0</Timestamp><DateUtc dt:dt=""string"">2018-10-25T19:02:32Z</DateUtc></StartTime><FrequencyChanges><FrequencyChange><Frequency dt:dt=""r8"">3215292</Frequency><Timestamp dt:dt=""r8"">1598637407119</Timestamp><Current dt:dt=""r8"">0</Current><DateUtc dt:dt=""string"">2018-10-25T19:02:32Z</DateUtc></FrequencyChange></FrequencyChanges></Clock>\n",KW_Experiment5A-43-1,59.947,1.0.0.105,2,910202918,Professional,2.0.10.353,2.0.10.353,10/25/2018,10/25/2018 19:02,15:02:33,2.0.10.248,3,2,1,3,,,,,,,,TrainingProc,BlockList,11,2,Distractor2.bmp,2,0,,0,1,211743,400,,0,0,lime,400,1,400,,horizontal,lime,Distractor1.bmp,red,Target2.bmp,purple,Distractor2.bmp,cyan,Distractor2.bmp,yellow,Distractor2.bmp,blue,Distractor1.bmp,,,,TrialProc,6,TrainingTrialList,0,2,-999999,0,212143,0,1,898,213041,Target2.bmp,red,2,,,,8,4,59
KW_Experiment5A,43,1,"<?xml version=""1.0""?>\n<Clock xmlns:dt=""urn:schemas-microsoft-com:datatypes""><Description dt:dt=""string"">E-Prime Primary Realtime Clock</Description><StartTime><Timestamp dt:dt=""int"">0</Timestamp><DateUtc dt:dt=""string"">2018-10-25T19:02:32Z</DateUtc></StartTime><FrequencyChanges><FrequencyChange><Frequency dt:dt=""r8"">3215292</Frequency><Timestamp dt:dt=""r8"">1598637407119</Timestamp><Current dt:dt=""r8"">0</Current><DateUtc dt:dt=""string"">2018-10-25T19:02:32Z</DateUtc></FrequencyChange></FrequencyChanges></Clock>\n",KW_Experiment5A-43-1,59.947,1.0.0.105,2,910202918,Professional,2.0.10.353,2.0.10.353,10/25/2018,10/25/2018 19:02,15:02:33,2.0.10.248,3,2,1,3,,,,,,,,TrainingProc,BlockList,12,2,Distractor2.bmp,2,0,,0,1,214061,401,,0,0,cyan,400,1,400,,horizontal,cyan,Distractor2.bmp,purple,Distractor1.bmp,lime,Distractor2.bmp,red,Target2.bmp,yellow,Distractor2.bmp,blue,Distractor1.bmp,,,,TrialProc,4,TrainingTrialList,1,2,-999999,1,214462,0,2,611,215073,Target2.bmp,red,2,,,,10,4,60
KW_Experiment5A,43,1,"<?xml version=""1.0""?>\n<Clock xmlns:dt=""urn:schemas-microsoft-com:datatypes""><Description dt:dt=""string"">E-Prime Primary Realtime Clock</Description><StartTime><Timestamp dt:dt=""int"">0</Timestamp><DateUtc dt:dt=""string"">2018-10-25T19:02:32Z</DateUtc></StartTime><FrequencyChanges><FrequencyChange><Frequency dt:dt=""r8"">3215292</Frequency><Timestamp dt:dt=""r8"">1598637407119</Timestamp><Current dt:dt=""r8"">0</Current><DateUtc dt:dt=""string"">2018-10-25T19:02:32Z</DateUtc></FrequencyChange></FrequencyChanges></Clock>\n",KW_Experiment5A-43-1,59.947,1.0.0.105,2,910202918,Professional,2.0.10.353,2.0.10.353,10/25/2018,10/25/2018 19:02,15:02:33,2.0.10.248,3,2,1,3,,,,,,,,TrainingProc,BlockList,13,1,Distractor2.bmp,2,0,,0,1,216097,500,,0,0,lime,500,2,500,,vertical,lime,Distractor2.bmp,blue,Distractor1.bmp,yellow,Distractor2.bmp,cyan,Distractor1.bmp,purple,Distractor2.bmp,red,Target1.bmp,,,,TrialProc,6,TrainingTrialList,1,1,-999999,0,216597,0,1,788,217385,Target1.bmp,red,1,,,,12,4,61
KW_Experiment5A,43,1,"<?xml version=""1.0""?>\n<Clock xmlns:dt=""urn:schemas-microsoft-com:datatypes""><Description dt:dt=""string"">E-Prime Primary Realtime Clock</Description><StartTime><Timestamp dt:dt=""int"">0</Timestamp><DateUtc dt:dt=""string"">2018-10-25T19:02:32Z</DateUtc></StartTime><FrequencyChanges><FrequencyChange><Frequency dt:dt=""r8"">3215292</Frequency><Timestamp dt:dt=""r8"">1598637407119</Timestamp><Current dt:dt=""r8"">0</Current><DateUtc dt:dt=""string"">2018-10-25T19:02:32Z</DateUtc></FrequencyChange></FrequencyChanges></Clock>\n",KW_Experiment5A-43-1,59.947,1.0.0.105,2,910202918,Professional,2.0.10.353,2.0.10.353,10/25/2018,10/25/2018 19:02,15:02:33,2.0.10.248,3,2,1,3,,,,,,,,TrainingProc,BlockList,14,2,Distractor1.bmp,1,0,,0,1,218399,400,,0,0,red,400,1,400,1,horizontal,red,Distractor1.bmp,cyan,Distractor2.bmp,lime,Target2.bmp,blue,Distractor1.bmp,yellow,Distractor1.bmp,purple,Distractor2.bmp,,,,TrialProc,,TrainingTrialList,1,2,-999999,0,218799,0,2,594,219393,Target2.bmp,lime,2,,,,3,4,62
KW_Experiment5A,43,1,"<?xml version=""1.0""?>\n<Clock xmlns:dt=""urn:schemas-microsoft-com:datatypes""><Description dt:dt=""string"">E-Prime Primary Realtime Clock</Description><StartTime><Timestamp dt:dt=""int"">0</Timestamp><DateUtc dt:dt=""string"">2018-10-25T19:02:32Z</DateUtc></StartTime><FrequencyChanges><FrequencyChange><Frequency dt:dt=""r8"">3215292</Frequency><Timestamp dt:dt=""r8"">1598637407119</Timestamp><Current dt:dt=""r8"">0</Current><DateUtc dt:dt=""string"">2018-10-25T19:02:32Z</DateUtc></FrequencyChange></FrequencyChanges></Clock>\n",KW_Experiment5A-43-1,59.947,1.0.0.105,2,910202918,Professional,2.0.10.353,2.0.10.353,10/25/2018,10/25/2018 19:02,15:02:33,2.0.10.248,3,2,1,3,,,,,,,,TrainingProc,BlockList,15,1,Distractor2.bmp,2,0,,0,1,220417,501,,0,0,purple,500,2,500,,vertical,red,Target1.bmp,lime,Distractor2.bmp,cyan,Distractor2.bmp,yellow,Distractor1.bmp,blue,Distractor2.bmp,purple,Distractor1.bmp,,,,TrialProc,5,TrainingTrialList,1,1,-999999,1,220918,0,1,1035,221953,Target1.bmp,red,1,,,,7,4,63
KW_Experiment5A,43,1,"<?xml version=""1.0""?>\n<Clock xmlns:dt=""urn:schemas-microsoft-com:datatypes""><Description dt:dt=""string"">E-Prime Primary Realtime Clock</Description><StartTime><Timestamp dt:dt=""int"">0</Timestamp><DateUtc dt:dt=""string"">2018-10-25T19:02:32Z</DateUtc></StartTime><FrequencyChanges><FrequencyChange><Frequency dt:dt=""r8"">3215292</Frequency><Timestamp dt:dt=""r8"">1598637407119</Timestamp><Current dt:dt=""r8"">0</Current><DateUtc dt:dt=""string"">2018-10-25T19:02:32Z</DateUtc></FrequencyChange></FrequencyChanges></Clock>\n",KW_Experiment5A-43-1,59.947,1.0.0.105,2,910202918,Professional,2.0.10.353,2.0.10.353,10/25/2018,10/25/2018 19:02,15:02:33,2.0.10.248,3,2,1,3,,,,,,,,TrainingProc,BlockList,16,2,Distractor2.bmp,2,0,,0,1,222970,500,,0,0,cyan,500,2,500,,horizontal,cyan,Distractor2.bmp,purple,Distractor2.bmp,red,Target2.bmp,yellow,Distractor2.bmp,blue,Distractor2.bmp,lime,Distractor2.bmp,,,,TrialProc,4,TrainingTrialList,1,2,-999999,0,223470,0,2,587,224057,Target2.bmp,red,2,,,,9,4,64
KW_Experiment5A,43,1,"<?xml version=""1.0""?>\n<Clock xmlns:dt=""urn:schemas-microsoft-com:datatypes""><Description dt:dt=""string"">E-Prime Primary Realtime Clock</Description><StartTime><Timestamp dt:dt=""int"">0</Timestamp><DateUtc dt:dt=""string"">2018-10-25T19:02:32Z</DateUtc></StartTime><FrequencyChanges><FrequencyChange><Frequency dt:dt=""r8"">3215292</Frequency><Timestamp dt:dt=""r8"">1598637407119</Timestamp><Current dt:dt=""r8"">0</Current><DateUtc dt:dt=""string"">2018-10-25T19:02:32Z</DateUtc></FrequencyChange></FrequencyChanges></Clock>\n",KW_Experiment5A-43-1,59.947,1.0.0.105,2,910202918,Professional,2.0.10.353,2.0.10.353,10/25/2018,10/25/2018 19:02,15:02:33,2.0.10.248,3,2,1,3,,,,,,,,TrainingProc,BlockList,17,1,Distractor2.bmp,2,0,,0,0,225071,601,,0,0,purple,600,3,600,5,vertical,purple,Distractor1.bmp,red,Distractor1.bmp,blue,Distractor2.bmp,cyan,Distractor1.bmp,lime,Target1.bmp,yellow,Distractor2.bmp,,,,TrialProc,,TrainingTrialList,1,1,-999999,1,225672,0,1,473,226145,Target1.bmp,lime,1,,,,5,4,65
KW_Experiment5A,43,1,"<?xml version=""1.0""?>\n<Clock xmlns:dt=""urn:schemas-microsoft-com:datatypes""><Description dt:dt=""string"">E-Prime Primary Realtime Clock</Description><StartTime><Timestamp dt:dt=""int"">0</Timestamp><DateUtc dt:dt=""string"">2018-10-25T19:02:32Z</DateUtc></StartTime><FrequencyChanges><FrequencyChange><Frequency dt:dt=""r8"">3215292</Frequency><Timestamp dt:dt=""r8"">1598637407119</Timestamp><Current dt:dt=""r8"">0</Current><DateUtc dt:dt=""string"">2018-10-25T19:02:32Z</DateUtc></FrequencyChange></FrequencyChanges></Clock>\n",KW_Experiment5A-43-1,59.947,1.0.0.105,2,910202918,Professional,2.0.10.353,2.0.10.353,10/25/2018,10/25/2018 19:02,15:02:33,2.0.10.248,3,2,1,3,,,,,,,,TrainingProc,BlockList,18,1,Distractor2.bmp,2,0,,0,1,227157,500,,0,0,yellow,500,2,500,2,vertical,yellow,Distractor2.bmp,lime,Target1.bmp,purple,Distractor2.bmp,red,Distractor2.bmp,cyan,Distractor1.bmp,blue,Distractor1.bmp,,,,TrialProc,,TrainingTrialList,1,1,-999999,0,227657,0,1,488,228145,Target1.bmp,lime,1,,,,2,4,66
KW_Experiment5A,43,1,"<?xml version=""1.0""?>\n<Clock xmlns:dt=""urn:schemas-microsoft-com:datatypes""><Description dt:dt=""string"">E-Prime Primary Realtime Clock</Description><StartTime><Timestamp dt:dt=""int"">0</Timestamp><DateUtc dt:dt=""string"">2018-10-25T19:02:32Z</DateUtc></StartTime><FrequencyChanges><FrequencyChange><Frequency dt:dt=""r8"">3215292</Frequency><Timestamp dt:dt=""r8"">1598637407119</Timestamp><Current dt:dt=""r8"">0</Current><DateUtc dt:dt=""string"">2018-10-25T19:02:32Z</DateUtc></FrequencyChange></FrequencyChanges></Clock>\n",KW_Experiment5A-43-1,59.947,1.0.0.105,2,910202918,Professional,2.0.10.353,2.0.10.353,10/25/2018,10/25/2018 19:02,15:02:33,2.0.10.248,3,2,1,3,,,,,,,,TrainingProc,BlockList,19,2,Distractor1.bmp,1,0,,1,0,229158,401,,0,0,lime,400,1,400,,horizontal,red,Target2.bmp,yellow,Distractor1.bmp,blue,Distractor1.bmp,purple,Distractor2.bmp,cyan,Distractor1.bmp,lime,Distractor1.bmp,,,,TrialProc,6,TrainingTrialList,1,2,-999999,1,229559,0,2,898,230457,Target2.bmp,red,2,,,,7,4,67
KW_Experiment5A,43,1,"<?xml version=""1.0""?>\n<Clock xmlns:dt=""urn:schemas-microsoft-com:datatypes""><Description dt:dt=""string"">E-Prime Primary Realtime Clock</Description><StartTime><Timestamp dt:dt=""int"">0</Timestamp><DateUtc dt:dt=""string"">2018-10-25T19:02:32Z</DateUtc></StartTime><FrequencyChanges><FrequencyChange><Frequency dt:dt=""r8"">3215292</Frequency><Timestamp dt:dt=""r8"">1598637407119</Timestamp><Current dt:dt=""r8"">0</Current><DateUtc dt:dt=""string"">2018-10-25T19:02:32Z</DateUtc></FrequencyChange></FrequencyChanges></Clock>\n",KW_Experiment5A-43-1,59.947,1.0.0.105,2,910202918,Professional,2.0.10.353,2.0.10.353,10/25/2018,10/25/2018 19:02,15:02:33,2.0.10.248,3,2,1,3,,,,,,,,TrainingProc,BlockList,20,1,Distractor2.bmp,2,0,,0,1,231477,401,,0,0,purple,400,1,400,,vertical,purple,Distractor1.bmp,red,Target1.bmp,yellow,Distractor2.bmp,lime,Distractor1.bmp,cyan,Distractor1.bmp,blue,Distractor1.bmp,,,,TrialProc,5,TrainingTrialList,0,1,-999999,1,231878,0,2,747,232625,Target1.bmp,red,1,,,,8,4,68
KW_Experiment5A,43,1,"<?xml version=""1.0""?>\n<Clock xmlns:dt=""urn:schemas-microsoft-com:datatypes""><Description dt:dt=""string"">E-Prime Primary Realtime Clock</Description><StartTime><Timestamp dt:dt=""int"">0</Timestamp><DateUtc dt:dt=""string"">2018-10-25T19:02:32Z</DateUtc></StartTime><FrequencyChanges><FrequencyChange><Frequency dt:dt=""r8"">3215292</Frequency><Timestamp dt:dt=""r8"">1598637407119</Timestamp><Current dt:dt=""r8"">0</Current><DateUtc dt:dt=""string"">2018-10-25T19:02:32Z</DateUtc></FrequencyChange></FrequencyChanges></Clock>\n",KW_Experiment5A-43-1,59.947,1.0.0.105,2,910202918,Professional,2.0.10.353,2.0.10.353,10/25/2018,10/25/2018 19:02,15:02:33,2.0.10.248,3,2,1,3,,,,,,,,TrainingProc,BlockList,21,1,Distractor1.bmp,1,0,,0,1,233646,400,,0,0,yellow,400,1,400,,vertical,red,Target1.bmp,blue,Distractor1.bmp,purple,Distractor2.bmp,lime,Distractor1.bmp,cyan,Distractor2.bmp,yellow,Distractor2.bmp,,,,TrialProc,2,TrainingTrialList,1,1,-999999,0,234046,0,1,1515,235561,Target1.bmp,red,1,,,,7,4,69
KW_Experiment5A,43,1,"<?xml version=""1.0""?>\n<Clock xmlns:dt=""urn:schemas-microsoft-com:datatypes""><Description dt:dt=""string"">E-Prime Primary Realtime Clock</Description><StartTime><Timestamp dt:dt=""int"">0</Timestamp><DateUtc dt:dt=""string"">2018-10-25T19:02:32Z</DateUtc></StartTime><FrequencyChanges><FrequencyChange><Frequency dt:dt=""r8"">3215292</Frequency><Timestamp dt:dt=""r8"">1598637407119</Timestamp><Current dt:dt=""r8"">0</Current><DateUtc dt:dt=""string"">2018-10-25T19:02:32Z</DateUtc></FrequencyChange></FrequencyChanges></Clock>\n",KW_Experiment5A-43-1,59.947,1.0.0.105,2,910202918,Professional,2.0.10.353,2.0.10.353,10/25/2018,10/25/2018 19:02,15:02:33,2.0.10.248,3,2,1,3,,,,,,,,TrainingProc,BlockList,22,1,Distractor1.bmp,1,0,,0,1,236582,600,,0,0,purple,600,3,600,,vertical,purple,Distractor1.bmp,red,Target1.bmp,yellow,Distractor1.bmp,cyan,Distractor1.bmp,lime,Distractor1.bmp,blue,Distractor2.bmp,,,,TrialProc,5,TrainingTrialList,1,1,-999999,0,237182,0,1,467,237649,Target1.bmp,red,1,,,,8,4,70
KW_Experiment5A,43,1,"<?xml version=""1.0""?>\n<Clock xmlns:dt=""urn:schemas-microsoft-com:datatypes""><Description dt:dt=""string"">E-Prime Primary Realtime Clock</Description><StartTime><Timestamp dt:dt=""int"">0</Timestamp><DateUtc dt:dt=""string"">2018-10-25T19:02:32Z</DateUtc></StartTime><FrequencyChanges><FrequencyChange><Frequency dt:dt=""r8"">3215292</Frequency><Timestamp dt:dt=""r8"">1598637407119</Timestamp><Current dt:dt=""r8"">0</Current><DateUtc dt:dt=""string"">2018-10-25T19:02:32Z</DateUtc></FrequencyChange></FrequencyChanges></Clock>\n",KW_Experiment5A-43-1,59.947,1.0.0.105,2,910202918,Professional,2.0.10.353,2.0.10.353,10/25/2018,10/25/2018 19:02,15:02:33,2.0.10.248,3,2,1,3,,,,,,,,TrainingProc,BlockList,23,2,Distractor1.bmp,1,0,,0,1,238667,400,,0,0,lime,400,1,400,,horizontal,lime,Distractor2.bmp,yellow,Distractor1.bmp,red,Target2.bmp,blue,Distractor1.bmp,cyan,Distractor1.bmp,purple,Distractor2.bmp,,,,TrialProc,6,TrainingTrialList,1,2,-999999,0,239067,0,2,614,239681,Target2.bmp,red,2,,,,9,4,71
KW_Experiment5A,43,1,"<?xml version=""1.0""?>\n<Clock xmlns:dt=""urn:schemas-microsoft-com:datatypes""><Description dt:dt=""string"">E-Prime Primary Realtime Clock</Description><StartTime><Timestamp dt:dt=""int"">0</Timestamp><DateUtc dt:dt=""string"">2018-10-25T19:02:32Z</DateUtc></StartTime><FrequencyChanges><FrequencyChange><Frequency dt:dt=""r8"">3215292</Frequency><Timestamp dt:dt=""r8"">1598637407119</Timestamp><Current dt:dt=""r8"">0</Current><DateUtc dt:dt=""string"">2018-10-25T19:02:32Z</DateUtc></FrequencyChange></FrequencyChanges></Clock>\n",KW_Experiment5A-43-1,59.947,1.0.0.105,2,910202918,Professional,2.0.10.353,2.0.10.353,10/25/2018,10/25/2018 19:02,15:02:33,2.0.10.248,3,2,1,3,,,,,,,,TrainingProc,BlockList,24,2,Distractor1.bmp,1,0,,0,1,240702,401,,0,0,purple,400,1,400,,horizontal,purple,Distractor2.bmp,cyan,Distractor1.bmp,blue,Distractor1.bmp,yellow,Distractor1.bmp,red,Target2.bmp,lime,Distractor1.bmp,,,,TrialProc,5,TrainingTrialList,0,2,-999999,1,241103,0,1,522,241625,Target2.bmp,red,2,,,,11,4,72
KW_Experiment5A,43,1,"<?xml version=""1.0""?>\n<Clock xmlns:dt=""urn:schemas-microsoft-com:datatypes""><Description dt:dt=""string"">E-Prime Primary Realtime Clock</Description><StartTime><Timestamp dt:dt=""int"">0</Timestamp><DateUtc dt:dt=""string"">2018-10-25T19:02:32Z</DateUtc></StartTime><FrequencyChanges><FrequencyChange><Frequency dt:dt=""r8"">3215292</Frequency><Timestamp dt:dt=""r8"">1598637407119</Timestamp><Current dt:dt=""r8"">0</Current><DateUtc dt:dt=""string"">2018-10-25T19:02:32Z</DateUtc></FrequencyChange></FrequencyChanges></Clock>\n",KW_Experiment5A-43-1,59.947,1.0.0.105,2,910202918,Professional,2.0.10.353,2.0.10.353,10/25/2018,10/25/2018 19:02,15:02:33,2.0.10.248,3,2,1,3,,,,,,,,TrainingProc,BlockList,25,2,Distractor2.bmp,2,0,,0,1,242637,401,,0,0,cyan,400,1,400,,horizontal,cyan,Distractor2.bmp,blue,Distractor2.bmp,lime,Distractor1.bmp,purple,Distractor2.bmp,red,Target2.bmp,yellow,Distractor2.bmp,,,,TrialProc,4,TrainingTrialList,1,2,-999999,1,243038,0,2,627,243665,Target2.bmp,red,2,,,,11,5,73
KW_Experiment5A,43,1,"<?xml version=""1.0""?>\n<Clock xmlns:dt=""urn:schemas-microsoft-com:datatypes""><Description dt:dt=""string"">E-Prime Primary Realtime Clock</Description><StartTime><Timestamp dt:dt=""int"">0</Timestamp><DateUtc dt:dt=""string"">2018-10-25T19:02:32Z</DateUtc></StartTime><FrequencyChanges><FrequencyChange><Frequency dt:dt=""r8"">3215292</Frequency><Timestamp dt:dt=""r8"">1598637407119</Timestamp><Current dt:dt=""r8"">0</Current><DateUtc dt:dt=""string"">2018-10-25T19:02:32Z</DateUtc></FrequencyChange></FrequencyChanges></Clock>\n",KW_Experiment5A-43-1,59.947,1.0.0.105,2,910202918,Professional,2.0.10.353,2.0.10.353,10/25/2018,10/25/2018 19:02,15:02:33,2.0.10.248,3,2,1,3,,,,,,,,TrainingProc,BlockList,26,1,Distractor2.bmp,2,0,,0,1,244689,401,,0,0,yellow,400,1,400,2,vertical,yellow,Distractor2.bmp,cyan,Distractor2.bmp,lime,Target1.bmp,purple,Distractor2.bmp,blue,Distractor1.bmp,red,Distractor2.bmp,,,,TrialProc,,TrainingTrialList,1,1,-999999,1,245090,0,1,543,245633,Target1.bmp,lime,1,,,,3,5,74
KW_Experiment5A,43,1,"<?xml version=""1.0""?>\n<Clock xmlns:dt=""urn:schemas-microsoft-com:datatypes""><Description dt:dt=""string"">E-Prime Primary Realtime Clock</Description><StartTime><Timestamp dt:dt=""int"">0</Timestamp><DateUtc dt:dt=""string"">2018-10-25T19:02:32Z</DateUtc></StartTime><FrequencyChanges><FrequencyChange><Frequency dt:dt=""r8"">3215292</Frequency><Timestamp dt:dt=""r8"">1598637407119</Timestamp><Current dt:dt=""r8"">0</Current><DateUtc dt:dt=""string"">2018-10-25T19:02:32Z</DateUtc></FrequencyChange></FrequencyChanges></Clock>\n",KW_Experiment5A-43-1,59.947,1.0.0.105,2,910202918,Professional,2.0.10.353,2.0.10.353,10/25/2018,10/25/2018 19:02,15:02:33,2.0.10.248,3,2,1,3,,,,,,,,TrainingProc,BlockList,27,1,Distractor1.bmp,1,0,,0,1,246658,400,,0,0,yellow,400,1,400,,vertical,yellow,Distractor1.bmp,lime,Distractor1.bmp,cyan,Distractor1.bmp,purple,Distractor1.bmp,red,Target1.bmp,blue,Distractor1.bmp,,,,TrialProc,2,TrainingTrialList,1,1,-999999,0,247058,0,1,519,247577,Target1.bmp,red,1,,,,11,5,75
KW_Experiment5A,43,1,"<?xml version=""1.0""?>\n<Clock xmlns:dt=""urn:schemas-microsoft-com:datatypes""><Description dt:dt=""string"">E-Prime Primary Realtime Clock</Description><StartTime><Timestamp dt:dt=""int"">0</Timestamp><DateUtc dt:dt=""string"">2018-10-25T19:02:32Z</DateUtc></StartTime><FrequencyChanges><FrequencyChange><Frequency dt:dt=""r8"">3215292</Frequency><Timestamp dt:dt=""r8"">1598637407119</Timestamp><Current dt:dt=""r8"">0</Current><DateUtc dt:dt=""string"">2018-10-25T19:02:32Z</DateUtc></FrequencyChange></FrequencyChanges></Clock>\n",KW_Experiment5A-43-1,59.947,1.0.0.105,2,910202918,Professional,2.0.10.353,2.0.10.353,10/25/2018,10/25/2018 19:02,15:02:33,2.0.10.248,3,2,1,3,,,,,,,,TrainingProc,BlockList,28,2,Distractor1.bmp,1,0,,0,1,248593,500,,0,0,purple,500,2,500,,horizontal,purple,Distractor1.bmp,lime,Distractor1.bmp,blue,Distractor2.bmp,red,Target2.bmp,cyan,Distractor1.bmp,yellow,Distractor2.bmp,,,,TrialProc,5,TrainingTrialList,1,2,-999999,0,249093,0,2,684,249777,Target2.bmp,red,2,,,,10,5,76
KW_Experiment5A,43,1,"<?xml version=""1.0""?>\n<Clock xmlns:dt=""urn:schemas-microsoft-com:datatypes""><Description dt:dt=""string"">E-Prime Primary Realtime Clock</Description><StartTime><Timestamp dt:dt=""int"">0</Timestamp><DateUtc dt:dt=""string"">2018-10-25T19:02:32Z</DateUtc></StartTime><FrequencyChanges><FrequencyChange><Frequency dt:dt=""r8"">3215292</Frequency><Timestamp dt:dt=""r8"">1598637407119</Timestamp><Current dt:dt=""r8"">0</Current><DateUtc dt:dt=""string"">2018-10-25T19:02:32Z</DateUtc></FrequencyChange></FrequencyChanges></Clock>\n",KW_Experiment5A-43-1,59.947,1.0.0.105,2,910202918,Professional,2.0.10.353,2.0.10.353,10/25/2018,10/25/2018 19:02,15:02:33,2.0.10.248,3,2,1,3,,,,,,,,TrainingProc,BlockList,29,2,Distractor2.bmp,2,0,,0,1,250795,400,,0,0,purple,400,1,400,,horizontal,purple,Distractor1.bmp,cyan,Distractor1.bmp,red,Target2.bmp,lime,Distractor2.bmp,blue,Distractor1.bmp,yellow,Distractor2.bmp,,,,TrialProc,5,TrainingTrialList,1,2,-999999,0,251195,0,2,941,252136,Target2.bmp,red,2,,,,9,5,77
KW_Experiment5A,43,1,"<?xml version=""1.0""?>\n<Clock xmlns:dt=""urn:schemas-microsoft-com:datatypes""><Description dt:dt=""string"">E-Prime Primary Realtime Clock</Description><StartTime><Timestamp dt:dt=""int"">0</Timestamp><DateUtc dt:dt=""string"">2018-10-25T19:02:32Z</DateUtc></StartTime><FrequencyChanges><FrequencyChange><Frequency dt:dt=""r8"">3215292</Frequency><Timestamp dt:dt=""r8"">1598637407119</Timestamp><Current dt:dt=""r8"">0</Current><DateUtc dt:dt=""string"">2018-10-25T19:02:32Z</DateUtc></FrequencyChange></FrequencyChanges></Clock>\n",KW_Experiment5A-43-1,59.947,1.0.0.105,2,910202918,Professional,2.0.10.353,2.0.10.353,10/25/2018,10/25/2018 19:02,15:02:33,2.0.10.248,3,2,1,3,,,,,,,,TrainingProc,BlockList,30,2,Distractor1.bmp,1,0,,0,1,253164,500,,0,0,yellow,500,2,500,,horizontal,yellow,Distractor1.bmp,cyan,Distractor1.bmp,red,Target2.bmp,lime,Distractor1.bmp,blue,Distractor2.bmp,purple,Distractor2.bmp,,,,TrialProc,2,TrainingTrialList,1,2,-999999,0,253664,0,2,592,254256,Target2.bmp,red,2,,,,9,5,78
KW_Experiment5A,43,1,"<?xml version=""1.0""?>\n<Clock xmlns:dt=""urn:schemas-microsoft-com:datatypes""><Description dt:dt=""string"">E-Prime Primary Realtime Clock</Description><StartTime><Timestamp dt:dt=""int"">0</Timestamp><DateUtc dt:dt=""string"">2018-10-25T19:02:32Z</DateUtc></StartTime><FrequencyChanges><FrequencyChange><Frequency dt:dt=""r8"">3215292</Frequency><Timestamp dt:dt=""r8"">1598637407119</Timestamp><Current dt:dt=""r8"">0</Current><DateUtc dt:dt=""string"">2018-10-25T19:02:32Z</DateUtc></FrequencyChange></FrequencyChanges></Clock>\n",KW_Experiment5A-43-1,59.947,1.0.0.105,2,910202918,Professional,2.0.10.353,2.0.10.353,10/25/2018,10/25/2018 19:02,15:02:33,2.0.10.248,3,2,1,3,,,,,,,,TrainingProc,BlockList,31,2,Distractor2.bmp,2,0,,1,0,255265,501,,0,0,purple,500,2,500,,horizontal,purple,Distractor1.bmp,blue,Distractor2.bmp,lime,Distractor2.bmp,red,Target2.bmp,yellow,Distractor2.bmp,cyan,Distractor1.bmp,,,,TrialProc,5,TrainingTrialList,1,2,-999999,1,255766,0,2,650,256416,Target2.bmp,red,2,,,,10,5,79
KW_Experiment5A,43,1,"<?xml version=""1.0""?>\n<Clock xmlns:dt=""urn:schemas-microsoft-com:datatypes""><Description dt:dt=""string"">E-Prime Primary Realtime Clock</Description><StartTime><Timestamp dt:dt=""int"">0</Timestamp><DateUtc dt:dt=""string"">2018-10-25T19:02:32Z</DateUtc></StartTime><FrequencyChanges><FrequencyChange><Frequency dt:dt=""r8"">3215292</Frequency><Timestamp dt:dt=""r8"">1598637407119</Timestamp><Current dt:dt=""r8"">0</Current><DateUtc dt:dt=""string"">2018-10-25T19:02:32Z</DateUtc></FrequencyChange></FrequencyChanges></Clock>\n",KW_Experiment5A-43-1,59.947,1.0.0.105,2,910202918,Professional,2.0.10.353,2.0.10.353,10/25/2018,10/25/2018 19:02,15:02:33,2.0.10.248,3,2,1,3,,,,,,,,TrainingProc,BlockList,32,2,Distractor1.bmp,1,0,,0,1,257434,601,,0,0,yellow,600,3,600,,horizontal,yellow,Distractor1.bmp,blue,Distractor1.bmp,red,Target2.bmp,purple,Distractor1.bmp,cyan,Distractor1.bmp,lime,Distractor1.bmp,,,,TrialProc,2,TrainingTrialList,1,2,-999999,1,258035,0,2,557,258592,Target2.bmp,red,2,,,,9,5,80
KW_Experiment5A,43,1,"<?xml version=""1.0""?>\n<Clock xmlns:dt=""urn:schemas-microsoft-com:datatypes""><Description dt:dt=""string"">E-Prime Primary Realtime Clock</Description><StartTime><Timestamp dt:dt=""int"">0</Timestamp><DateUtc dt:dt=""string"">2018-10-25T19:02:32Z</DateUtc></StartTime><FrequencyChanges><FrequencyChange><Frequency dt:dt=""r8"">3215292</Frequency><Timestamp dt:dt=""r8"">1598637407119</Timestamp><Current dt:dt=""r8"">0</Current><DateUtc dt:dt=""string"">2018-10-25T19:02:32Z</DateUtc></FrequencyChange></FrequencyChanges></Clock>\n",KW_Experiment5A-43-1,59.947,1.0.0.105,2,910202918,Professional,2.0.10.353,2.0.10.353,10/25/2018,10/25/2018 19:02,15:02:33,2.0.10.248,3,2,1,3,,,,,,,,TrainingProc,BlockList,33,2,Distractor2.bmp,2,0,,0,1,259603,500,,0,0,cyan,500,2,500,,horizontal,red,Target2.bmp,yellow,Distractor2.bmp,lime,Distractor2.bmp,purple,Distractor1.bmp,blue,Distractor2.bmp,cyan,Distractor1.bmp,,,,TrialProc,4,TrainingTrialList,1,2,-999999,0,260103,0,2,593,260696,Target2.bmp,red,2,,,,7,5,81
KW_Experiment5A,43,1,"<?xml version=""1.0""?>\n<Clock xmlns:dt=""urn:schemas-microsoft-com:datatypes""><Description dt:dt=""string"">E-Prime Primary Realtime Clock</Description><StartTime><Timestamp dt:dt=""int"">0</Timestamp><DateUtc dt:dt=""string"">2018-10-25T19:02:32Z</DateUtc></StartTime><FrequencyChanges><FrequencyChange><Frequency dt:dt=""r8"">3215292</Frequency><Timestamp dt:dt=""r8"">1598637407119</Timestamp><Current dt:dt=""r8"">0</Current><DateUtc dt:dt=""string"">2018-10-25T19:02:32Z</DateUtc></FrequencyChange></FrequencyChanges></Clock>\n",KW_Experiment5A-43-1,59.947,1.0.0.105,2,910202918,Professional,2.0.10.353,2.0.10.353,10/25/2018,10/25/2018 19:02,15:02:33,2.0.10.248,3,2,1,3,,,,,,,,TrainingProc,BlockList,34,1,Distractor1.bmp,1,0,,0,1,261721,601,,0,0,cyan,600,3,600,4,vertical,cyan,Distractor2.bmp,lime,Target1.bmp,purple,Distractor1.bmp,red,Distractor2.bmp,yellow,Distractor2.bmp,blue,Distractor2.bmp,,,,TrialProc,,TrainingTrialList,1,1,-999999,1,262322,0,1,654,262976,Target1.bmp,lime,1,,,,2,5,82
KW_Experiment5A,43,1,"<?xml version=""1.0""?>\n<Clock xmlns:dt=""urn:schemas-microsoft-com:datatypes""><Description dt:dt=""string"">E-Prime Primary Realtime Clock</Description><StartTime><Timestamp dt:dt=""int"">0</Timestamp><DateUtc dt:dt=""string"">2018-10-25T19:02:32Z</DateUtc></StartTime><FrequencyChanges><FrequencyChange><Frequency dt:dt=""r8"">3215292</Frequency><Timestamp dt:dt=""r8"">1598637407119</Timestamp><Current dt:dt=""r8"">0</Current><DateUtc dt:dt=""string"">2018-10-25T19:02:32Z</DateUtc></FrequencyChange></FrequencyChanges></Clock>\n",KW_Experiment5A-43-1,59.947,1.0.0.105,2,910202918,Professional,2.0.10.353,2.0.10.353,10/25/2018,10/25/2018 19:02,15:02:33,2.0.10.248,3,2,1,3,,,,,,,,TrainingProc,BlockList,35,2,Distractor2.bmp,2,0,,0,1,263990,601,,0,0,purple,600,3,600,,horizontal,purple,Distractor2.bmp,lime,Distractor1.bmp,yellow,Distractor2.bmp,cyan,Distractor2.bmp,blue,Distractor2.bmp,red,Target2.bmp,,,,TrialProc,5,TrainingTrialList,1,2,-999999,1,264591,0,2,985,265576,Target2.bmp,red,2,,,,12,5,83
KW_Experiment5A,43,1,"<?xml version=""1.0""?>\n<Clock xmlns:dt=""urn:schemas-microsoft-com:datatypes""><Description dt:dt=""string"">E-Prime Primary Realtime Clock</Description><StartTime><Timestamp dt:dt=""int"">0</Timestamp><DateUtc dt:dt=""string"">2018-10-25T19:02:32Z</DateUtc></StartTime><FrequencyChanges><FrequencyChange><Frequency dt:dt=""r8"">3215292</Frequency><Timestamp dt:dt=""r8"">1598637407119</Timestamp><Current dt:dt=""r8"">0</Current><DateUtc dt:dt=""string"">2018-10-25T19:02:32Z</DateUtc></FrequencyChange></FrequencyChanges></Clock>\n",KW_Experiment5A-43-1,59.947,1.0.0.105,2,910202918,Professional,2.0.10.353,2.0.10.353,10/25/2018,10/25/2018 19:02,15:02:33,2.0.10.248,3,2,1,3,,,,,,,,TrainingProc,BlockList,36,1,Distractor1.bmp,1,0,,0,0,266592,401,,0,0,blue,400,1,400,3,vertical,lime,Target1.bmp,blue,Distractor1.bmp,red,Distractor1.bmp,purple,Distractor1.bmp,cyan,Distractor1.bmp,yellow,Distractor2.bmp,,,,TrialProc,,TrainingTrialList,1,1,-999999,1,266993,0,1,647,267640,Target1.bmp,lime,1,,,,1,5,84
KW_Experiment5A,43,1,"<?xml version=""1.0""?>\n<Clock xmlns:dt=""urn:schemas-microsoft-com:datatypes""><Description dt:dt=""string"">E-Prime Primary Realtime Clock</Description><StartTime><Timestamp dt:dt=""int"">0</Timestamp><DateUtc dt:dt=""string"">2018-10-25T19:02:32Z</DateUtc></StartTime><FrequencyChanges><FrequencyChange><Frequency dt:dt=""r8"">3215292</Frequency><Timestamp dt:dt=""r8"">1598637407119</Timestamp><Current dt:dt=""r8"">0</Current><DateUtc dt:dt=""string"">2018-10-25T19:02:32Z</DateUtc></FrequencyChange></FrequencyChanges></Clock>\n",KW_Experiment5A-43-1,59.947,1.0.0.105,2,910202918,Professional,2.0.10.353,2.0.10.353,10/25/2018,10/25/2018 19:02,15:02:33,2.0.10.248,3,2,1,3,,,,,,,,TrainingProc,BlockList,37,1,Distractor1.bmp,1,0,,0,1,268661,400,,0,0,purple,400,1,400,,vertical,purple,Distractor1.bmp,red,Target1.bmp,lime,Distractor1.bmp,cyan,Distractor1.bmp,yellow,Distractor1.bmp,blue,Distractor1.bmp,,,,TrialProc,5,TrainingTrialList,1,1,-999999,0,269061,0,1,795,269856,Target1.bmp,red,1,,,,8,5,85
KW_Experiment5A,43,1,"<?xml version=""1.0""?>\n<Clock xmlns:dt=""urn:schemas-microsoft-com:datatypes""><Description dt:dt=""string"">E-Prime Primary Realtime Clock</Description><StartTime><Timestamp dt:dt=""int"">0</Timestamp><DateUtc dt:dt=""string"">2018-10-25T19:02:32Z</DateUtc></StartTime><FrequencyChanges><FrequencyChange><Frequency dt:dt=""r8"">3215292</Frequency><Timestamp dt:dt=""r8"">1598637407119</Timestamp><Current dt:dt=""r8"">0</Current><DateUtc dt:dt=""string"">2018-10-25T19:02:32Z</DateUtc></FrequencyChange></FrequencyChanges></Clock>\n",KW_Experiment5A-43-1,59.947,1.0.0.105,2,910202918,Professional,2.0.10.353,2.0.10.353,10/25/2018,10/25/2018 19:02,15:02:33,2.0.10.248,3,2,1,3,,,,,,,,TrainingProc,BlockList,38,2,Distractor1.bmp,1,0,,0,1,270880,500,,0,0,yellow,500,2,500,2,horizontal,yellow,Distractor1.bmp,cyan,Distractor1.bmp,red,Distractor2.bmp,blue,Distractor1.bmp,lime,Target2.bmp,purple,Distractor1.bmp,,,,TrialProc,,TrainingTrialList,1,2,-999999,0,271380,0,2,548,271928,Target2.bmp,lime,2,,,,5,5,86
KW_Experiment5A,43,1,"<?xml version=""1.0""?>\n<Clock xmlns:dt=""urn:schemas-microsoft-com:datatypes""><Description dt:dt=""string"">E-Prime Primary Realtime Clock</Description><StartTime><Timestamp dt:dt=""int"">0</Timestamp><DateUtc dt:dt=""string"">2018-10-25T19:02:32Z</DateUtc></StartTime><FrequencyChanges><FrequencyChange><Frequency dt:dt=""r8"">3215292</Frequency><Timestamp dt:dt=""r8"">1598637407119</Timestamp><Current dt:dt=""r8"">0</Current><DateUtc dt:dt=""string"">2018-10-25T19:02:32Z</DateUtc></FrequencyChange></FrequencyChanges></Clock>\n",KW_Experiment5A-43-1,59.947,1.0.0.105,2,910202918,Professional,2.0.10.353,2.0.10.353,10/25/2018,10/25/2018 19:02,15:02:33,2.0.10.248,3,2,1,3,,,,,,,,TrainingProc,BlockList,39,2,Distractor1.bmp,1,0,,0,1,272948,501,,0,0,blue,500,2,500,,horizontal,blue,Distractor1.bmp,lime,Distractor2.bmp,purple,Distractor1.bmp,cyan,Distractor2.bmp,yellow,Distractor1.bmp,red,Target2.bmp,,,,TrialProc,3,TrainingTrialList,0,2,-999999,1,273449,0,1,655,274104,Target2.bmp,red,2,,,,12,5,87
KW_Experiment5A,43,1,"<?xml version=""1.0""?>\n<Clock xmlns:dt=""urn:schemas-microsoft-com:datatypes""><Description dt:dt=""string"">E-Prime Primary Realtime Clock</Description><StartTime><Timestamp dt:dt=""int"">0</Timestamp><DateUtc dt:dt=""string"">2018-10-25T19:02:32Z</DateUtc></StartTime><FrequencyChanges><FrequencyChange><Frequency dt:dt=""r8"">3215292</Frequency><Timestamp dt:dt=""r8"">1598637407119</Timestamp><Current dt:dt=""r8"">0</Current><DateUtc dt:dt=""string"">2018-10-25T19:02:32Z</DateUtc></FrequencyChange></FrequencyChanges></Clock>\n",KW_Experiment5A-43-1,59.947,1.0.0.105,2,910202918,Professional,2.0.10.353,2.0.10.353,10/25/2018,10/25/2018 19:02,15:02:33,2.0.10.248,3,2,1,3,,,,,,,,TrainingProc,BlockList,40,2,Distractor2.bmp,2,0,,0,1,275117,500,,0,0,blue,500,2,500,,horizontal,red,Target2.bmp,yellow,Distractor2.bmp,cyan,Distractor1.bmp,lime,Distractor2.bmp,purple,Distractor1.bmp,blue,Distractor2.bmp,,,,TrialProc,3,TrainingTrialList,1,2,-999999,0,275617,0,2,487,276104,Target2.bmp,red,2,,,,7,5,88
KW_Experiment5A,43,1,"<?xml version=""1.0""?>\n<Clock xmlns:dt=""urn:schemas-microsoft-com:datatypes""><Description dt:dt=""string"">E-Prime Primary Realtime Clock</Description><StartTime><Timestamp dt:dt=""int"">0</Timestamp><DateUtc dt:dt=""string"">2018-10-25T19:02:32Z</DateUtc></StartTime><FrequencyChanges><FrequencyChange><Frequency dt:dt=""r8"">3215292</Frequency><Timestamp dt:dt=""r8"">1598637407119</Timestamp><Current dt:dt=""r8"">0</Current><DateUtc dt:dt=""string"">2018-10-25T19:02:32Z</DateUtc></FrequencyChange></FrequencyChanges></Clock>\n",KW_Experiment5A-43-1,59.947,1.0.0.105,2,910202918,Professional,2.0.10.353,2.0.10.353,10/25/2018,10/25/2018 19:02,15:02:33,2.0.10.248,3,2,1,3,,,,,,,,TrainingProc,BlockList,41,2,Distractor2.bmp,2,0,,0,1,277119,600,,0,0,cyan,600,3,600,4,horizontal,cyan,Distractor1.bmp,purple,Distractor1.bmp,blue,Distractor1.bmp,lime,Target2.bmp,red,Distractor2.bmp,yellow,Distractor1.bmp,,,,TrialProc,,TrainingTrialList,1,2,-999999,0,277719,0,2,537,278256,Target2.bmp,lime,2,,,,4,5,89
KW_Experiment5A,43,1,"<?xml version=""1.0""?>\n<Clock xmlns:dt=""urn:schemas-microsoft-com:datatypes""><Description dt:dt=""string"">E-Prime Primary Realtime Clock</Description><StartTime><Timestamp dt:dt=""int"">0</Timestamp><DateUtc dt:dt=""string"">2018-10-25T19:02:32Z</DateUtc></StartTime><FrequencyChanges><FrequencyChange><Frequency dt:dt=""r8"">3215292</Frequency><Timestamp dt:dt=""r8"">1598637407119</Timestamp><Current dt:dt=""r8"">0</Current><DateUtc dt:dt=""string"">2018-10-25T19:02:32Z</DateUtc></FrequencyChange></FrequencyChanges></Clock>\n",KW_Experiment5A-43-1,59.947,1.0.0.105,2,910202918,Professional,2.0.10.353,2.0.10.353,10/25/2018,10/25/2018 19:02,15:02:33,2.0.10.248,3,2,1,3,,,,,,,,TrainingProc,BlockList,42,1,Distractor2.bmp,2,0,,0,1,279271,600,,0,0,cyan,600,3,600,,vertical,cyan,Distractor1.bmp,red,Target1.bmp,blue,Distractor2.bmp,yellow,Distractor1.bmp,lime,Distractor2.bmp,purple,Distractor2.bmp,,,,TrialProc,4,TrainingTrialList,1,1,-999999,0,279871,0,1,625,280496,Target1.bmp,red,1,,,,8,5,90
