ExperimentName,Subject,Session,Clock.Information,DataFile.Basename,Display.RefreshRate,ExperimentVersion,Group,RandomSeed,RuntimeCapabilities,RuntimeVersion,RuntimeVersionExpected,SessionDate,SessionStartDateTimeUtc,SessionTime,StudioVersion,Block,BlockList,BlockList.Cycle,BlockList.Sample,PostTestQ1.RESP,PostTestQ1CJ.RESP,PostTestQ2.RESP,PostTestQ2CJ.RESP,PostTestQ3.RESP,PostTestQ3CJ.RESP,PostTestSlide.RESP,Procedure[Block],Running[Block],Trial,CorrectResponse,Distractor,DistractorList,Fixation.ACC,Fixation.CRESP,Fixation.DurationError,Fixation.OnsetDelay,Fixation.OnsetTime,Fixation.OnsetToOnsetTime,Fixation.RESP,Fixation.RT,Fixation.RTTime,ItemColor,Jitter,JitterList,JitterTime,Lime0List,Orientation,Pos1Color,Pos1Item,Pos2Color,Pos2Item,Pos3Color,Pos3Item,Pos4Color,Pos4Item,Pos5Color,Pos5Item,Pos6Color,Pos6Item,PracticeTrialList,PracticeTrialList.Cycle,PracticeTrialList.Sample,Procedure[Trial],Red0List,Running[Trial],Stimulus.ACC,Stimulus.CRESP,Stimulus.DurationError,Stimulus.OnsetDelay,Stimulus.OnsetTime,Stimulus.OnsetToOnsetTime,Stimulus.RESP,Stimulus.RT,Stimulus.RTTime,Target,TargetColor,TargetList,TestTrialList,TestTrialList.Cycle,TestTrialList.Sample,TrainingTrialList,TrainingTrialList.Cycle,TrainingTrialList.Sample
KW_Experiment5A,23,1,"<?xml version=""1.0""?>\n<Clock xmlns:dt=""urn:schemas-microsoft-com:datatypes""><Description dt:dt=""string"">E-Prime Primary Realtime Clock</Description><StartTime><Timestamp dt:dt=""int"">0</Timestamp><DateUtc dt:dt=""string"">2018-10-17T16:24:23Z</DateUtc></StartTime><FrequencyChanges><FrequencyChange><Frequency dt:dt=""r8"">3215292</Frequency><Timestamp dt:dt=""r8"">5841105867149</Timestamp><Current dt:dt=""r8"">0</Current><DateUtc dt:dt=""string"">2018-10-17T16:24:23Z</DateUtc></FrequencyChange></FrequencyChanges></Clock>\n",KW_Experiment5A-23-1,59.946,1.0.0.105,2,-49029577,Professional,2.0.10.353,2.0.10.353,10/17/2018,10/17/2018 16:24,12:24:23,2.0.10.248,1,1,1,1,,,,,,,,PracticeProc,BlockList,1,1,Distractor2.bmp,2,0,,0,52,235440,500,,0,0,cyan,500,2,500,4,vertical,red,Distractor1.bmp,blue,Distractor1.bmp,yellow,Distractor1.bmp,cyan,Distractor1.bmp,lime,Target1.bmp,purple,Distractor2.bmp,5,1,1,TrialProc,,PracticeTrialList,1,1,-999999,0,235940,0,1,5072,241012,Target1.bmp,lime,1,,,,,,
KW_Experiment5A,23,1,"<?xml version=""1.0""?>\n<Clock xmlns:dt=""urn:schemas-microsoft-com:datatypes""><Description dt:dt=""string"">E-Prime Primary Realtime Clock</Description><StartTime><Timestamp dt:dt=""int"">0</Timestamp><DateUtc dt:dt=""string"">2018-10-17T16:24:23Z</DateUtc></StartTime><FrequencyChanges><FrequencyChange><Frequency dt:dt=""r8"">3215292</Frequency><Timestamp dt:dt=""r8"">5841105867149</Timestamp><Current dt:dt=""r8"">0</Current><DateUtc dt:dt=""string"">2018-10-17T16:24:23Z</DateUtc></FrequencyChange></FrequencyChanges></Clock>\n",KW_Experiment5A-23-1,59.946,1.0.0.105,2,-49029577,Professional,2.0.10.353,2.0.10.353,10/17/2018,10/17/2018 16:24,12:24:23,2.0.10.248,1,1,1,1,,,,,,,,PracticeProc,BlockList,2,2,Distractor1.bmp,1,0,,0,1,242029,601,,0,0,purple,600,3,600,,horizontal,blue,Distractor1.bmp,cyan,Distractor2.bmp,lime,Distractor2.bmp,yellow,Distractor1.bmp,purple,Distractor2.bmp,red,Target2.bmp,6,1,2,TrialProc,5,PracticeTrialList,1,2,-999999,1,242630,0,2,1014,243644,Target2.bmp,red,2,,,,,,
KW_Experiment5A,23,1,"<?xml version=""1.0""?>\n<Clock xmlns:dt=""urn:schemas-microsoft-com:datatypes""><Description dt:dt=""string"">E-Prime Primary Realtime Clock</Description><StartTime><Timestamp dt:dt=""int"">0</Timestamp><DateUtc dt:dt=""string"">2018-10-17T16:24:23Z</DateUtc></StartTime><FrequencyChanges><FrequencyChange><Frequency dt:dt=""r8"">3215292</Frequency><Timestamp dt:dt=""r8"">5841105867149</Timestamp><Current dt:dt=""r8"">0</Current><DateUtc dt:dt=""string"">2018-10-17T16:24:23Z</DateUtc></FrequencyChange></FrequencyChanges></Clock>\n",KW_Experiment5A-23-1,59.946,1.0.0.105,2,-49029577,Professional,2.0.10.353,2.0.10.353,10/17/2018,10/17/2018 16:24,12:24:23,2.0.10.248,1,1,1,1,,,,,,,,PracticeProc,BlockList,3,1,Distractor2.bmp,2,0,,0,1,244665,501,,0,0,yellow,500,2,500,,vertical,yellow,Distractor2.bmp,red,Target1.bmp,blue,Distractor2.bmp,purple,Distractor1.bmp,cyan,Distractor1.bmp,lime,Distractor2.bmp,2,1,3,TrialProc,2,PracticeTrialList,0,1,-999999,1,245166,0,2,238,245404,Target1.bmp,red,1,,,,,,
KW_Experiment5A,23,1,"<?xml version=""1.0""?>\n<Clock xmlns:dt=""urn:schemas-microsoft-com:datatypes""><Description dt:dt=""string"">E-Prime Primary Realtime Clock</Description><StartTime><Timestamp dt:dt=""int"">0</Timestamp><DateUtc dt:dt=""string"">2018-10-17T16:24:23Z</DateUtc></StartTime><FrequencyChanges><FrequencyChange><Frequency dt:dt=""r8"">3215292</Frequency><Timestamp dt:dt=""r8"">5841105867149</Timestamp><Current dt:dt=""r8"">0</Current><DateUtc dt:dt=""string"">2018-10-17T16:24:23Z</DateUtc></FrequencyChange></FrequencyChanges></Clock>\n",KW_Experiment5A-23-1,59.946,1.0.0.105,2,-49029577,Professional,2.0.10.353,2.0.10.353,10/17/2018,10/17/2018 16:24,12:24:23,2.0.10.248,1,1,1,1,,,,,,,,PracticeProc,BlockList,4,1,Distractor1.bmp,1,0,,0,1,246417,500,,0,0,yellow,500,2,500,2,vertical,purple,Distractor1.bmp,yellow,Distractor2.bmp,lime,Target1.bmp,blue,Distractor1.bmp,cyan,Distractor1.bmp,red,Distractor2.bmp,3,1,4,TrialProc,,PracticeTrialList,1,1,-999999,0,246917,0,1,967,247884,Target1.bmp,lime,1,,,,,,
KW_Experiment5A,23,1,"<?xml version=""1.0""?>\n<Clock xmlns:dt=""urn:schemas-microsoft-com:datatypes""><Description dt:dt=""string"">E-Prime Primary Realtime Clock</Description><StartTime><Timestamp dt:dt=""int"">0</Timestamp><DateUtc dt:dt=""string"">2018-10-17T16:24:23Z</DateUtc></StartTime><FrequencyChanges><FrequencyChange><Frequency dt:dt=""r8"">3215292</Frequency><Timestamp dt:dt=""r8"">5841105867149</Timestamp><Current dt:dt=""r8"">0</Current><DateUtc dt:dt=""string"">2018-10-17T16:24:23Z</DateUtc></FrequencyChange></FrequencyChanges></Clock>\n",KW_Experiment5A-23-1,59.946,1.0.0.105,2,-49029577,Professional,2.0.10.353,2.0.10.353,10/17/2018,10/17/2018 16:24,12:24:23,2.0.10.248,1,1,1,1,,,,,,,,PracticeProc,BlockList,5,2,Distractor2.bmp,2,0,,0,1,248902,501,,0,0,red,500,2,500,1,horizontal,lime,Target2.bmp,blue,Distractor2.bmp,purple,Distractor1.bmp,yellow,Distractor2.bmp,cyan,Distractor1.bmp,red,Distractor2.bmp,1,1,5,TrialProc,,PracticeTrialList,0,2,-999999,1,249403,0,1,425,249828,Target2.bmp,lime,2,,,,,,
KW_Experiment5A,23,1,"<?xml version=""1.0""?>\n<Clock xmlns:dt=""urn:schemas-microsoft-com:datatypes""><Description dt:dt=""string"">E-Prime Primary Realtime Clock</Description><StartTime><Timestamp dt:dt=""int"">0</Timestamp><DateUtc dt:dt=""string"">2018-10-17T16:24:23Z</DateUtc></StartTime><FrequencyChanges><FrequencyChange><Frequency dt:dt=""r8"">3215292</Frequency><Timestamp dt:dt=""r8"">5841105867149</Timestamp><Current dt:dt=""r8"">0</Current><DateUtc dt:dt=""string"">2018-10-17T16:24:23Z</DateUtc></FrequencyChange></FrequencyChanges></Clock>\n",KW_Experiment5A-23-1,59.946,1.0.0.105,2,-49029577,Professional,2.0.10.353,2.0.10.353,10/17/2018,10/17/2018 16:24,12:24:23,2.0.10.248,1,1,1,1,,,,,,,,PracticeProc,BlockList,6,2,Distractor1.bmp,1,0,,0,1,250854,601,,0,0,cyan,600,3,600,,horizontal,yellow,Distractor2.bmp,blue,Distractor1.bmp,cyan,Distractor1.bmp,red,Target2.bmp,lime,Distractor1.bmp,purple,Distractor2.bmp,4,1,6,TrialProc,4,PracticeTrialList,1,2,-999999,1,251455,0,2,2949,254404,Target2.bmp,red,2,,,,,,
KW_Experiment5A,23,1,"<?xml version=""1.0""?>\n<Clock xmlns:dt=""urn:schemas-microsoft-com:datatypes""><Description dt:dt=""string"">E-Prime Primary Realtime Clock</Description><StartTime><Timestamp dt:dt=""int"">0</Timestamp><DateUtc dt:dt=""string"">2018-10-17T16:24:23Z</DateUtc></StartTime><FrequencyChanges><FrequencyChange><Frequency dt:dt=""r8"">3215292</Frequency><Timestamp dt:dt=""r8"">5841105867149</Timestamp><Current dt:dt=""r8"">0</Current><DateUtc dt:dt=""string"">2018-10-17T16:24:23Z</DateUtc></FrequencyChange></FrequencyChanges></Clock>\n",KW_Experiment5A-23-1,59.946,1.0.0.105,2,-49029577,Professional,2.0.10.353,2.0.10.353,10/17/2018,10/17/2018 16:24,12:24:23,2.0.10.248,2,2,1,2,,,,,,,,TrainingProc,BlockList,1,1,Distractor1.bmp,1,0,,1,43,270438,601,,0,0,blue,600,3,600,,vertical,blue,Distractor2.bmp,red,Target1.bmp,lime,Distractor1.bmp,cyan,Distractor2.bmp,yellow,Distractor2.bmp,purple,Distractor1.bmp,,,,TrialProc,3,TrainingTrialList,0,1,-999999,1,271039,0,2,1076,272115,Target1.bmp,red,1,,,,8,2,1
KW_Experiment5A,23,1,"<?xml version=""1.0""?>\n<Clock xmlns:dt=""urn:schemas-microsoft-com:datatypes""><Description dt:dt=""string"">E-Prime Primary Realtime Clock</Description><StartTime><Timestamp dt:dt=""int"">0</Timestamp><DateUtc dt:dt=""string"">2018-10-17T16:24:23Z</DateUtc></StartTime><FrequencyChanges><FrequencyChange><Frequency dt:dt=""r8"">3215292</Frequency><Timestamp dt:dt=""r8"">5841105867149</Timestamp><Current dt:dt=""r8"">0</Current><DateUtc dt:dt=""string"">2018-10-17T16:24:23Z</DateUtc></FrequencyChange></FrequencyChanges></Clock>\n",KW_Experiment5A-23-1,59.946,1.0.0.105,2,-49029577,Professional,2.0.10.353,2.0.10.353,10/17/2018,10/17/2018 16:24,12:24:23,2.0.10.248,2,2,1,2,,,,,,,,TrainingProc,BlockList,2,2,Distractor2.bmp,2,0,,0,1,273141,500,,0,0,yellow,500,2,500,2,horizontal,yellow,Distractor2.bmp,red,Distractor1.bmp,cyan,Distractor2.bmp,purple,Distractor2.bmp,blue,Distractor1.bmp,lime,Target2.bmp,,,,TrialProc,,TrainingTrialList,1,2,-999999,0,273641,0,2,1466,275107,Target2.bmp,lime,2,,,,6,2,2
KW_Experiment5A,23,1,"<?xml version=""1.0""?>\n<Clock xmlns:dt=""urn:schemas-microsoft-com:datatypes""><Description dt:dt=""string"">E-Prime Primary Realtime Clock</Description><StartTime><Timestamp dt:dt=""int"">0</Timestamp><DateUtc dt:dt=""string"">2018-10-17T16:24:23Z</DateUtc></StartTime><FrequencyChanges><FrequencyChange><Frequency dt:dt=""r8"">3215292</Frequency><Timestamp dt:dt=""r8"">5841105867149</Timestamp><Current dt:dt=""r8"">0</Current><DateUtc dt:dt=""string"">2018-10-17T16:24:23Z</DateUtc></FrequencyChange></FrequencyChanges></Clock>\n",KW_Experiment5A-23-1,59.946,1.0.0.105,2,-49029577,Professional,2.0.10.353,2.0.10.353,10/17/2018,10/17/2018 16:24,12:24:23,2.0.10.248,2,2,1,2,,,,,,,,TrainingProc,BlockList,3,2,Distractor1.bmp,1,0,,0,1,276127,500,,0,0,purple,500,2,500,,horizontal,purple,Distractor1.bmp,yellow,Distractor1.bmp,cyan,Distractor2.bmp,lime,Distractor2.bmp,blue,Distractor2.bmp,red,Target2.bmp,,,,TrialProc,5,TrainingTrialList,1,2,-999999,0,276627,0,2,792,277419,Target2.bmp,red,2,,,,12,2,3
KW_Experiment5A,23,1,"<?xml version=""1.0""?>\n<Clock xmlns:dt=""urn:schemas-microsoft-com:datatypes""><Description dt:dt=""string"">E-Prime Primary Realtime Clock</Description><StartTime><Timestamp dt:dt=""int"">0</Timestamp><DateUtc dt:dt=""string"">2018-10-17T16:24:23Z</DateUtc></StartTime><FrequencyChanges><FrequencyChange><Frequency dt:dt=""r8"">3215292</Frequency><Timestamp dt:dt=""r8"">5841105867149</Timestamp><Current dt:dt=""r8"">0</Current><DateUtc dt:dt=""string"">2018-10-17T16:24:23Z</DateUtc></FrequencyChange></FrequencyChanges></Clock>\n",KW_Experiment5A-23-1,59.946,1.0.0.105,2,-49029577,Professional,2.0.10.353,2.0.10.353,10/17/2018,10/17/2018 16:24,12:24:23,2.0.10.248,2,2,1,2,,,,,,,,TrainingProc,BlockList,4,2,Distractor2.bmp,2,0,,0,1,278429,601,,0,0,yellow,600,3,600,,horizontal,yellow,Distractor2.bmp,purple,Distractor1.bmp,lime,Distractor2.bmp,blue,Distractor2.bmp,cyan,Distractor1.bmp,red,Target2.bmp,,,,TrialProc,2,TrainingTrialList,1,2,-999999,1,279030,0,2,389,279419,Target2.bmp,red,2,,,,12,2,4
KW_Experiment5A,23,1,"<?xml version=""1.0""?>\n<Clock xmlns:dt=""urn:schemas-microsoft-com:datatypes""><Description dt:dt=""string"">E-Prime Primary Realtime Clock</Description><StartTime><Timestamp dt:dt=""int"">0</Timestamp><DateUtc dt:dt=""string"">2018-10-17T16:24:23Z</DateUtc></StartTime><FrequencyChanges><FrequencyChange><Frequency dt:dt=""r8"">3215292</Frequency><Timestamp dt:dt=""r8"">5841105867149</Timestamp><Current dt:dt=""r8"">0</Current><DateUtc dt:dt=""string"">2018-10-17T16:24:23Z</DateUtc></FrequencyChange></FrequencyChanges></Clock>\n",KW_Experiment5A-23-1,59.946,1.0.0.105,2,-49029577,Professional,2.0.10.353,2.0.10.353,10/17/2018,10/17/2018 16:24,12:24:23,2.0.10.248,2,2,1,2,,,,,,,,TrainingProc,BlockList,5,1,Distractor1.bmp,1,0,,0,1,280431,500,,0,0,lime,500,2,500,,vertical,lime,Distractor2.bmp,purple,Distractor1.bmp,blue,Distractor2.bmp,red,Target1.bmp,yellow,Distractor1.bmp,cyan,Distractor2.bmp,,,,TrialProc,6,TrainingTrialList,1,1,-999999,0,280931,0,1,248,281179,Target1.bmp,red,1,,,,10,2,5
KW_Experiment5A,23,1,"<?xml version=""1.0""?>\n<Clock xmlns:dt=""urn:schemas-microsoft-com:datatypes""><Description dt:dt=""string"">E-Prime Primary Realtime Clock</Description><StartTime><Timestamp dt:dt=""int"">0</Timestamp><DateUtc dt:dt=""string"">2018-10-17T16:24:23Z</DateUtc></StartTime><FrequencyChanges><FrequencyChange><Frequency dt:dt=""r8"">3215292</Frequency><Timestamp dt:dt=""r8"">5841105867149</Timestamp><Current dt:dt=""r8"">0</Current><DateUtc dt:dt=""string"">2018-10-17T16:24:23Z</DateUtc></FrequencyChange></FrequencyChanges></Clock>\n",KW_Experiment5A-23-1,59.946,1.0.0.105,2,-49029577,Professional,2.0.10.353,2.0.10.353,10/17/2018,10/17/2018 16:24,12:24:23,2.0.10.248,2,2,1,2,,,,,,,,TrainingProc,BlockList,6,1,Distractor2.bmp,2,0,,0,1,282199,601,,0,0,yellow,600,3,600,,vertical,yellow,Distractor1.bmp,lime,Distractor2.bmp,red,Target1.bmp,blue,Distractor2.bmp,purple,Distractor1.bmp,cyan,Distractor2.bmp,,,,TrialProc,2,TrainingTrialList,0,1,-999999,1,282800,0,2,379,283179,Target1.bmp,red,1,,,,9,2,6
KW_Experiment5A,23,1,"<?xml version=""1.0""?>\n<Clock xmlns:dt=""urn:schemas-microsoft-com:datatypes""><Description dt:dt=""string"">E-Prime Primary Realtime Clock</Description><StartTime><Timestamp dt:dt=""int"">0</Timestamp><DateUtc dt:dt=""string"">2018-10-17T16:24:23Z</DateUtc></StartTime><FrequencyChanges><FrequencyChange><Frequency dt:dt=""r8"">3215292</Frequency><Timestamp dt:dt=""r8"">5841105867149</Timestamp><Current dt:dt=""r8"">0</Current><DateUtc dt:dt=""string"">2018-10-17T16:24:23Z</DateUtc></FrequencyChange></FrequencyChanges></Clock>\n",KW_Experiment5A-23-1,59.946,1.0.0.105,2,-49029577,Professional,2.0.10.353,2.0.10.353,10/17/2018,10/17/2018 16:24,12:24:23,2.0.10.248,2,2,1,2,,,,,,,,TrainingProc,BlockList,7,2,Distractor2.bmp,2,0,,0,1,284201,601,,0,0,blue,600,3,600,,horizontal,blue,Distractor2.bmp,cyan,Distractor1.bmp,red,Target2.bmp,purple,Distractor2.bmp,yellow,Distractor1.bmp,lime,Distractor1.bmp,,,,TrialProc,3,TrainingTrialList,0,2,-999999,1,284802,0,1,329,285131,Target2.bmp,red,2,,,,9,2,7
KW_Experiment5A,23,1,"<?xml version=""1.0""?>\n<Clock xmlns:dt=""urn:schemas-microsoft-com:datatypes""><Description dt:dt=""string"">E-Prime Primary Realtime Clock</Description><StartTime><Timestamp dt:dt=""int"">0</Timestamp><DateUtc dt:dt=""string"">2018-10-17T16:24:23Z</DateUtc></StartTime><FrequencyChanges><FrequencyChange><Frequency dt:dt=""r8"">3215292</Frequency><Timestamp dt:dt=""r8"">5841105867149</Timestamp><Current dt:dt=""r8"">0</Current><DateUtc dt:dt=""string"">2018-10-17T16:24:23Z</DateUtc></FrequencyChange></FrequencyChanges></Clock>\n",KW_Experiment5A-23-1,59.946,1.0.0.105,2,-49029577,Professional,2.0.10.353,2.0.10.353,10/17/2018,10/17/2018 16:24,12:24:23,2.0.10.248,2,2,1,2,,,,,,,,TrainingProc,BlockList,8,1,Distractor1.bmp,1,0,,0,1,286153,400,,0,0,purple,400,1,400,5,vertical,purple,Distractor2.bmp,blue,Distractor2.bmp,lime,Target1.bmp,yellow,Distractor1.bmp,red,Distractor2.bmp,cyan,Distractor2.bmp,,,,TrialProc,,TrainingTrialList,0,1,-999999,0,286553,0,2,410,286963,Target1.bmp,lime,1,,,,3,2,8
KW_Experiment5A,23,1,"<?xml version=""1.0""?>\n<Clock xmlns:dt=""urn:schemas-microsoft-com:datatypes""><Description dt:dt=""string"">E-Prime Primary Realtime Clock</Description><StartTime><Timestamp dt:dt=""int"">0</Timestamp><DateUtc dt:dt=""string"">2018-10-17T16:24:23Z</DateUtc></StartTime><FrequencyChanges><FrequencyChange><Frequency dt:dt=""r8"">3215292</Frequency><Timestamp dt:dt=""r8"">5841105867149</Timestamp><Current dt:dt=""r8"">0</Current><DateUtc dt:dt=""string"">2018-10-17T16:24:23Z</DateUtc></FrequencyChange></FrequencyChanges></Clock>\n",KW_Experiment5A-23-1,59.946,1.0.0.105,2,-49029577,Professional,2.0.10.353,2.0.10.353,10/17/2018,10/17/2018 16:24,12:24:23,2.0.10.248,2,2,1,2,,,,,,,,TrainingProc,BlockList,9,1,Distractor1.bmp,1,0,,0,1,287988,600,,0,0,lime,600,3,600,,vertical,lime,Distractor1.bmp,blue,Distractor2.bmp,purple,Distractor2.bmp,cyan,Distractor1.bmp,red,Target1.bmp,yellow,Distractor1.bmp,,,,TrialProc,6,TrainingTrialList,0,1,-999999,0,288588,0,2,215,288803,Target1.bmp,red,1,,,,11,2,9
KW_Experiment5A,23,1,"<?xml version=""1.0""?>\n<Clock xmlns:dt=""urn:schemas-microsoft-com:datatypes""><Description dt:dt=""string"">E-Prime Primary Realtime Clock</Description><StartTime><Timestamp dt:dt=""int"">0</Timestamp><DateUtc dt:dt=""string"">2018-10-17T16:24:23Z</DateUtc></StartTime><FrequencyChanges><FrequencyChange><Frequency dt:dt=""r8"">3215292</Frequency><Timestamp dt:dt=""r8"">5841105867149</Timestamp><Current dt:dt=""r8"">0</Current><DateUtc dt:dt=""string"">2018-10-17T16:24:23Z</DateUtc></FrequencyChange></FrequencyChanges></Clock>\n",KW_Experiment5A-23-1,59.946,1.0.0.105,2,-49029577,Professional,2.0.10.353,2.0.10.353,10/17/2018,10/17/2018 16:24,12:24:23,2.0.10.248,2,2,1,2,,,,,,,,TrainingProc,BlockList,10,2,Distractor1.bmp,1,0,,0,1,289823,400,,0,0,red,400,1,400,1,horizontal,red,Distractor1.bmp,blue,Distractor2.bmp,cyan,Distractor1.bmp,lime,Target2.bmp,yellow,Distractor1.bmp,purple,Distractor1.bmp,,,,TrialProc,,TrainingTrialList,1,2,-999999,0,290223,0,2,212,290435,Target2.bmp,lime,2,,,,4,2,10
KW_Experiment5A,23,1,"<?xml version=""1.0""?>\n<Clock xmlns:dt=""urn:schemas-microsoft-com:datatypes""><Description dt:dt=""string"">E-Prime Primary Realtime Clock</Description><StartTime><Timestamp dt:dt=""int"">0</Timestamp><DateUtc dt:dt=""string"">2018-10-17T16:24:23Z</DateUtc></StartTime><FrequencyChanges><FrequencyChange><Frequency dt:dt=""r8"">3215292</Frequency><Timestamp dt:dt=""r8"">5841105867149</Timestamp><Current dt:dt=""r8"">0</Current><DateUtc dt:dt=""string"">2018-10-17T16:24:23Z</DateUtc></FrequencyChange></FrequencyChanges></Clock>\n",KW_Experiment5A-23-1,59.946,1.0.0.105,2,-49029577,Professional,2.0.10.353,2.0.10.353,10/17/2018,10/17/2018 16:24,12:24:23,2.0.10.248,2,2,1,2,,,,,,,,TrainingProc,BlockList,11,1,Distractor2.bmp,2,0,,0,1,291458,500,,0,0,yellow,500,2,500,,vertical,red,Target1.bmp,cyan,Distractor2.bmp,purple,Distractor1.bmp,lime,Distractor2.bmp,blue,Distractor2.bmp,yellow,Distractor2.bmp,,,,TrialProc,2,TrainingTrialList,0,1,-999999,0,291958,0,2,365,292323,Target1.bmp,red,1,,,,7,2,11
KW_Experiment5A,23,1,"<?xml version=""1.0""?>\n<Clock xmlns:dt=""urn:schemas-microsoft-com:datatypes""><Description dt:dt=""string"">E-Prime Primary Realtime Clock</Description><StartTime><Timestamp dt:dt=""int"">0</Timestamp><DateUtc dt:dt=""string"">2018-10-17T16:24:23Z</DateUtc></StartTime><FrequencyChanges><FrequencyChange><Frequency dt:dt=""r8"">3215292</Frequency><Timestamp dt:dt=""r8"">5841105867149</Timestamp><Current dt:dt=""r8"">0</Current><DateUtc dt:dt=""string"">2018-10-17T16:24:23Z</DateUtc></FrequencyChange></FrequencyChanges></Clock>\n",KW_Experiment5A-23-1,59.946,1.0.0.105,2,-49029577,Professional,2.0.10.353,2.0.10.353,10/17/2018,10/17/2018 16:24,12:24:23,2.0.10.248,2,2,1,2,,,,,,,,TrainingProc,BlockList,12,1,Distractor1.bmp,1,0,,0,1,293343,500,,0,0,purple,500,2,500,5,vertical,purple,Distractor2.bmp,lime,Target1.bmp,blue,Distractor1.bmp,cyan,Distractor2.bmp,yellow,Distractor1.bmp,red,Distractor1.bmp,,,,TrialProc,,TrainingTrialList,1,1,-999999,0,293843,0,1,1408,295251,Target1.bmp,lime,1,,,,2,2,12
KW_Experiment5A,23,1,"<?xml version=""1.0""?>\n<Clock xmlns:dt=""urn:schemas-microsoft-com:datatypes""><Description dt:dt=""string"">E-Prime Primary Realtime Clock</Description><StartTime><Timestamp dt:dt=""int"">0</Timestamp><DateUtc dt:dt=""string"">2018-10-17T16:24:23Z</DateUtc></StartTime><FrequencyChanges><FrequencyChange><Frequency dt:dt=""r8"">3215292</Frequency><Timestamp dt:dt=""r8"">5841105867149</Timestamp><Current dt:dt=""r8"">0</Current><DateUtc dt:dt=""string"">2018-10-17T16:24:23Z</DateUtc></FrequencyChange></FrequencyChanges></Clock>\n",KW_Experiment5A-23-1,59.946,1.0.0.105,2,-49029577,Professional,2.0.10.353,2.0.10.353,10/17/2018,10/17/2018 16:24,12:24:23,2.0.10.248,2,2,1,2,,,,,,,,TrainingProc,BlockList,13,1,Distractor2.bmp,2,0,,0,1,296262,400,,0,0,lime,400,1,400,,vertical,lime,Distractor2.bmp,cyan,Distractor2.bmp,yellow,Distractor2.bmp,blue,Distractor2.bmp,red,Target1.bmp,purple,Distractor2.bmp,,,,TrialProc,6,TrainingTrialList,1,1,-999999,0,296662,0,1,589,297251,Target1.bmp,red,1,,,,11,2,13
KW_Experiment5A,23,1,"<?xml version=""1.0""?>\n<Clock xmlns:dt=""urn:schemas-microsoft-com:datatypes""><Description dt:dt=""string"">E-Prime Primary Realtime Clock</Description><StartTime><Timestamp dt:dt=""int"">0</Timestamp><DateUtc dt:dt=""string"">2018-10-17T16:24:23Z</DateUtc></StartTime><FrequencyChanges><FrequencyChange><Frequency dt:dt=""r8"">3215292</Frequency><Timestamp dt:dt=""r8"">5841105867149</Timestamp><Current dt:dt=""r8"">0</Current><DateUtc dt:dt=""string"">2018-10-17T16:24:23Z</DateUtc></FrequencyChange></FrequencyChanges></Clock>\n",KW_Experiment5A-23-1,59.946,1.0.0.105,2,-49029577,Professional,2.0.10.353,2.0.10.353,10/17/2018,10/17/2018 16:24,12:24:23,2.0.10.248,2,2,1,2,,,,,,,,TrainingProc,BlockList,14,1,Distractor2.bmp,2,0,,0,1,298264,600,,0,0,cyan,600,3,600,,vertical,cyan,Distractor1.bmp,yellow,Distractor2.bmp,blue,Distractor2.bmp,purple,Distractor1.bmp,red,Target1.bmp,lime,Distractor2.bmp,,,,TrialProc,4,TrainingTrialList,1,1,-999999,0,298864,0,1,683,299547,Target1.bmp,red,1,,,,11,2,14
KW_Experiment5A,23,1,"<?xml version=""1.0""?>\n<Clock xmlns:dt=""urn:schemas-microsoft-com:datatypes""><Description dt:dt=""string"">E-Prime Primary Realtime Clock</Description><StartTime><Timestamp dt:dt=""int"">0</Timestamp><DateUtc dt:dt=""string"">2018-10-17T16:24:23Z</DateUtc></StartTime><FrequencyChanges><FrequencyChange><Frequency dt:dt=""r8"">3215292</Frequency><Timestamp dt:dt=""r8"">5841105867149</Timestamp><Current dt:dt=""r8"">0</Current><DateUtc dt:dt=""string"">2018-10-17T16:24:23Z</DateUtc></FrequencyChange></FrequencyChanges></Clock>\n",KW_Experiment5A-23-1,59.946,1.0.0.105,2,-49029577,Professional,2.0.10.353,2.0.10.353,10/17/2018,10/17/2018 16:24,12:24:23,2.0.10.248,2,2,1,2,,,,,,,,TrainingProc,BlockList,15,1,Distractor1.bmp,1,0,,0,1,300566,400,,0,0,blue,400,1,400,,vertical,red,Target1.bmp,purple,Distractor1.bmp,cyan,Distractor2.bmp,yellow,Distractor1.bmp,lime,Distractor2.bmp,blue,Distractor2.bmp,,,,TrialProc,3,TrainingTrialList,1,1,-999999,0,300966,0,1,2500,303466,Target1.bmp,red,1,,,,7,2,15
KW_Experiment5A,23,1,"<?xml version=""1.0""?>\n<Clock xmlns:dt=""urn:schemas-microsoft-com:datatypes""><Description dt:dt=""string"">E-Prime Primary Realtime Clock</Description><StartTime><Timestamp dt:dt=""int"">0</Timestamp><DateUtc dt:dt=""string"">2018-10-17T16:24:23Z</DateUtc></StartTime><FrequencyChanges><FrequencyChange><Frequency dt:dt=""r8"">3215292</Frequency><Timestamp dt:dt=""r8"">5841105867149</Timestamp><Current dt:dt=""r8"">0</Current><DateUtc dt:dt=""string"">2018-10-17T16:24:23Z</DateUtc></FrequencyChange></FrequencyChanges></Clock>\n",KW_Experiment5A-23-1,59.946,1.0.0.105,2,-49029577,Professional,2.0.10.353,2.0.10.353,10/17/2018,10/17/2018 16:24,12:24:23,2.0.10.248,2,2,1,2,,,,,,,,TrainingProc,BlockList,16,1,Distractor2.bmp,2,0,,0,1,304486,601,,0,0,blue,600,3,600,3,vertical,blue,Distractor2.bmp,red,Distractor1.bmp,yellow,Distractor2.bmp,cyan,Distractor1.bmp,lime,Target1.bmp,purple,Distractor2.bmp,,,,TrialProc,,TrainingTrialList,1,1,-999999,1,305087,0,1,755,305842,Target1.bmp,lime,1,,,,5,2,16
KW_Experiment5A,23,1,"<?xml version=""1.0""?>\n<Clock xmlns:dt=""urn:schemas-microsoft-com:datatypes""><Description dt:dt=""string"">E-Prime Primary Realtime Clock</Description><StartTime><Timestamp dt:dt=""int"">0</Timestamp><DateUtc dt:dt=""string"">2018-10-17T16:24:23Z</DateUtc></StartTime><FrequencyChanges><FrequencyChange><Frequency dt:dt=""r8"">3215292</Frequency><Timestamp dt:dt=""r8"">5841105867149</Timestamp><Current dt:dt=""r8"">0</Current><DateUtc dt:dt=""string"">2018-10-17T16:24:23Z</DateUtc></FrequencyChange></FrequencyChanges></Clock>\n",KW_Experiment5A-23-1,59.946,1.0.0.105,2,-49029577,Professional,2.0.10.353,2.0.10.353,10/17/2018,10/17/2018 16:24,12:24:23,2.0.10.248,2,2,1,2,,,,,,,,TrainingProc,BlockList,17,1,Distractor1.bmp,1,0,,0,1,306855,500,,0,0,red,500,2,500,1,vertical,lime,Target1.bmp,red,Distractor1.bmp,yellow,Distractor1.bmp,cyan,Distractor1.bmp,blue,Distractor1.bmp,purple,Distractor2.bmp,,,,TrialProc,,TrainingTrialList,0,1,-999999,0,307355,0,2,1127,308482,Target1.bmp,lime,1,,,,1,2,17
KW_Experiment5A,23,1,"<?xml version=""1.0""?>\n<Clock xmlns:dt=""urn:schemas-microsoft-com:datatypes""><Description dt:dt=""string"">E-Prime Primary Realtime Clock</Description><StartTime><Timestamp dt:dt=""int"">0</Timestamp><DateUtc dt:dt=""string"">2018-10-17T16:24:23Z</DateUtc></StartTime><FrequencyChanges><FrequencyChange><Frequency dt:dt=""r8"">3215292</Frequency><Timestamp dt:dt=""r8"">5841105867149</Timestamp><Current dt:dt=""r8"">0</Current><DateUtc dt:dt=""string"">2018-10-17T16:24:23Z</DateUtc></FrequencyChange></FrequencyChanges></Clock>\n",KW_Experiment5A-23-1,59.946,1.0.0.105,2,-49029577,Professional,2.0.10.353,2.0.10.353,10/17/2018,10/17/2018 16:24,12:24:23,2.0.10.248,2,2,1,2,,,,,,,,TrainingProc,BlockList,18,2,Distractor1.bmp,1,0,,0,1,309507,501,,0,0,purple,500,2,500,,horizontal,purple,Distractor1.bmp,red,Target2.bmp,yellow,Distractor1.bmp,blue,Distractor2.bmp,cyan,Distractor1.bmp,lime,Distractor1.bmp,,,,TrialProc,5,TrainingTrialList,1,2,-999999,1,310008,0,2,1514,311522,Target2.bmp,red,2,,,,8,2,18
KW_Experiment5A,23,1,"<?xml version=""1.0""?>\n<Clock xmlns:dt=""urn:schemas-microsoft-com:datatypes""><Description dt:dt=""string"">E-Prime Primary Realtime Clock</Description><StartTime><Timestamp dt:dt=""int"">0</Timestamp><DateUtc dt:dt=""string"">2018-10-17T16:24:23Z</DateUtc></StartTime><FrequencyChanges><FrequencyChange><Frequency dt:dt=""r8"">3215292</Frequency><Timestamp dt:dt=""r8"">5841105867149</Timestamp><Current dt:dt=""r8"">0</Current><DateUtc dt:dt=""string"">2018-10-17T16:24:23Z</DateUtc></FrequencyChange></FrequencyChanges></Clock>\n",KW_Experiment5A-23-1,59.946,1.0.0.105,2,-49029577,Professional,2.0.10.353,2.0.10.353,10/17/2018,10/17/2018 16:24,12:24:23,2.0.10.248,2,2,1,2,,,,,,,,TrainingProc,BlockList,19,1,Distractor1.bmp,1,0,,0,1,312543,401,,0,0,yellow,400,1,400,,vertical,yellow,Distractor2.bmp,lime,Distractor2.bmp,red,Target1.bmp,cyan,Distractor1.bmp,purple,Distractor2.bmp,blue,Distractor1.bmp,,,,TrialProc,2,TrainingTrialList,0,1,-999999,1,312944,0,2,650,313594,Target1.bmp,red,1,,,,9,2,19
KW_Experiment5A,23,1,"<?xml version=""1.0""?>\n<Clock xmlns:dt=""urn:schemas-microsoft-com:datatypes""><Description dt:dt=""string"">E-Prime Primary Realtime Clock</Description><StartTime><Timestamp dt:dt=""int"">0</Timestamp><DateUtc dt:dt=""string"">2018-10-17T16:24:23Z</DateUtc></StartTime><FrequencyChanges><FrequencyChange><Frequency dt:dt=""r8"">3215292</Frequency><Timestamp dt:dt=""r8"">5841105867149</Timestamp><Current dt:dt=""r8"">0</Current><DateUtc dt:dt=""string"">2018-10-17T16:24:23Z</DateUtc></FrequencyChange></FrequencyChanges></Clock>\n",KW_Experiment5A-23-1,59.946,1.0.0.105,2,-49029577,Professional,2.0.10.353,2.0.10.353,10/17/2018,10/17/2018 16:24,12:24:23,2.0.10.248,2,2,1,2,,,,,,,,TrainingProc,BlockList,20,2,Distractor1.bmp,1,0,,0,1,314612,601,,0,0,lime,600,3,600,,horizontal,lime,Distractor1.bmp,cyan,Distractor2.bmp,blue,Distractor2.bmp,yellow,Distractor1.bmp,purple,Distractor2.bmp,red,Target2.bmp,,,,TrialProc,6,TrainingTrialList,1,2,-999999,1,315213,0,2,1941,317154,Target2.bmp,red,2,,,,12,2,20
KW_Experiment5A,23,1,"<?xml version=""1.0""?>\n<Clock xmlns:dt=""urn:schemas-microsoft-com:datatypes""><Description dt:dt=""string"">E-Prime Primary Realtime Clock</Description><StartTime><Timestamp dt:dt=""int"">0</Timestamp><DateUtc dt:dt=""string"">2018-10-17T16:24:23Z</DateUtc></StartTime><FrequencyChanges><FrequencyChange><Frequency dt:dt=""r8"">3215292</Frequency><Timestamp dt:dt=""r8"">5841105867149</Timestamp><Current dt:dt=""r8"">0</Current><DateUtc dt:dt=""string"">2018-10-17T16:24:23Z</DateUtc></FrequencyChange></FrequencyChanges></Clock>\n",KW_Experiment5A-23-1,59.946,1.0.0.105,2,-49029577,Professional,2.0.10.353,2.0.10.353,10/17/2018,10/17/2018 16:24,12:24:23,2.0.10.248,2,2,1,2,,,,,,,,TrainingProc,BlockList,21,1,Distractor2.bmp,2,0,,0,1,318165,401,,0,0,cyan,400,1,400,,vertical,cyan,Distractor1.bmp,lime,Distractor1.bmp,yellow,Distractor2.bmp,red,Target1.bmp,purple,Distractor2.bmp,blue,Distractor2.bmp,,,,TrialProc,4,TrainingTrialList,0,1,-999999,1,318566,0,2,1156,319722,Target1.bmp,red,1,,,,10,2,21
KW_Experiment5A,23,1,"<?xml version=""1.0""?>\n<Clock xmlns:dt=""urn:schemas-microsoft-com:datatypes""><Description dt:dt=""string"">E-Prime Primary Realtime Clock</Description><StartTime><Timestamp dt:dt=""int"">0</Timestamp><DateUtc dt:dt=""string"">2018-10-17T16:24:23Z</DateUtc></StartTime><FrequencyChanges><FrequencyChange><Frequency dt:dt=""r8"">3215292</Frequency><Timestamp dt:dt=""r8"">5841105867149</Timestamp><Current dt:dt=""r8"">0</Current><DateUtc dt:dt=""string"">2018-10-17T16:24:23Z</DateUtc></FrequencyChange></FrequencyChanges></Clock>\n",KW_Experiment5A-23-1,59.946,1.0.0.105,2,-49029577,Professional,2.0.10.353,2.0.10.353,10/17/2018,10/17/2018 16:24,12:24:23,2.0.10.248,2,2,1,2,,,,,,,,TrainingProc,BlockList,22,2,Distractor1.bmp,1,0,,0,1,320734,601,,0,0,purple,600,3,600,,horizontal,purple,Distractor1.bmp,lime,Distractor1.bmp,blue,Distractor2.bmp,red,Target2.bmp,yellow,Distractor1.bmp,cyan,Distractor2.bmp,,,,TrialProc,5,TrainingTrialList,1,2,-999999,1,321335,0,2,707,322042,Target2.bmp,red,2,,,,10,2,22
KW_Experiment5A,23,1,"<?xml version=""1.0""?>\n<Clock xmlns:dt=""urn:schemas-microsoft-com:datatypes""><Description dt:dt=""string"">E-Prime Primary Realtime Clock</Description><StartTime><Timestamp dt:dt=""int"">0</Timestamp><DateUtc dt:dt=""string"">2018-10-17T16:24:23Z</DateUtc></StartTime><FrequencyChanges><FrequencyChange><Frequency dt:dt=""r8"">3215292</Frequency><Timestamp dt:dt=""r8"">5841105867149</Timestamp><Current dt:dt=""r8"">0</Current><DateUtc dt:dt=""string"">2018-10-17T16:24:23Z</DateUtc></FrequencyChange></FrequencyChanges></Clock>\n",KW_Experiment5A-23-1,59.946,1.0.0.105,2,-49029577,Professional,2.0.10.353,2.0.10.353,10/17/2018,10/17/2018 16:24,12:24:23,2.0.10.248,2,2,1,2,,,,,,,,TrainingProc,BlockList,23,1,Distractor2.bmp,2,0,,0,1,323053,500,,0,0,yellow,500,2,500,,vertical,red,Target1.bmp,purple,Distractor2.bmp,cyan,Distractor1.bmp,blue,Distractor2.bmp,lime,Distractor2.bmp,yellow,Distractor2.bmp,,,,TrialProc,2,TrainingTrialList,0,1,-999999,0,323553,0,2,1081,324634,Target1.bmp,red,1,,,,7,2,23
KW_Experiment5A,23,1,"<?xml version=""1.0""?>\n<Clock xmlns:dt=""urn:schemas-microsoft-com:datatypes""><Description dt:dt=""string"">E-Prime Primary Realtime Clock</Description><StartTime><Timestamp dt:dt=""int"">0</Timestamp><DateUtc dt:dt=""string"">2018-10-17T16:24:23Z</DateUtc></StartTime><FrequencyChanges><FrequencyChange><Frequency dt:dt=""r8"">3215292</Frequency><Timestamp dt:dt=""r8"">5841105867149</Timestamp><Current dt:dt=""r8"">0</Current><DateUtc dt:dt=""string"">2018-10-17T16:24:23Z</DateUtc></FrequencyChange></FrequencyChanges></Clock>\n",KW_Experiment5A-23-1,59.946,1.0.0.105,2,-49029577,Professional,2.0.10.353,2.0.10.353,10/17/2018,10/17/2018 16:24,12:24:23,2.0.10.248,2,2,1,2,,,,,,,,TrainingProc,BlockList,24,2,Distractor2.bmp,2,0,,0,1,325655,501,,0,0,yellow,500,2,500,,horizontal,yellow,Distractor1.bmp,red,Target2.bmp,blue,Distractor2.bmp,cyan,Distractor2.bmp,purple,Distractor2.bmp,lime,Distractor1.bmp,,,,TrialProc,2,TrainingTrialList,1,2,-999999,1,326156,0,2,2574,328730,Target2.bmp,red,2,,,,8,2,24
KW_Experiment5A,23,1,"<?xml version=""1.0""?>\n<Clock xmlns:dt=""urn:schemas-microsoft-com:datatypes""><Description dt:dt=""string"">E-Prime Primary Realtime Clock</Description><StartTime><Timestamp dt:dt=""int"">0</Timestamp><DateUtc dt:dt=""string"">2018-10-17T16:24:23Z</DateUtc></StartTime><FrequencyChanges><FrequencyChange><Frequency dt:dt=""r8"">3215292</Frequency><Timestamp dt:dt=""r8"">5841105867149</Timestamp><Current dt:dt=""r8"">0</Current><DateUtc dt:dt=""string"">2018-10-17T16:24:23Z</DateUtc></FrequencyChange></FrequencyChanges></Clock>\n",KW_Experiment5A-23-1,59.946,1.0.0.105,2,-49029577,Professional,2.0.10.353,2.0.10.353,10/17/2018,10/17/2018 16:24,12:24:23,2.0.10.248,2,2,1,2,,,,,,,,TrainingProc,BlockList,25,1,Distractor2.bmp,2,0,,0,1,329742,501,,0,0,lime,500,2,500,,vertical,lime,Distractor1.bmp,yellow,Distractor2.bmp,red,Target1.bmp,purple,Distractor2.bmp,blue,Distractor1.bmp,cyan,Distractor2.bmp,,,,TrialProc,6,TrainingTrialList,0,1,-999999,1,330243,0,2,559,330802,Target1.bmp,red,1,,,,9,3,25
KW_Experiment5A,23,1,"<?xml version=""1.0""?>\n<Clock xmlns:dt=""urn:schemas-microsoft-com:datatypes""><Description dt:dt=""string"">E-Prime Primary Realtime Clock</Description><StartTime><Timestamp dt:dt=""int"">0</Timestamp><DateUtc dt:dt=""string"">2018-10-17T16:24:23Z</DateUtc></StartTime><FrequencyChanges><FrequencyChange><Frequency dt:dt=""r8"">3215292</Frequency><Timestamp dt:dt=""r8"">5841105867149</Timestamp><Current dt:dt=""r8"">0</Current><DateUtc dt:dt=""string"">2018-10-17T16:24:23Z</DateUtc></FrequencyChange></FrequencyChanges></Clock>\n",KW_Experiment5A-23-1,59.946,1.0.0.105,2,-49029577,Professional,2.0.10.353,2.0.10.353,10/17/2018,10/17/2018 16:24,12:24:23,2.0.10.248,2,2,1,2,,,,,,,,TrainingProc,BlockList,26,2,Distractor2.bmp,2,0,,0,1,331828,400,,0,0,blue,400,1,400,3,horizontal,blue,Distractor2.bmp,cyan,Distractor2.bmp,purple,Distractor2.bmp,red,Distractor1.bmp,lime,Target2.bmp,yellow,Distractor2.bmp,,,,TrialProc,,TrainingTrialList,0,2,-999999,0,332228,0,1,870,333098,Target2.bmp,lime,2,,,,5,3,26
KW_Experiment5A,23,1,"<?xml version=""1.0""?>\n<Clock xmlns:dt=""urn:schemas-microsoft-com:datatypes""><Description dt:dt=""string"">E-Prime Primary Realtime Clock</Description><StartTime><Timestamp dt:dt=""int"">0</Timestamp><DateUtc dt:dt=""string"">2018-10-17T16:24:23Z</DateUtc></StartTime><FrequencyChanges><FrequencyChange><Frequency dt:dt=""r8"">3215292</Frequency><Timestamp dt:dt=""r8"">5841105867149</Timestamp><Current dt:dt=""r8"">0</Current><DateUtc dt:dt=""string"">2018-10-17T16:24:23Z</DateUtc></FrequencyChange></FrequencyChanges></Clock>\n",KW_Experiment5A-23-1,59.946,1.0.0.105,2,-49029577,Professional,2.0.10.353,2.0.10.353,10/17/2018,10/17/2018 16:24,12:24:23,2.0.10.248,2,2,1,2,,,,,,,,TrainingProc,BlockList,27,2,Distractor2.bmp,2,0,,0,1,334113,601,,0,0,yellow,600,3,600,,horizontal,yellow,Distractor1.bmp,cyan,Distractor1.bmp,purple,Distractor1.bmp,blue,Distractor1.bmp,red,Target2.bmp,lime,Distractor2.bmp,,,,TrialProc,2,TrainingTrialList,1,2,-999999,1,334714,0,2,328,335042,Target2.bmp,red,2,,,,11,3,27
KW_Experiment5A,23,1,"<?xml version=""1.0""?>\n<Clock xmlns:dt=""urn:schemas-microsoft-com:datatypes""><Description dt:dt=""string"">E-Prime Primary Realtime Clock</Description><StartTime><Timestamp dt:dt=""int"">0</Timestamp><DateUtc dt:dt=""string"">2018-10-17T16:24:23Z</DateUtc></StartTime><FrequencyChanges><FrequencyChange><Frequency dt:dt=""r8"">3215292</Frequency><Timestamp dt:dt=""r8"">5841105867149</Timestamp><Current dt:dt=""r8"">0</Current><DateUtc dt:dt=""string"">2018-10-17T16:24:23Z</DateUtc></FrequencyChange></FrequencyChanges></Clock>\n",KW_Experiment5A-23-1,59.946,1.0.0.105,2,-49029577,Professional,2.0.10.353,2.0.10.353,10/17/2018,10/17/2018 16:24,12:24:23,2.0.10.248,2,2,1,2,,,,,,,,TrainingProc,BlockList,28,1,Distractor2.bmp,2,0,,0,1,336065,600,,0,0,cyan,600,3,600,,vertical,cyan,Distractor2.bmp,lime,Distractor2.bmp,purple,Distractor1.bmp,yellow,Distractor1.bmp,red,Target1.bmp,blue,Distractor2.bmp,,,,TrialProc,4,TrainingTrialList,0,1,-999999,0,336665,0,2,529,337194,Target1.bmp,red,1,,,,11,3,28
KW_Experiment5A,23,1,"<?xml version=""1.0""?>\n<Clock xmlns:dt=""urn:schemas-microsoft-com:datatypes""><Description dt:dt=""string"">E-Prime Primary Realtime Clock</Description><StartTime><Timestamp dt:dt=""int"">0</Timestamp><DateUtc dt:dt=""string"">2018-10-17T16:24:23Z</DateUtc></StartTime><FrequencyChanges><FrequencyChange><Frequency dt:dt=""r8"">3215292</Frequency><Timestamp dt:dt=""r8"">5841105867149</Timestamp><Current dt:dt=""r8"">0</Current><DateUtc dt:dt=""string"">2018-10-17T16:24:23Z</DateUtc></FrequencyChange></FrequencyChanges></Clock>\n",KW_Experiment5A-23-1,59.946,1.0.0.105,2,-49029577,Professional,2.0.10.353,2.0.10.353,10/17/2018,10/17/2018 16:24,12:24:23,2.0.10.248,2,2,1,2,,,,,,,,TrainingProc,BlockList,29,2,Distractor1.bmp,1,0,,0,1,338217,400,,0,0,blue,400,1,400,3,horizontal,blue,Distractor2.bmp,purple,Distractor1.bmp,lime,Target2.bmp,cyan,Distractor1.bmp,yellow,Distractor1.bmp,red,Distractor2.bmp,,,,TrialProc,,TrainingTrialList,1,2,-999999,0,338617,0,2,697,339314,Target2.bmp,lime,2,,,,3,3,29
KW_Experiment5A,23,1,"<?xml version=""1.0""?>\n<Clock xmlns:dt=""urn:schemas-microsoft-com:datatypes""><Description dt:dt=""string"">E-Prime Primary Realtime Clock</Description><StartTime><Timestamp dt:dt=""int"">0</Timestamp><DateUtc dt:dt=""string"">2018-10-17T16:24:23Z</DateUtc></StartTime><FrequencyChanges><FrequencyChange><Frequency dt:dt=""r8"">3215292</Frequency><Timestamp dt:dt=""r8"">5841105867149</Timestamp><Current dt:dt=""r8"">0</Current><DateUtc dt:dt=""string"">2018-10-17T16:24:23Z</DateUtc></FrequencyChange></FrequencyChanges></Clock>\n",KW_Experiment5A-23-1,59.946,1.0.0.105,2,-49029577,Professional,2.0.10.353,2.0.10.353,10/17/2018,10/17/2018 16:24,12:24:23,2.0.10.248,2,2,1,2,,,,,,,,TrainingProc,BlockList,30,2,Distractor2.bmp,2,0,,0,1,340335,601,,0,0,purple,600,3,600,,horizontal,red,Target2.bmp,yellow,Distractor2.bmp,blue,Distractor2.bmp,cyan,Distractor2.bmp,lime,Distractor2.bmp,purple,Distractor2.bmp,,,,TrialProc,5,TrainingTrialList,0,2,-999999,1,340936,0,1,641,341577,Target2.bmp,red,2,,,,7,3,30
KW_Experiment5A,23,1,"<?xml version=""1.0""?>\n<Clock xmlns:dt=""urn:schemas-microsoft-com:datatypes""><Description dt:dt=""string"">E-Prime Primary Realtime Clock</Description><StartTime><Timestamp dt:dt=""int"">0</Timestamp><DateUtc dt:dt=""string"">2018-10-17T16:24:23Z</DateUtc></StartTime><FrequencyChanges><FrequencyChange><Frequency dt:dt=""r8"">3215292</Frequency><Timestamp dt:dt=""r8"">5841105867149</Timestamp><Current dt:dt=""r8"">0</Current><DateUtc dt:dt=""string"">2018-10-17T16:24:23Z</DateUtc></FrequencyChange></FrequencyChanges></Clock>\n",KW_Experiment5A-23-1,59.946,1.0.0.105,2,-49029577,Professional,2.0.10.353,2.0.10.353,10/17/2018,10/17/2018 16:24,12:24:23,2.0.10.248,2,2,1,2,,,,,,,,TrainingProc,BlockList,31,1,Distractor2.bmp,2,0,,0,1,342604,500,,0,0,blue,500,2,500,,vertical,red,Target1.bmp,cyan,Distractor2.bmp,lime,Distractor2.bmp,yellow,Distractor1.bmp,purple,Distractor1.bmp,blue,Distractor2.bmp,,,,TrialProc,3,TrainingTrialList,0,1,-999999,0,343104,0,2,257,343361,Target1.bmp,red,1,,,,7,3,31
KW_Experiment5A,23,1,"<?xml version=""1.0""?>\n<Clock xmlns:dt=""urn:schemas-microsoft-com:datatypes""><Description dt:dt=""string"">E-Prime Primary Realtime Clock</Description><StartTime><Timestamp dt:dt=""int"">0</Timestamp><DateUtc dt:dt=""string"">2018-10-17T16:24:23Z</DateUtc></StartTime><FrequencyChanges><FrequencyChange><Frequency dt:dt=""r8"">3215292</Frequency><Timestamp dt:dt=""r8"">5841105867149</Timestamp><Current dt:dt=""r8"">0</Current><DateUtc dt:dt=""string"">2018-10-17T16:24:23Z</DateUtc></FrequencyChange></FrequencyChanges></Clock>\n",KW_Experiment5A-23-1,59.946,1.0.0.105,2,-49029577,Professional,2.0.10.353,2.0.10.353,10/17/2018,10/17/2018 16:24,12:24:23,2.0.10.248,2,2,1,2,,,,,,,,TrainingProc,BlockList,32,1,Distractor2.bmp,2,0,,0,1,344389,400,,0,0,blue,400,1,400,,vertical,blue,Distractor2.bmp,lime,Distractor1.bmp,yellow,Distractor1.bmp,purple,Distractor1.bmp,red,Target1.bmp,cyan,Distractor2.bmp,,,,TrialProc,3,TrainingTrialList,1,1,-999999,0,344789,0,1,324,345113,Target1.bmp,red,1,,,,11,3,32
KW_Experiment5A,23,1,"<?xml version=""1.0""?>\n<Clock xmlns:dt=""urn:schemas-microsoft-com:datatypes""><Description dt:dt=""string"">E-Prime Primary Realtime Clock</Description><StartTime><Timestamp dt:dt=""int"">0</Timestamp><DateUtc dt:dt=""string"">2018-10-17T16:24:23Z</DateUtc></StartTime><FrequencyChanges><FrequencyChange><Frequency dt:dt=""r8"">3215292</Frequency><Timestamp dt:dt=""r8"">5841105867149</Timestamp><Current dt:dt=""r8"">0</Current><DateUtc dt:dt=""string"">2018-10-17T16:24:23Z</DateUtc></FrequencyChange></FrequencyChanges></Clock>\n",KW_Experiment5A-23-1,59.946,1.0.0.105,2,-49029577,Professional,2.0.10.353,2.0.10.353,10/17/2018,10/17/2018 16:24,12:24:23,2.0.10.248,2,2,1,2,,,,,,,,TrainingProc,BlockList,33,2,Distractor1.bmp,1,0,,0,1,346124,500,,0,0,lime,500,2,500,,horizontal,lime,Distractor2.bmp,red,Target2.bmp,blue,Distractor1.bmp,yellow,Distractor2.bmp,cyan,Distractor2.bmp,purple,Distractor1.bmp,,,,TrialProc,6,TrainingTrialList,1,2,-999999,0,346624,0,2,769,347393,Target2.bmp,red,2,,,,8,3,33
KW_Experiment5A,23,1,"<?xml version=""1.0""?>\n<Clock xmlns:dt=""urn:schemas-microsoft-com:datatypes""><Description dt:dt=""string"">E-Prime Primary Realtime Clock</Description><StartTime><Timestamp dt:dt=""int"">0</Timestamp><DateUtc dt:dt=""string"">2018-10-17T16:24:23Z</DateUtc></StartTime><FrequencyChanges><FrequencyChange><Frequency dt:dt=""r8"">3215292</Frequency><Timestamp dt:dt=""r8"">5841105867149</Timestamp><Current dt:dt=""r8"">0</Current><DateUtc dt:dt=""string"">2018-10-17T16:24:23Z</DateUtc></FrequencyChange></FrequencyChanges></Clock>\n",KW_Experiment5A-23-1,59.946,1.0.0.105,2,-49029577,Professional,2.0.10.353,2.0.10.353,10/17/2018,10/17/2018 16:24,12:24:23,2.0.10.248,2,2,1,2,,,,,,,,TrainingProc,BlockList,34,1,Distractor1.bmp,1,0,,0,1,348409,501,,0,0,yellow,500,2,500,2,vertical,yellow,Distractor1.bmp,purple,Distractor2.bmp,red,Distractor1.bmp,lime,Target1.bmp,blue,Distractor1.bmp,cyan,Distractor2.bmp,,,,TrialProc,,TrainingTrialList,0,1,-999999,1,348910,0,2,2035,350945,Target1.bmp,lime,1,,,,4,3,34
KW_Experiment5A,23,1,"<?xml version=""1.0""?>\n<Clock xmlns:dt=""urn:schemas-microsoft-com:datatypes""><Description dt:dt=""string"">E-Prime Primary Realtime Clock</Description><StartTime><Timestamp dt:dt=""int"">0</Timestamp><DateUtc dt:dt=""string"">2018-10-17T16:24:23Z</DateUtc></StartTime><FrequencyChanges><FrequencyChange><Frequency dt:dt=""r8"">3215292</Frequency><Timestamp dt:dt=""r8"">5841105867149</Timestamp><Current dt:dt=""r8"">0</Current><DateUtc dt:dt=""string"">2018-10-17T16:24:23Z</DateUtc></FrequencyChange></FrequencyChanges></Clock>\n",KW_Experiment5A-23-1,59.946,1.0.0.105,2,-49029577,Professional,2.0.10.353,2.0.10.353,10/17/2018,10/17/2018 16:24,12:24:23,2.0.10.248,2,2,1,2,,,,,,,,TrainingProc,BlockList,35,2,Distractor1.bmp,1,0,,0,1,351963,400,,0,0,cyan,400,1,400,,horizontal,cyan,Distractor1.bmp,blue,Distractor1.bmp,purple,Distractor1.bmp,lime,Distractor1.bmp,yellow,Distractor1.bmp,red,Target2.bmp,,,,TrialProc,4,TrainingTrialList,0,2,-999999,0,352363,0,1,742,353105,Target2.bmp,red,2,,,,12,3,35
KW_Experiment5A,23,1,"<?xml version=""1.0""?>\n<Clock xmlns:dt=""urn:schemas-microsoft-com:datatypes""><Description dt:dt=""string"">E-Prime Primary Realtime Clock</Description><StartTime><Timestamp dt:dt=""int"">0</Timestamp><DateUtc dt:dt=""string"">2018-10-17T16:24:23Z</DateUtc></StartTime><FrequencyChanges><FrequencyChange><Frequency dt:dt=""r8"">3215292</Frequency><Timestamp dt:dt=""r8"">5841105867149</Timestamp><Current dt:dt=""r8"">0</Current><DateUtc dt:dt=""string"">2018-10-17T16:24:23Z</DateUtc></FrequencyChange></FrequencyChanges></Clock>\n",KW_Experiment5A-23-1,59.946,1.0.0.105,2,-49029577,Professional,2.0.10.353,2.0.10.353,10/17/2018,10/17/2018 16:24,12:24:23,2.0.10.248,2,2,1,2,,,,,,,,TrainingProc,BlockList,36,1,Distractor2.bmp,2,0,,0,1,354131,601,,0,0,lime,600,3,600,,vertical,red,Target1.bmp,cyan,Distractor2.bmp,yellow,Distractor1.bmp,blue,Distractor2.bmp,purple,Distractor1.bmp,lime,Distractor1.bmp,,,,TrialProc,6,TrainingTrialList,0,1,-999999,1,354732,0,2,293,355025,Target1.bmp,red,1,,,,7,3,36
KW_Experiment5A,23,1,"<?xml version=""1.0""?>\n<Clock xmlns:dt=""urn:schemas-microsoft-com:datatypes""><Description dt:dt=""string"">E-Prime Primary Realtime Clock</Description><StartTime><Timestamp dt:dt=""int"">0</Timestamp><DateUtc dt:dt=""string"">2018-10-17T16:24:23Z</DateUtc></StartTime><FrequencyChanges><FrequencyChange><Frequency dt:dt=""r8"">3215292</Frequency><Timestamp dt:dt=""r8"">5841105867149</Timestamp><Current dt:dt=""r8"">0</Current><DateUtc dt:dt=""string"">2018-10-17T16:24:23Z</DateUtc></FrequencyChange></FrequencyChanges></Clock>\n",KW_Experiment5A-23-1,59.946,1.0.0.105,2,-49029577,Professional,2.0.10.353,2.0.10.353,10/17/2018,10/17/2018 16:24,12:24:23,2.0.10.248,2,2,1,2,,,,,,,,TrainingProc,BlockList,37,2,Distractor2.bmp,2,0,,0,1,356050,500,,0,0,blue,500,2,500,,horizontal,blue,Distractor1.bmp,red,Target2.bmp,lime,Distractor2.bmp,yellow,Distractor2.bmp,purple,Distractor1.bmp,cyan,Distractor1.bmp,,,,TrialProc,3,TrainingTrialList,0,2,-999999,0,356550,0,1,91,356641,Target2.bmp,red,2,,,,8,3,37
KW_Experiment5A,23,1,"<?xml version=""1.0""?>\n<Clock xmlns:dt=""urn:schemas-microsoft-com:datatypes""><Description dt:dt=""string"">E-Prime Primary Realtime Clock</Description><StartTime><Timestamp dt:dt=""int"">0</Timestamp><DateUtc dt:dt=""string"">2018-10-17T16:24:23Z</DateUtc></StartTime><FrequencyChanges><FrequencyChange><Frequency dt:dt=""r8"">3215292</Frequency><Timestamp dt:dt=""r8"">5841105867149</Timestamp><Current dt:dt=""r8"">0</Current><DateUtc dt:dt=""string"">2018-10-17T16:24:23Z</DateUtc></FrequencyChange></FrequencyChanges></Clock>\n",KW_Experiment5A-23-1,59.946,1.0.0.105,2,-49029577,Professional,2.0.10.353,2.0.10.353,10/17/2018,10/17/2018 16:24,12:24:23,2.0.10.248,2,2,1,2,,,,,,,,TrainingProc,BlockList,38,1,Distractor2.bmp,2,0,,0,1,357668,400,,0,0,cyan,400,1,400,,vertical,cyan,Distractor1.bmp,purple,Distractor1.bmp,blue,Distractor2.bmp,red,Target1.bmp,yellow,Distractor2.bmp,lime,Distractor1.bmp,,,,TrialProc,4,TrainingTrialList,0,1,-999999,0,358068,0,2,77,358145,Target1.bmp,red,1,,,,10,3,38
KW_Experiment5A,23,1,"<?xml version=""1.0""?>\n<Clock xmlns:dt=""urn:schemas-microsoft-com:datatypes""><Description dt:dt=""string"">E-Prime Primary Realtime Clock</Description><StartTime><Timestamp dt:dt=""int"">0</Timestamp><DateUtc dt:dt=""string"">2018-10-17T16:24:23Z</DateUtc></StartTime><FrequencyChanges><FrequencyChange><Frequency dt:dt=""r8"">3215292</Frequency><Timestamp dt:dt=""r8"">5841105867149</Timestamp><Current dt:dt=""r8"">0</Current><DateUtc dt:dt=""string"">2018-10-17T16:24:23Z</DateUtc></FrequencyChange></FrequencyChanges></Clock>\n",KW_Experiment5A-23-1,59.946,1.0.0.105,2,-49029577,Professional,2.0.10.353,2.0.10.353,10/17/2018,10/17/2018 16:24,12:24:23,2.0.10.248,2,2,1,2,,,,,,,,TrainingProc,BlockList,39,1,Distractor2.bmp,2,0,,0,1,359169,601,,0,0,blue,600,3,600,,vertical,blue,Distractor1.bmp,cyan,Distractor2.bmp,yellow,Distractor2.bmp,red,Target1.bmp,lime,Distractor2.bmp,purple,Distractor1.bmp,,,,TrialProc,3,TrainingTrialList,1,1,-999999,1,359770,0,1,1455,361225,Target1.bmp,red,1,,,,10,3,39
KW_Experiment5A,23,1,"<?xml version=""1.0""?>\n<Clock xmlns:dt=""urn:schemas-microsoft-com:datatypes""><Description dt:dt=""string"">E-Prime Primary Realtime Clock</Description><StartTime><Timestamp dt:dt=""int"">0</Timestamp><DateUtc dt:dt=""string"">2018-10-17T16:24:23Z</DateUtc></StartTime><FrequencyChanges><FrequencyChange><Frequency dt:dt=""r8"">3215292</Frequency><Timestamp dt:dt=""r8"">5841105867149</Timestamp><Current dt:dt=""r8"">0</Current><DateUtc dt:dt=""string"">2018-10-17T16:24:23Z</DateUtc></FrequencyChange></FrequencyChanges></Clock>\n",KW_Experiment5A-23-1,59.946,1.0.0.105,2,-49029577,Professional,2.0.10.353,2.0.10.353,10/17/2018,10/17/2018 16:24,12:24:23,2.0.10.248,2,2,1,2,,,,,,,,TrainingProc,BlockList,40,2,Distractor1.bmp,1,0,,0,1,362239,400,,0,0,lime,400,1,400,,horizontal,lime,Distractor1.bmp,blue,Distractor1.bmp,cyan,Distractor2.bmp,yellow,Distractor2.bmp,purple,Distractor2.bmp,red,Target2.bmp,,,,TrialProc,6,TrainingTrialList,1,2,-999999,0,362639,0,2,36841,399480,Target2.bmp,red,2,,,,12,3,40
KW_Experiment5A,23,1,"<?xml version=""1.0""?>\n<Clock xmlns:dt=""urn:schemas-microsoft-com:datatypes""><Description dt:dt=""string"">E-Prime Primary Realtime Clock</Description><StartTime><Timestamp dt:dt=""int"">0</Timestamp><DateUtc dt:dt=""string"">2018-10-17T16:24:23Z</DateUtc></StartTime><FrequencyChanges><FrequencyChange><Frequency dt:dt=""r8"">3215292</Frequency><Timestamp dt:dt=""r8"">5841105867149</Timestamp><Current dt:dt=""r8"">0</Current><DateUtc dt:dt=""string"">2018-10-17T16:24:23Z</DateUtc></FrequencyChange></FrequencyChanges></Clock>\n",KW_Experiment5A-23-1,59.946,1.0.0.105,2,-49029577,Professional,2.0.10.353,2.0.10.353,10/17/2018,10/17/2018 16:24,12:24:23,2.0.10.248,2,2,1,2,,,,,,,,TrainingProc,BlockList,41,2,Distractor1.bmp,1,0,,0,1,400507,600,,0,0,lime,600,3,600,,horizontal,lime,Distractor2.bmp,purple,Distractor2.bmp,cyan,Distractor2.bmp,red,Target2.bmp,blue,Distractor1.bmp,yellow,Distractor1.bmp,,,,TrialProc,6,TrainingTrialList,0,2,-999999,0,401107,0,1,11565,412672,Target2.bmp,red,2,,,,10,3,41
KW_Experiment5A,23,1,"<?xml version=""1.0""?>\n<Clock xmlns:dt=""urn:schemas-microsoft-com:datatypes""><Description dt:dt=""string"">E-Prime Primary Realtime Clock</Description><StartTime><Timestamp dt:dt=""int"">0</Timestamp><DateUtc dt:dt=""string"">2018-10-17T16:24:23Z</DateUtc></StartTime><FrequencyChanges><FrequencyChange><Frequency dt:dt=""r8"">3215292</Frequency><Timestamp dt:dt=""r8"">5841105867149</Timestamp><Current dt:dt=""r8"">0</Current><DateUtc dt:dt=""string"">2018-10-17T16:24:23Z</DateUtc></FrequencyChange></FrequencyChanges></Clock>\n",KW_Experiment5A-23-1,59.946,1.0.0.105,2,-49029577,Professional,2.0.10.353,2.0.10.353,10/17/2018,10/17/2018 16:24,12:24:23,2.0.10.248,2,2,1,2,,,,,,,,TrainingProc,BlockList,42,1,Distractor2.bmp,2,0,,0,1,413685,601,,0,0,purple,600,3,600,,vertical,purple,Distractor2.bmp,cyan,Distractor1.bmp,blue,Distractor2.bmp,yellow,Distractor1.bmp,lime,Distractor1.bmp,red,Target1.bmp,,,,TrialProc,5,TrainingTrialList,0,1,-999999,1,414286,0,2,1354,415640,Target1.bmp,red,1,,,,12,3,42
KW_Experiment5A,23,1,"<?xml version=""1.0""?>\n<Clock xmlns:dt=""urn:schemas-microsoft-com:datatypes""><Description dt:dt=""string"">E-Prime Primary Realtime Clock</Description><StartTime><Timestamp dt:dt=""int"">0</Timestamp><DateUtc dt:dt=""string"">2018-10-17T16:24:23Z</DateUtc></StartTime><FrequencyChanges><FrequencyChange><Frequency dt:dt=""r8"">3215292</Frequency><Timestamp dt:dt=""r8"">5841105867149</Timestamp><Current dt:dt=""r8"">0</Current><DateUtc dt:dt=""string"">2018-10-17T16:24:23Z</DateUtc></FrequencyChange></FrequencyChanges></Clock>\n",KW_Experiment5A-23-1,59.946,1.0.0.105,2,-49029577,Professional,2.0.10.353,2.0.10.353,10/17/2018,10/17/2018 16:24,12:24:23,2.0.10.248,2,2,1,2,,,,,,,,TrainingProc,BlockList,43,1,Distractor2.bmp,2,0,,0,1,416655,600,,0,0,yellow,600,3,600,2,vertical,lime,Target1.bmp,yellow,Distractor2.bmp,purple,Distractor2.bmp,cyan,Distractor1.bmp,red,Distractor1.bmp,blue,Distractor1.bmp,,,,TrialProc,,TrainingTrialList,1,1,-999999,0,417255,0,1,9448,426703,Target1.bmp,lime,1,,,,1,3,43
KW_Experiment5A,23,1,"<?xml version=""1.0""?>\n<Clock xmlns:dt=""urn:schemas-microsoft-com:datatypes""><Description dt:dt=""string"">E-Prime Primary Realtime Clock</Description><StartTime><Timestamp dt:dt=""int"">0</Timestamp><DateUtc dt:dt=""string"">2018-10-17T16:24:23Z</DateUtc></StartTime><FrequencyChanges><FrequencyChange><Frequency dt:dt=""r8"">3215292</Frequency><Timestamp dt:dt=""r8"">5841105867149</Timestamp><Current dt:dt=""r8"">0</Current><DateUtc dt:dt=""string"">2018-10-17T16:24:23Z</DateUtc></FrequencyChange></FrequencyChanges></Clock>\n",KW_Experiment5A-23-1,59.946,1.0.0.105,2,-49029577,Professional,2.0.10.353,2.0.10.353,10/17/2018,10/17/2018 16:24,12:24:23,2.0.10.248,2,2,1,2,,,,,,,,TrainingProc,BlockList,44,2,Distractor2.bmp,2,0,,0,1,427731,501,,0,0,purple,500,2,500,,horizontal,purple,Distractor1.bmp,blue,Distractor1.bmp,red,Target2.bmp,lime,Distractor2.bmp,yellow,Distractor2.bmp,cyan,Distractor2.bmp,,,,TrialProc,5,TrainingTrialList,1,2,-999999,1,428232,0,2,1927,430159,Target2.bmp,red,2,,,,9,3,44
KW_Experiment5A,23,1,"<?xml version=""1.0""?>\n<Clock xmlns:dt=""urn:schemas-microsoft-com:datatypes""><Description dt:dt=""string"">E-Prime Primary Realtime Clock</Description><StartTime><Timestamp dt:dt=""int"">0</Timestamp><DateUtc dt:dt=""string"">2018-10-17T16:24:23Z</DateUtc></StartTime><FrequencyChanges><FrequencyChange><Frequency dt:dt=""r8"">3215292</Frequency><Timestamp dt:dt=""r8"">5841105867149</Timestamp><Current dt:dt=""r8"">0</Current><DateUtc dt:dt=""string"">2018-10-17T16:24:23Z</DateUtc></FrequencyChange></FrequencyChanges></Clock>\n",KW_Experiment5A-23-1,59.946,1.0.0.105,2,-49029577,Professional,2.0.10.353,2.0.10.353,10/17/2018,10/17/2018 16:24,12:24:23,2.0.10.248,2,2,1,2,,,,,,,,TrainingProc,BlockList,45,2,Distractor1.bmp,1,0,,0,1,431185,400,,0,0,lime,400,1,400,,horizontal,lime,Distractor1.bmp,cyan,Distractor2.bmp,red,Target2.bmp,blue,Distractor1.bmp,yellow,Distractor1.bmp,purple,Distractor1.bmp,,,,TrialProc,6,TrainingTrialList,1,2,-999999,0,431585,0,2,414,431999,Target2.bmp,red,2,,,,9,3,45
KW_Experiment5A,23,1,"<?xml version=""1.0""?>\n<Clock xmlns:dt=""urn:schemas-microsoft-com:datatypes""><Description dt:dt=""string"">E-Prime Primary Realtime Clock</Description><StartTime><Timestamp dt:dt=""int"">0</Timestamp><DateUtc dt:dt=""string"">2018-10-17T16:24:23Z</DateUtc></StartTime><FrequencyChanges><FrequencyChange><Frequency dt:dt=""r8"">3215292</Frequency><Timestamp dt:dt=""r8"">5841105867149</Timestamp><Current dt:dt=""r8"">0</Current><DateUtc dt:dt=""string"">2018-10-17T16:24:23Z</DateUtc></FrequencyChange></FrequencyChanges></Clock>\n",KW_Experiment5A-23-1,59.946,1.0.0.105,2,-49029577,Professional,2.0.10.353,2.0.10.353,10/17/2018,10/17/2018 16:24,12:24:23,2.0.10.248,2,2,1,2,,,,,,,,TrainingProc,BlockList,46,1,Distractor2.bmp,2,0,,0,1,433020,500,,0,0,cyan,500,2,500,,vertical,cyan,Distractor2.bmp,red,Target1.bmp,purple,Distractor2.bmp,lime,Distractor2.bmp,yellow,Distractor2.bmp,blue,Distractor1.bmp,,,,TrialProc,4,TrainingTrialList,0,1,-999999,0,433520,0,2,1503,435023,Target1.bmp,red,1,,,,8,3,46
KW_Experiment5A,23,1,"<?xml version=""1.0""?>\n<Clock xmlns:dt=""urn:schemas-microsoft-com:datatypes""><Description dt:dt=""string"">E-Prime Primary Realtime Clock</Description><StartTime><Timestamp dt:dt=""int"">0</Timestamp><DateUtc dt:dt=""string"">2018-10-17T16:24:23Z</DateUtc></StartTime><FrequencyChanges><FrequencyChange><Frequency dt:dt=""r8"">3215292</Frequency><Timestamp dt:dt=""r8"">5841105867149</Timestamp><Current dt:dt=""r8"">0</Current><DateUtc dt:dt=""string"">2018-10-17T16:24:23Z</DateUtc></FrequencyChange></FrequencyChanges></Clock>\n",KW_Experiment5A-23-1,59.946,1.0.0.105,2,-49029577,Professional,2.0.10.353,2.0.10.353,10/17/2018,10/17/2018 16:24,12:24:23,2.0.10.248,2,2,1,2,,,,,,,,TrainingProc,BlockList,47,2,Distractor1.bmp,1,0,,0,1,436039,500,,0,0,cyan,500,2,500,4,horizontal,cyan,Distractor1.bmp,red,Distractor2.bmp,yellow,Distractor2.bmp,blue,Distractor2.bmp,purple,Distractor2.bmp,lime,Target2.bmp,,,,TrialProc,,TrainingTrialList,1,2,-999999,0,436539,0,2,860,437399,Target2.bmp,lime,2,,,,6,3,47
KW_Experiment5A,23,1,"<?xml version=""1.0""?>\n<Clock xmlns:dt=""urn:schemas-microsoft-com:datatypes""><Description dt:dt=""string"">E-Prime Primary Realtime Clock</Description><StartTime><Timestamp dt:dt=""int"">0</Timestamp><DateUtc dt:dt=""string"">2018-10-17T16:24:23Z</DateUtc></StartTime><FrequencyChanges><FrequencyChange><Frequency dt:dt=""r8"">3215292</Frequency><Timestamp dt:dt=""r8"">5841105867149</Timestamp><Current dt:dt=""r8"">0</Current><DateUtc dt:dt=""string"">2018-10-17T16:24:23Z</DateUtc></FrequencyChange></FrequencyChanges></Clock>\n",KW_Experiment5A-23-1,59.946,1.0.0.105,2,-49029577,Professional,2.0.10.353,2.0.10.353,10/17/2018,10/17/2018 16:24,12:24:23,2.0.10.248,2,2,1,2,,,,,,,,TrainingProc,BlockList,48,1,Distractor2.bmp,2,0,,1,0,438424,401,,0,0,purple,400,1,400,5,vertical,purple,Distractor1.bmp,lime,Target1.bmp,yellow,Distractor2.bmp,cyan,Distractor2.bmp,red,Distractor1.bmp,blue,Distractor2.bmp,,,,TrialProc,,TrainingTrialList,0,1,-999999,1,438825,0,2,974,439799,Target1.bmp,lime,1,,,,2,3,48
KW_Experiment5A,23,1,"<?xml version=""1.0""?>\n<Clock xmlns:dt=""urn:schemas-microsoft-com:datatypes""><Description dt:dt=""string"">E-Prime Primary Realtime Clock</Description><StartTime><Timestamp dt:dt=""int"">0</Timestamp><DateUtc dt:dt=""string"">2018-10-17T16:24:23Z</DateUtc></StartTime><FrequencyChanges><FrequencyChange><Frequency dt:dt=""r8"">3215292</Frequency><Timestamp dt:dt=""r8"">5841105867149</Timestamp><Current dt:dt=""r8"">0</Current><DateUtc dt:dt=""string"">2018-10-17T16:24:23Z</DateUtc></FrequencyChange></FrequencyChanges></Clock>\n",KW_Experiment5A-23-1,59.946,1.0.0.105,2,-49029577,Professional,2.0.10.353,2.0.10.353,10/17/2018,10/17/2018 16:24,12:24:23,2.0.10.248,3,2,1,3,,,,,,,,TrainingProc,BlockList,1,1,Distractor2.bmp,2,0,,0,11,442578,501,,0,0,lime,500,2,500,,vertical,red,Target1.bmp,yellow,Distractor2.bmp,blue,Distractor1.bmp,cyan,Distractor2.bmp,purple,Distractor1.bmp,lime,Distractor2.bmp,,,,TrialProc,6,TrainingTrialList,0,1,-999999,1,443079,0,2,232,443311,Target1.bmp,red,1,,,,7,4,49
KW_Experiment5A,23,1,"<?xml version=""1.0""?>\n<Clock xmlns:dt=""urn:schemas-microsoft-com:datatypes""><Description dt:dt=""string"">E-Prime Primary Realtime Clock</Description><StartTime><Timestamp dt:dt=""int"">0</Timestamp><DateUtc dt:dt=""string"">2018-10-17T16:24:23Z</DateUtc></StartTime><FrequencyChanges><FrequencyChange><Frequency dt:dt=""r8"">3215292</Frequency><Timestamp dt:dt=""r8"">5841105867149</Timestamp><Current dt:dt=""r8"">0</Current><DateUtc dt:dt=""string"">2018-10-17T16:24:23Z</DateUtc></FrequencyChange></FrequencyChanges></Clock>\n",KW_Experiment5A-23-1,59.946,1.0.0.105,2,-49029577,Professional,2.0.10.353,2.0.10.353,10/17/2018,10/17/2018 16:24,12:24:23,2.0.10.248,3,2,1,3,,,,,,,,TrainingProc,BlockList,2,2,Distractor2.bmp,2,0,,0,1,444330,400,,0,0,blue,400,1,400,,horizontal,blue,Distractor1.bmp,purple,Distractor2.bmp,yellow,Distractor2.bmp,lime,Distractor1.bmp,red,Target2.bmp,cyan,Distractor2.bmp,,,,TrialProc,3,TrainingTrialList,0,2,-999999,0,444730,0,1,5,444735,Target2.bmp,red,2,,,,11,4,50
KW_Experiment5A,23,1,"<?xml version=""1.0""?>\n<Clock xmlns:dt=""urn:schemas-microsoft-com:datatypes""><Description dt:dt=""string"">E-Prime Primary Realtime Clock</Description><StartTime><Timestamp dt:dt=""int"">0</Timestamp><DateUtc dt:dt=""string"">2018-10-17T16:24:23Z</DateUtc></StartTime><FrequencyChanges><FrequencyChange><Frequency dt:dt=""r8"">3215292</Frequency><Timestamp dt:dt=""r8"">5841105867149</Timestamp><Current dt:dt=""r8"">0</Current><DateUtc dt:dt=""string"">2018-10-17T16:24:23Z</DateUtc></FrequencyChange></FrequencyChanges></Clock>\n",KW_Experiment5A-23-1,59.946,1.0.0.105,2,-49029577,Professional,2.0.10.353,2.0.10.353,10/17/2018,10/17/2018 16:24,12:24:23,2.0.10.248,3,2,1,3,,,,,,,,TrainingProc,BlockList,3,1,Distractor1.bmp,1,0,,0,1,445748,400,,0,0,purple,400,1,400,5,vertical,lime,Target1.bmp,purple,Distractor1.bmp,yellow,Distractor1.bmp,cyan,Distractor2.bmp,blue,Distractor2.bmp,red,Distractor2.bmp,,,,TrialProc,,TrainingTrialList,0,1,-999999,0,446148,0,2,211,446359,Target1.bmp,lime,1,,,,1,4,51
KW_Experiment5A,23,1,"<?xml version=""1.0""?>\n<Clock xmlns:dt=""urn:schemas-microsoft-com:datatypes""><Description dt:dt=""string"">E-Prime Primary Realtime Clock</Description><StartTime><Timestamp dt:dt=""int"">0</Timestamp><DateUtc dt:dt=""string"">2018-10-17T16:24:23Z</DateUtc></StartTime><FrequencyChanges><FrequencyChange><Frequency dt:dt=""r8"">3215292</Frequency><Timestamp dt:dt=""r8"">5841105867149</Timestamp><Current dt:dt=""r8"">0</Current><DateUtc dt:dt=""string"">2018-10-17T16:24:23Z</DateUtc></FrequencyChange></FrequencyChanges></Clock>\n",KW_Experiment5A-23-1,59.946,1.0.0.105,2,-49029577,Professional,2.0.10.353,2.0.10.353,10/17/2018,10/17/2018 16:24,12:24:23,2.0.10.248,3,2,1,3,,,,,,,,TrainingProc,BlockList,4,2,Distractor1.bmp,1,0,,0,1,447383,600,,0,0,purple,600,3,600,5,horizontal,purple,Distractor2.bmp,yellow,Distractor1.bmp,lime,Target2.bmp,cyan,Distractor1.bmp,red,Distractor1.bmp,blue,Distractor1.bmp,,,,TrialProc,,TrainingTrialList,0,2,-999999,0,447983,0,1,40,448023,Target2.bmp,lime,2,,,,3,4,52
KW_Experiment5A,23,1,"<?xml version=""1.0""?>\n<Clock xmlns:dt=""urn:schemas-microsoft-com:datatypes""><Description dt:dt=""string"">E-Prime Primary Realtime Clock</Description><StartTime><Timestamp dt:dt=""int"">0</Timestamp><DateUtc dt:dt=""string"">2018-10-17T16:24:23Z</DateUtc></StartTime><FrequencyChanges><FrequencyChange><Frequency dt:dt=""r8"">3215292</Frequency><Timestamp dt:dt=""r8"">5841105867149</Timestamp><Current dt:dt=""r8"">0</Current><DateUtc dt:dt=""string"">2018-10-17T16:24:23Z</DateUtc></FrequencyChange></FrequencyChanges></Clock>\n",KW_Experiment5A-23-1,59.946,1.0.0.105,2,-49029577,Professional,2.0.10.353,2.0.10.353,10/17/2018,10/17/2018 16:24,12:24:23,2.0.10.248,3,2,1,3,,,,,,,,TrainingProc,BlockList,5,2,Distractor1.bmp,1,0,,0,1,449034,601,,0,0,cyan,600,3,600,,horizontal,cyan,Distractor1.bmp,red,Target2.bmp,blue,Distractor1.bmp,yellow,Distractor2.bmp,purple,Distractor2.bmp,lime,Distractor1.bmp,,,,TrialProc,4,TrainingTrialList,1,2,-999999,1,449635,0,2,172,449807,Target2.bmp,red,2,,,,8,4,53
KW_Experiment5A,23,1,"<?xml version=""1.0""?>\n<Clock xmlns:dt=""urn:schemas-microsoft-com:datatypes""><Description dt:dt=""string"">E-Prime Primary Realtime Clock</Description><StartTime><Timestamp dt:dt=""int"">0</Timestamp><DateUtc dt:dt=""string"">2018-10-17T16:24:23Z</DateUtc></StartTime><FrequencyChanges><FrequencyChange><Frequency dt:dt=""r8"">3215292</Frequency><Timestamp dt:dt=""r8"">5841105867149</Timestamp><Current dt:dt=""r8"">0</Current><DateUtc dt:dt=""string"">2018-10-17T16:24:23Z</DateUtc></FrequencyChange></FrequencyChanges></Clock>\n",KW_Experiment5A-23-1,59.946,1.0.0.105,2,-49029577,Professional,2.0.10.353,2.0.10.353,10/17/2018,10/17/2018 16:24,12:24:23,2.0.10.248,3,2,1,3,,,,,,,,TrainingProc,BlockList,6,2,Distractor2.bmp,2,0,,0,1,450819,601,,0,0,cyan,600,3,600,4,horizontal,cyan,Distractor1.bmp,red,Distractor2.bmp,purple,Distractor1.bmp,lime,Target2.bmp,yellow,Distractor2.bmp,blue,Distractor2.bmp,,,,TrialProc,,TrainingTrialList,1,2,-999999,1,451420,0,2,115,451535,Target2.bmp,lime,2,,,,4,4,54
KW_Experiment5A,23,1,"<?xml version=""1.0""?>\n<Clock xmlns:dt=""urn:schemas-microsoft-com:datatypes""><Description dt:dt=""string"">E-Prime Primary Realtime Clock</Description><StartTime><Timestamp dt:dt=""int"">0</Timestamp><DateUtc dt:dt=""string"">2018-10-17T16:24:23Z</DateUtc></StartTime><FrequencyChanges><FrequencyChange><Frequency dt:dt=""r8"">3215292</Frequency><Timestamp dt:dt=""r8"">5841105867149</Timestamp><Current dt:dt=""r8"">0</Current><DateUtc dt:dt=""string"">2018-10-17T16:24:23Z</DateUtc></FrequencyChange></FrequencyChanges></Clock>\n",KW_Experiment5A-23-1,59.946,1.0.0.105,2,-49029577,Professional,2.0.10.353,2.0.10.353,10/17/2018,10/17/2018 16:24,12:24:23,2.0.10.248,3,2,1,3,,,,,,,,TrainingProc,BlockList,7,2,Distractor2.bmp,2,0,,0,1,452554,500,,0,0,lime,500,2,500,,horizontal,lime,Distractor2.bmp,yellow,Distractor2.bmp,blue,Distractor1.bmp,red,Target2.bmp,cyan,Distractor2.bmp,purple,Distractor2.bmp,,,,TrialProc,6,TrainingTrialList,1,2,-999999,0,453054,0,2,305,453359,Target2.bmp,red,2,,,,10,4,55
KW_Experiment5A,23,1,"<?xml version=""1.0""?>\n<Clock xmlns:dt=""urn:schemas-microsoft-com:datatypes""><Description dt:dt=""string"">E-Prime Primary Realtime Clock</Description><StartTime><Timestamp dt:dt=""int"">0</Timestamp><DateUtc dt:dt=""string"">2018-10-17T16:24:23Z</DateUtc></StartTime><FrequencyChanges><FrequencyChange><Frequency dt:dt=""r8"">3215292</Frequency><Timestamp dt:dt=""r8"">5841105867149</Timestamp><Current dt:dt=""r8"">0</Current><DateUtc dt:dt=""string"">2018-10-17T16:24:23Z</DateUtc></FrequencyChange></FrequencyChanges></Clock>\n",KW_Experiment5A-23-1,59.946,1.0.0.105,2,-49029577,Professional,2.0.10.353,2.0.10.353,10/17/2018,10/17/2018 16:24,12:24:23,2.0.10.248,3,2,1,3,,,,,,,,TrainingProc,BlockList,8,1,Distractor1.bmp,1,0,,0,1,454372,601,,0,0,purple,600,3,600,,vertical,purple,Distractor2.bmp,lime,Distractor1.bmp,red,Target1.bmp,cyan,Distractor1.bmp,yellow,Distractor1.bmp,blue,Distractor2.bmp,,,,TrialProc,5,TrainingTrialList,0,1,-999999,1,454973,0,2,186,455159,Target1.bmp,red,1,,,,9,4,56
KW_Experiment5A,23,1,"<?xml version=""1.0""?>\n<Clock xmlns:dt=""urn:schemas-microsoft-com:datatypes""><Description dt:dt=""string"">E-Prime Primary Realtime Clock</Description><StartTime><Timestamp dt:dt=""int"">0</Timestamp><DateUtc dt:dt=""string"">2018-10-17T16:24:23Z</DateUtc></StartTime><FrequencyChanges><FrequencyChange><Frequency dt:dt=""r8"">3215292</Frequency><Timestamp dt:dt=""r8"">5841105867149</Timestamp><Current dt:dt=""r8"">0</Current><DateUtc dt:dt=""string"">2018-10-17T16:24:23Z</DateUtc></FrequencyChange></FrequencyChanges></Clock>\n",KW_Experiment5A-23-1,59.946,1.0.0.105,2,-49029577,Professional,2.0.10.353,2.0.10.353,10/17/2018,10/17/2018 16:24,12:24:23,2.0.10.248,3,2,1,3,,,,,,,,TrainingProc,BlockList,9,1,Distractor1.bmp,1,0,,0,1,456174,400,,0,0,purple,400,1,400,,vertical,purple,Distractor1.bmp,blue,Distractor1.bmp,cyan,Distractor2.bmp,yellow,Distractor2.bmp,lime,Distractor1.bmp,red,Target1.bmp,,,,TrialProc,5,TrainingTrialList,1,1,-999999,0,456574,0,1,89,456663,Target1.bmp,red,1,,,,12,4,57
KW_Experiment5A,23,1,"<?xml version=""1.0""?>\n<Clock xmlns:dt=""urn:schemas-microsoft-com:datatypes""><Description dt:dt=""string"">E-Prime Primary Realtime Clock</Description><StartTime><Timestamp dt:dt=""int"">0</Timestamp><DateUtc dt:dt=""string"">2018-10-17T16:24:23Z</DateUtc></StartTime><FrequencyChanges><FrequencyChange><Frequency dt:dt=""r8"">3215292</Frequency><Timestamp dt:dt=""r8"">5841105867149</Timestamp><Current dt:dt=""r8"">0</Current><DateUtc dt:dt=""string"">2018-10-17T16:24:23Z</DateUtc></FrequencyChange></FrequencyChanges></Clock>\n",KW_Experiment5A-23-1,59.946,1.0.0.105,2,-49029577,Professional,2.0.10.353,2.0.10.353,10/17/2018,10/17/2018 16:24,12:24:23,2.0.10.248,3,2,1,3,,,,,,,,TrainingProc,BlockList,10,1,Distractor2.bmp,2,0,,0,1,457675,501,,0,0,cyan,500,2,500,4,vertical,cyan,Distractor1.bmp,purple,Distractor1.bmp,yellow,Distractor2.bmp,blue,Distractor2.bmp,lime,Target1.bmp,red,Distractor2.bmp,,,,TrialProc,,TrainingTrialList,1,1,-999999,1,458176,0,1,287,458463,Target1.bmp,lime,1,,,,5,4,58
KW_Experiment5A,23,1,"<?xml version=""1.0""?>\n<Clock xmlns:dt=""urn:schemas-microsoft-com:datatypes""><Description dt:dt=""string"">E-Prime Primary Realtime Clock</Description><StartTime><Timestamp dt:dt=""int"">0</Timestamp><DateUtc dt:dt=""string"">2018-10-17T16:24:23Z</DateUtc></StartTime><FrequencyChanges><FrequencyChange><Frequency dt:dt=""r8"">3215292</Frequency><Timestamp dt:dt=""r8"">5841105867149</Timestamp><Current dt:dt=""r8"">0</Current><DateUtc dt:dt=""string"">2018-10-17T16:24:23Z</DateUtc></FrequencyChange></FrequencyChanges></Clock>\n",KW_Experiment5A-23-1,59.946,1.0.0.105,2,-49029577,Professional,2.0.10.353,2.0.10.353,10/17/2018,10/17/2018 16:24,12:24:23,2.0.10.248,3,2,1,3,,,,,,,,TrainingProc,BlockList,11,2,Distractor1.bmp,1,0,,0,1,459477,500,,0,0,blue,500,2,500,,horizontal,red,Target2.bmp,cyan,Distractor1.bmp,lime,Distractor1.bmp,yellow,Distractor1.bmp,purple,Distractor2.bmp,blue,Distractor1.bmp,,,,TrialProc,3,TrainingTrialList,0,2,-999999,0,459977,0,1,150,460127,Target2.bmp,red,2,,,,7,4,59
KW_Experiment5A,23,1,"<?xml version=""1.0""?>\n<Clock xmlns:dt=""urn:schemas-microsoft-com:datatypes""><Description dt:dt=""string"">E-Prime Primary Realtime Clock</Description><StartTime><Timestamp dt:dt=""int"">0</Timestamp><DateUtc dt:dt=""string"">2018-10-17T16:24:23Z</DateUtc></StartTime><FrequencyChanges><FrequencyChange><Frequency dt:dt=""r8"">3215292</Frequency><Timestamp dt:dt=""r8"">5841105867149</Timestamp><Current dt:dt=""r8"">0</Current><DateUtc dt:dt=""string"">2018-10-17T16:24:23Z</DateUtc></FrequencyChange></FrequencyChanges></Clock>\n",KW_Experiment5A-23-1,59.946,1.0.0.105,2,-49029577,Professional,2.0.10.353,2.0.10.353,10/17/2018,10/17/2018 16:24,12:24:23,2.0.10.248,3,2,1,3,,,,,,,,TrainingProc,BlockList,12,1,Distractor1.bmp,1,0,,0,1,461145,501,,0,0,blue,500,2,500,,vertical,blue,Distractor2.bmp,red,Target1.bmp,lime,Distractor1.bmp,yellow,Distractor1.bmp,purple,Distractor2.bmp,cyan,Distractor1.bmp,,,,TrialProc,3,TrainingTrialList,0,1,-999999,1,461646,0,2,233,461879,Target1.bmp,red,1,,,,8,4,60
KW_Experiment5A,23,1,"<?xml version=""1.0""?>\n<Clock xmlns:dt=""urn:schemas-microsoft-com:datatypes""><Description dt:dt=""string"">E-Prime Primary Realtime Clock</Description><StartTime><Timestamp dt:dt=""int"">0</Timestamp><DateUtc dt:dt=""string"">2018-10-17T16:24:23Z</DateUtc></StartTime><FrequencyChanges><FrequencyChange><Frequency dt:dt=""r8"">3215292</Frequency><Timestamp dt:dt=""r8"">5841105867149</Timestamp><Current dt:dt=""r8"">0</Current><DateUtc dt:dt=""string"">2018-10-17T16:24:23Z</DateUtc></FrequencyChange></FrequencyChanges></Clock>\n",KW_Experiment5A-23-1,59.946,1.0.0.105,2,-49029577,Professional,2.0.10.353,2.0.10.353,10/17/2018,10/17/2018 16:24,12:24:23,2.0.10.248,3,2,1,3,,,,,,,,TrainingProc,BlockList,13,1,Distractor1.bmp,1,0,,0,1,462897,600,,0,0,cyan,600,3,600,,vertical,cyan,Distractor1.bmp,yellow,Distractor2.bmp,blue,Distractor2.bmp,lime,Distractor1.bmp,red,Target1.bmp,purple,Distractor1.bmp,,,,TrialProc,4,TrainingTrialList,0,1,-999999,0,463497,0,2,133,463630,Target1.bmp,red,1,,,,11,4,61
KW_Experiment5A,23,1,"<?xml version=""1.0""?>\n<Clock xmlns:dt=""urn:schemas-microsoft-com:datatypes""><Description dt:dt=""string"">E-Prime Primary Realtime Clock</Description><StartTime><Timestamp dt:dt=""int"">0</Timestamp><DateUtc dt:dt=""string"">2018-10-17T16:24:23Z</DateUtc></StartTime><FrequencyChanges><FrequencyChange><Frequency dt:dt=""r8"">3215292</Frequency><Timestamp dt:dt=""r8"">5841105867149</Timestamp><Current dt:dt=""r8"">0</Current><DateUtc dt:dt=""string"">2018-10-17T16:24:23Z</DateUtc></FrequencyChange></FrequencyChanges></Clock>\n",KW_Experiment5A-23-1,59.946,1.0.0.105,2,-49029577,Professional,2.0.10.353,2.0.10.353,10/17/2018,10/17/2018 16:24,12:24:23,2.0.10.248,3,2,1,3,,,,,,,,TrainingProc,BlockList,14,1,Distractor2.bmp,2,0,,0,1,464648,601,,0,0,yellow,600,3,600,,vertical,yellow,Distractor1.bmp,cyan,Distractor2.bmp,red,Target1.bmp,purple,Distractor2.bmp,lime,Distractor2.bmp,blue,Distractor1.bmp,,,,TrialProc,2,TrainingTrialList,0,1,-999999,1,465249,0,2,101,465350,Target1.bmp,red,1,,,,9,4,62
KW_Experiment5A,23,1,"<?xml version=""1.0""?>\n<Clock xmlns:dt=""urn:schemas-microsoft-com:datatypes""><Description dt:dt=""string"">E-Prime Primary Realtime Clock</Description><StartTime><Timestamp dt:dt=""int"">0</Timestamp><DateUtc dt:dt=""string"">2018-10-17T16:24:23Z</DateUtc></StartTime><FrequencyChanges><FrequencyChange><Frequency dt:dt=""r8"">3215292</Frequency><Timestamp dt:dt=""r8"">5841105867149</Timestamp><Current dt:dt=""r8"">0</Current><DateUtc dt:dt=""string"">2018-10-17T16:24:23Z</DateUtc></FrequencyChange></FrequencyChanges></Clock>\n",KW_Experiment5A-23-1,59.946,1.0.0.105,2,-49029577,Professional,2.0.10.353,2.0.10.353,10/17/2018,10/17/2018 16:24,12:24:23,2.0.10.248,3,2,1,3,,,,,,,,TrainingProc,BlockList,15,1,Distractor1.bmp,1,0,,0,1,466367,600,,0,0,blue,600,3,600,,vertical,blue,Distractor1.bmp,lime,Distractor1.bmp,purple,Distractor2.bmp,red,Target1.bmp,yellow,Distractor1.bmp,cyan,Distractor2.bmp,,,,TrialProc,3,TrainingTrialList,1,1,-999999,0,466967,0,1,143,467110,Target1.bmp,red,1,,,,10,4,63
KW_Experiment5A,23,1,"<?xml version=""1.0""?>\n<Clock xmlns:dt=""urn:schemas-microsoft-com:datatypes""><Description dt:dt=""string"">E-Prime Primary Realtime Clock</Description><StartTime><Timestamp dt:dt=""int"">0</Timestamp><DateUtc dt:dt=""string"">2018-10-17T16:24:23Z</DateUtc></StartTime><FrequencyChanges><FrequencyChange><Frequency dt:dt=""r8"">3215292</Frequency><Timestamp dt:dt=""r8"">5841105867149</Timestamp><Current dt:dt=""r8"">0</Current><DateUtc dt:dt=""string"">2018-10-17T16:24:23Z</DateUtc></FrequencyChange></FrequencyChanges></Clock>\n",KW_Experiment5A-23-1,59.946,1.0.0.105,2,-49029577,Professional,2.0.10.353,2.0.10.353,10/17/2018,10/17/2018 16:24,12:24:23,2.0.10.248,3,2,1,3,,,,,,,,TrainingProc,BlockList,16,2,Distractor1.bmp,1,0,,0,1,468135,400,,0,0,blue,400,1,400,,horizontal,blue,Distractor2.bmp,yellow,Distractor1.bmp,lime,Distractor1.bmp,purple,Distractor1.bmp,red,Target2.bmp,cyan,Distractor1.bmp,,,,TrialProc,3,TrainingTrialList,0,2,-999999,0,468535,0,1,367,468902,Target2.bmp,red,2,,,,11,4,64
KW_Experiment5A,23,1,"<?xml version=""1.0""?>\n<Clock xmlns:dt=""urn:schemas-microsoft-com:datatypes""><Description dt:dt=""string"">E-Prime Primary Realtime Clock</Description><StartTime><Timestamp dt:dt=""int"">0</Timestamp><DateUtc dt:dt=""string"">2018-10-17T16:24:23Z</DateUtc></StartTime><FrequencyChanges><FrequencyChange><Frequency dt:dt=""r8"">3215292</Frequency><Timestamp dt:dt=""r8"">5841105867149</Timestamp><Current dt:dt=""r8"">0</Current><DateUtc dt:dt=""string"">2018-10-17T16:24:23Z</DateUtc></FrequencyChange></FrequencyChanges></Clock>\n",KW_Experiment5A-23-1,59.946,1.0.0.105,2,-49029577,Professional,2.0.10.353,2.0.10.353,10/17/2018,10/17/2018 16:24,12:24:23,2.0.10.248,3,2,1,3,,,,,,,,TrainingProc,BlockList,17,2,Distractor2.bmp,2,0,,0,1,469920,500,,0,0,yellow,500,2,500,,horizontal,yellow,Distractor2.bmp,red,Target2.bmp,blue,Distractor2.bmp,cyan,Distractor2.bmp,lime,Distractor2.bmp,purple,Distractor2.bmp,,,,TrialProc,2,TrainingTrialList,1,2,-999999,0,470420,0,2,146,470566,Target2.bmp,red,2,,,,8,4,65
KW_Experiment5A,23,1,"<?xml version=""1.0""?>\n<Clock xmlns:dt=""urn:schemas-microsoft-com:datatypes""><Description dt:dt=""string"">E-Prime Primary Realtime Clock</Description><StartTime><Timestamp dt:dt=""int"">0</Timestamp><DateUtc dt:dt=""string"">2018-10-17T16:24:23Z</DateUtc></StartTime><FrequencyChanges><FrequencyChange><Frequency dt:dt=""r8"">3215292</Frequency><Timestamp dt:dt=""r8"">5841105867149</Timestamp><Current dt:dt=""r8"">0</Current><DateUtc dt:dt=""string"">2018-10-17T16:24:23Z</DateUtc></FrequencyChange></FrequencyChanges></Clock>\n",KW_Experiment5A-23-1,59.946,1.0.0.105,2,-49029577,Professional,2.0.10.353,2.0.10.353,10/17/2018,10/17/2018 16:24,12:24:23,2.0.10.248,3,2,1,3,,,,,,,,TrainingProc,BlockList,18,2,Distractor2.bmp,2,0,,0,1,471588,600,,0,0,cyan,600,3,600,,horizontal,red,Target2.bmp,blue,Distractor2.bmp,yellow,Distractor1.bmp,purple,Distractor1.bmp,lime,Distractor2.bmp,cyan,Distractor2.bmp,,,,TrialProc,4,TrainingTrialList,0,2,-999999,0,472188,0,1,130,472318,Target2.bmp,red,2,,,,7,4,66
KW_Experiment5A,23,1,"<?xml version=""1.0""?>\n<Clock xmlns:dt=""urn:schemas-microsoft-com:datatypes""><Description dt:dt=""string"">E-Prime Primary Realtime Clock</Description><StartTime><Timestamp dt:dt=""int"">0</Timestamp><DateUtc dt:dt=""string"">2018-10-17T16:24:23Z</DateUtc></StartTime><FrequencyChanges><FrequencyChange><Frequency dt:dt=""r8"">3215292</Frequency><Timestamp dt:dt=""r8"">5841105867149</Timestamp><Current dt:dt=""r8"">0</Current><DateUtc dt:dt=""string"">2018-10-17T16:24:23Z</DateUtc></FrequencyChange></FrequencyChanges></Clock>\n",KW_Experiment5A-23-1,59.946,1.0.0.105,2,-49029577,Professional,2.0.10.353,2.0.10.353,10/17/2018,10/17/2018 16:24,12:24:23,2.0.10.248,3,2,1,3,,,,,,,,TrainingProc,BlockList,19,1,Distractor2.bmp,2,0,,0,1,473340,500,,0,0,yellow,500,2,500,,vertical,yellow,Distractor1.bmp,purple,Distractor2.bmp,red,Target1.bmp,blue,Distractor2.bmp,lime,Distractor2.bmp,cyan,Distractor2.bmp,,,,TrialProc,2,TrainingTrialList,0,1,-999999,0,473840,0,2,30,473870,Target1.bmp,red,1,,,,9,4,67
KW_Experiment5A,23,1,"<?xml version=""1.0""?>\n<Clock xmlns:dt=""urn:schemas-microsoft-com:datatypes""><Description dt:dt=""string"">E-Prime Primary Realtime Clock</Description><StartTime><Timestamp dt:dt=""int"">0</Timestamp><DateUtc dt:dt=""string"">2018-10-17T16:24:23Z</DateUtc></StartTime><FrequencyChanges><FrequencyChange><Frequency dt:dt=""r8"">3215292</Frequency><Timestamp dt:dt=""r8"">5841105867149</Timestamp><Current dt:dt=""r8"">0</Current><DateUtc dt:dt=""string"">2018-10-17T16:24:23Z</DateUtc></FrequencyChange></FrequencyChanges></Clock>\n",KW_Experiment5A-23-1,59.946,1.0.0.105,2,-49029577,Professional,2.0.10.353,2.0.10.353,10/17/2018,10/17/2018 16:24,12:24:23,2.0.10.248,3,2,1,3,,,,,,,,TrainingProc,BlockList,20,1,Distractor1.bmp,1,0,,0,1,474891,400,,0,0,blue,400,1,400,,vertical,blue,Distractor2.bmp,purple,Distractor1.bmp,yellow,Distractor2.bmp,red,Target1.bmp,cyan,Distractor1.bmp,lime,Distractor2.bmp,,,,TrialProc,3,TrainingTrialList,0,1,-999999,0,475291,0,2,443,475734,Target1.bmp,red,1,,,,10,4,68
KW_Experiment5A,23,1,"<?xml version=""1.0""?>\n<Clock xmlns:dt=""urn:schemas-microsoft-com:datatypes""><Description dt:dt=""string"">E-Prime Primary Realtime Clock</Description><StartTime><Timestamp dt:dt=""int"">0</Timestamp><DateUtc dt:dt=""string"">2018-10-17T16:24:23Z</DateUtc></StartTime><FrequencyChanges><FrequencyChange><Frequency dt:dt=""r8"">3215292</Frequency><Timestamp dt:dt=""r8"">5841105867149</Timestamp><Current dt:dt=""r8"">0</Current><DateUtc dt:dt=""string"">2018-10-17T16:24:23Z</DateUtc></FrequencyChange></FrequencyChanges></Clock>\n",KW_Experiment5A-23-1,59.946,1.0.0.105,2,-49029577,Professional,2.0.10.353,2.0.10.353,10/17/2018,10/17/2018 16:24,12:24:23,2.0.10.248,3,2,1,3,,,,,,,,TrainingProc,BlockList,21,2,Distractor2.bmp,2,0,,0,1,476759,401,,0,0,red,400,1,400,1,horizontal,red,Distractor1.bmp,lime,Target2.bmp,blue,Distractor2.bmp,yellow,Distractor2.bmp,cyan,Distractor1.bmp,purple,Distractor1.bmp,,,,TrialProc,,TrainingTrialList,1,2,-999999,1,477160,0,2,326,477486,Target2.bmp,lime,2,,,,2,4,69
KW_Experiment5A,23,1,"<?xml version=""1.0""?>\n<Clock xmlns:dt=""urn:schemas-microsoft-com:datatypes""><Description dt:dt=""string"">E-Prime Primary Realtime Clock</Description><StartTime><Timestamp dt:dt=""int"">0</Timestamp><DateUtc dt:dt=""string"">2018-10-17T16:24:23Z</DateUtc></StartTime><FrequencyChanges><FrequencyChange><Frequency dt:dt=""r8"">3215292</Frequency><Timestamp dt:dt=""r8"">5841105867149</Timestamp><Current dt:dt=""r8"">0</Current><DateUtc dt:dt=""string"">2018-10-17T16:24:23Z</DateUtc></FrequencyChange></FrequencyChanges></Clock>\n",KW_Experiment5A-23-1,59.946,1.0.0.105,2,-49029577,Professional,2.0.10.353,2.0.10.353,10/17/2018,10/17/2018 16:24,12:24:23,2.0.10.248,3,2,1,3,,,,,,,,TrainingProc,BlockList,22,2,Distractor1.bmp,1,0,,0,1,478511,600,,0,0,purple,600,3,600,5,horizontal,purple,Distractor1.bmp,blue,Distractor1.bmp,red,Distractor2.bmp,cyan,Distractor2.bmp,yellow,Distractor2.bmp,lime,Target2.bmp,,,,TrialProc,,TrainingTrialList,0,2,-999999,0,479111,0,1,2023,481134,Target2.bmp,lime,2,,,,6,4,70
KW_Experiment5A,23,1,"<?xml version=""1.0""?>\n<Clock xmlns:dt=""urn:schemas-microsoft-com:datatypes""><Description dt:dt=""string"">E-Prime Primary Realtime Clock</Description><StartTime><Timestamp dt:dt=""int"">0</Timestamp><DateUtc dt:dt=""string"">2018-10-17T16:24:23Z</DateUtc></StartTime><FrequencyChanges><FrequencyChange><Frequency dt:dt=""r8"">3215292</Frequency><Timestamp dt:dt=""r8"">5841105867149</Timestamp><Current dt:dt=""r8"">0</Current><DateUtc dt:dt=""string"">2018-10-17T16:24:23Z</DateUtc></FrequencyChange></FrequencyChanges></Clock>\n",KW_Experiment5A-23-1,59.946,1.0.0.105,2,-49029577,Professional,2.0.10.353,2.0.10.353,10/17/2018,10/17/2018 16:24,12:24:23,2.0.10.248,3,2,1,3,,,,,,,,TrainingProc,BlockList,23,1,Distractor2.bmp,2,0,,0,1,482148,500,,0,0,cyan,500,2,500,,vertical,cyan,Distractor2.bmp,yellow,Distractor1.bmp,purple,Distractor1.bmp,blue,Distractor2.bmp,lime,Distractor2.bmp,red,Target1.bmp,,,,TrialProc,4,TrainingTrialList,0,1,-999999,0,482648,0,2,446,483094,Target1.bmp,red,1,,,,12,4,71
KW_Experiment5A,23,1,"<?xml version=""1.0""?>\n<Clock xmlns:dt=""urn:schemas-microsoft-com:datatypes""><Description dt:dt=""string"">E-Prime Primary Realtime Clock</Description><StartTime><Timestamp dt:dt=""int"">0</Timestamp><DateUtc dt:dt=""string"">2018-10-17T16:24:23Z</DateUtc></StartTime><FrequencyChanges><FrequencyChange><Frequency dt:dt=""r8"">3215292</Frequency><Timestamp dt:dt=""r8"">5841105867149</Timestamp><Current dt:dt=""r8"">0</Current><DateUtc dt:dt=""string"">2018-10-17T16:24:23Z</DateUtc></FrequencyChange></FrequencyChanges></Clock>\n",KW_Experiment5A-23-1,59.946,1.0.0.105,2,-49029577,Professional,2.0.10.353,2.0.10.353,10/17/2018,10/17/2018 16:24,12:24:23,2.0.10.248,3,2,1,3,,,,,,,,TrainingProc,BlockList,24,1,Distractor2.bmp,2,0,,0,1,484116,500,,0,0,purple,500,2,500,,vertical,purple,Distractor2.bmp,lime,Distractor2.bmp,yellow,Distractor1.bmp,blue,Distractor2.bmp,cyan,Distractor2.bmp,red,Target1.bmp,,,,TrialProc,5,TrainingTrialList,0,1,-999999,0,484616,0,2,358,484974,Target1.bmp,red,1,,,,12,4,72
KW_Experiment5A,23,1,"<?xml version=""1.0""?>\n<Clock xmlns:dt=""urn:schemas-microsoft-com:datatypes""><Description dt:dt=""string"">E-Prime Primary Realtime Clock</Description><StartTime><Timestamp dt:dt=""int"">0</Timestamp><DateUtc dt:dt=""string"">2018-10-17T16:24:23Z</DateUtc></StartTime><FrequencyChanges><FrequencyChange><Frequency dt:dt=""r8"">3215292</Frequency><Timestamp dt:dt=""r8"">5841105867149</Timestamp><Current dt:dt=""r8"">0</Current><DateUtc dt:dt=""string"">2018-10-17T16:24:23Z</DateUtc></FrequencyChange></FrequencyChanges></Clock>\n",KW_Experiment5A-23-1,59.946,1.0.0.105,2,-49029577,Professional,2.0.10.353,2.0.10.353,10/17/2018,10/17/2018 16:24,12:24:23,2.0.10.248,3,2,1,3,,,,,,,,TrainingProc,BlockList,25,2,Distractor2.bmp,2,0,,0,1,486001,601,,0,0,yellow,600,3,600,,horizontal,yellow,Distractor2.bmp,red,Target2.bmp,lime,Distractor2.bmp,purple,Distractor2.bmp,cyan,Distractor1.bmp,blue,Distractor1.bmp,,,,TrialProc,2,TrainingTrialList,0,2,-999999,1,486602,0,1,340,486942,Target2.bmp,red,2,,,,8,5,73
KW_Experiment5A,23,1,"<?xml version=""1.0""?>\n<Clock xmlns:dt=""urn:schemas-microsoft-com:datatypes""><Description dt:dt=""string"">E-Prime Primary Realtime Clock</Description><StartTime><Timestamp dt:dt=""int"">0</Timestamp><DateUtc dt:dt=""string"">2018-10-17T16:24:23Z</DateUtc></StartTime><FrequencyChanges><FrequencyChange><Frequency dt:dt=""r8"">3215292</Frequency><Timestamp dt:dt=""r8"">5841105867149</Timestamp><Current dt:dt=""r8"">0</Current><DateUtc dt:dt=""string"">2018-10-17T16:24:23Z</DateUtc></FrequencyChange></FrequencyChanges></Clock>\n",KW_Experiment5A-23-1,59.946,1.0.0.105,2,-49029577,Professional,2.0.10.353,2.0.10.353,10/17/2018,10/17/2018 16:24,12:24:23,2.0.10.248,3,2,1,3,,,,,,,,TrainingProc,BlockList,26,1,Distractor1.bmp,1,0,,0,1,487953,400,,0,0,blue,400,1,400,3,vertical,blue,Distractor1.bmp,purple,Distractor1.bmp,yellow,Distractor1.bmp,cyan,Distractor1.bmp,red,Distractor1.bmp,lime,Target1.bmp,,,,TrialProc,,TrainingTrialList,0,1,-999999,0,488353,0,2,133,488486,Target1.bmp,lime,1,,,,6,5,74
KW_Experiment5A,23,1,"<?xml version=""1.0""?>\n<Clock xmlns:dt=""urn:schemas-microsoft-com:datatypes""><Description dt:dt=""string"">E-Prime Primary Realtime Clock</Description><StartTime><Timestamp dt:dt=""int"">0</Timestamp><DateUtc dt:dt=""string"">2018-10-17T16:24:23Z</DateUtc></StartTime><FrequencyChanges><FrequencyChange><Frequency dt:dt=""r8"">3215292</Frequency><Timestamp dt:dt=""r8"">5841105867149</Timestamp><Current dt:dt=""r8"">0</Current><DateUtc dt:dt=""string"">2018-10-17T16:24:23Z</DateUtc></FrequencyChange></FrequencyChanges></Clock>\n",KW_Experiment5A-23-1,59.946,1.0.0.105,2,-49029577,Professional,2.0.10.353,2.0.10.353,10/17/2018,10/17/2018 16:24,12:24:23,2.0.10.248,3,2,1,3,,,,,,,,TrainingProc,BlockList,27,1,Distractor1.bmp,1,0,,0,1,489504,501,,0,0,cyan,500,2,500,,vertical,cyan,Distractor1.bmp,purple,Distractor1.bmp,blue,Distractor1.bmp,lime,Distractor1.bmp,yellow,Distractor2.bmp,red,Target1.bmp,,,,TrialProc,4,TrainingTrialList,1,1,-999999,1,490005,0,1,249,490254,Target1.bmp,red,1,,,,12,5,75
KW_Experiment5A,23,1,"<?xml version=""1.0""?>\n<Clock xmlns:dt=""urn:schemas-microsoft-com:datatypes""><Description dt:dt=""string"">E-Prime Primary Realtime Clock</Description><StartTime><Timestamp dt:dt=""int"">0</Timestamp><DateUtc dt:dt=""string"">2018-10-17T16:24:23Z</DateUtc></StartTime><FrequencyChanges><FrequencyChange><Frequency dt:dt=""r8"">3215292</Frequency><Timestamp dt:dt=""r8"">5841105867149</Timestamp><Current dt:dt=""r8"">0</Current><DateUtc dt:dt=""string"">2018-10-17T16:24:23Z</DateUtc></FrequencyChange></FrequencyChanges></Clock>\n",KW_Experiment5A-23-1,59.946,1.0.0.105,2,-49029577,Professional,2.0.10.353,2.0.10.353,10/17/2018,10/17/2018 16:24,12:24:23,2.0.10.248,3,2,1,3,,,,,,,,TrainingProc,BlockList,28,2,Distractor1.bmp,1,0,,0,1,491273,500,,0,0,cyan,500,2,500,,horizontal,cyan,Distractor2.bmp,red,Target2.bmp,lime,Distractor1.bmp,purple,Distractor2.bmp,yellow,Distractor2.bmp,blue,Distractor1.bmp,,,,TrialProc,4,TrainingTrialList,0,2,-999999,0,491773,0,1,1001,492774,Target2.bmp,red,2,,,,8,5,76
KW_Experiment5A,23,1,"<?xml version=""1.0""?>\n<Clock xmlns:dt=""urn:schemas-microsoft-com:datatypes""><Description dt:dt=""string"">E-Prime Primary Realtime Clock</Description><StartTime><Timestamp dt:dt=""int"">0</Timestamp><DateUtc dt:dt=""string"">2018-10-17T16:24:23Z</DateUtc></StartTime><FrequencyChanges><FrequencyChange><Frequency dt:dt=""r8"">3215292</Frequency><Timestamp dt:dt=""r8"">5841105867149</Timestamp><Current dt:dt=""r8"">0</Current><DateUtc dt:dt=""string"">2018-10-17T16:24:23Z</DateUtc></FrequencyChange></FrequencyChanges></Clock>\n",KW_Experiment5A-23-1,59.946,1.0.0.105,2,-49029577,Professional,2.0.10.353,2.0.10.353,10/17/2018,10/17/2018 16:24,12:24:23,2.0.10.248,3,2,1,3,,,,,,,,TrainingProc,BlockList,29,2,Distractor1.bmp,1,0,,1,0,493791,401,,0,0,red,400,1,400,1,horizontal,red,Distractor1.bmp,cyan,Distractor1.bmp,purple,Distractor1.bmp,lime,Target2.bmp,blue,Distractor1.bmp,yellow,Distractor1.bmp,,,,TrialProc,,TrainingTrialList,1,2,-999999,1,494192,0,2,278,494470,Target2.bmp,lime,2,,,,4,5,77
KW_Experiment5A,23,1,"<?xml version=""1.0""?>\n<Clock xmlns:dt=""urn:schemas-microsoft-com:datatypes""><Description dt:dt=""string"">E-Prime Primary Realtime Clock</Description><StartTime><Timestamp dt:dt=""int"">0</Timestamp><DateUtc dt:dt=""string"">2018-10-17T16:24:23Z</DateUtc></StartTime><FrequencyChanges><FrequencyChange><Frequency dt:dt=""r8"">3215292</Frequency><Timestamp dt:dt=""r8"">5841105867149</Timestamp><Current dt:dt=""r8"">0</Current><DateUtc dt:dt=""string"">2018-10-17T16:24:23Z</DateUtc></FrequencyChange></FrequencyChanges></Clock>\n",KW_Experiment5A-23-1,59.946,1.0.0.105,2,-49029577,Professional,2.0.10.353,2.0.10.353,10/17/2018,10/17/2018 16:24,12:24:23,2.0.10.248,3,2,1,3,,,,,,,,TrainingProc,BlockList,30,2,Distractor1.bmp,1,0,,0,1,495493,500,,0,0,lime,500,2,500,,horizontal,lime,Distractor2.bmp,blue,Distractor1.bmp,yellow,Distractor1.bmp,red,Target2.bmp,cyan,Distractor1.bmp,purple,Distractor2.bmp,,,,TrialProc,6,TrainingTrialList,1,2,-999999,0,495993,0,2,485,496478,Target2.bmp,red,2,,,,10,5,78
KW_Experiment5A,23,1,"<?xml version=""1.0""?>\n<Clock xmlns:dt=""urn:schemas-microsoft-com:datatypes""><Description dt:dt=""string"">E-Prime Primary Realtime Clock</Description><StartTime><Timestamp dt:dt=""int"">0</Timestamp><DateUtc dt:dt=""string"">2018-10-17T16:24:23Z</DateUtc></StartTime><FrequencyChanges><FrequencyChange><Frequency dt:dt=""r8"">3215292</Frequency><Timestamp dt:dt=""r8"">5841105867149</Timestamp><Current dt:dt=""r8"">0</Current><DateUtc dt:dt=""string"">2018-10-17T16:24:23Z</DateUtc></FrequencyChange></FrequencyChanges></Clock>\n",KW_Experiment5A-23-1,59.946,1.0.0.105,2,-49029577,Professional,2.0.10.353,2.0.10.353,10/17/2018,10/17/2018 16:24,12:24:23,2.0.10.248,3,2,1,3,,,,,,,,TrainingProc,BlockList,31,2,Distractor2.bmp,2,0,,0,1,497495,500,,0,0,red,500,2,500,1,horizontal,red,Distractor2.bmp,lime,Target2.bmp,cyan,Distractor2.bmp,purple,Distractor1.bmp,yellow,Distractor1.bmp,blue,Distractor2.bmp,,,,TrialProc,,TrainingTrialList,1,2,-999999,0,497995,0,2,643,498638,Target2.bmp,lime,2,,,,2,5,79
KW_Experiment5A,23,1,"<?xml version=""1.0""?>\n<Clock xmlns:dt=""urn:schemas-microsoft-com:datatypes""><Description dt:dt=""string"">E-Prime Primary Realtime Clock</Description><StartTime><Timestamp dt:dt=""int"">0</Timestamp><DateUtc dt:dt=""string"">2018-10-17T16:24:23Z</DateUtc></StartTime><FrequencyChanges><FrequencyChange><Frequency dt:dt=""r8"">3215292</Frequency><Timestamp dt:dt=""r8"">5841105867149</Timestamp><Current dt:dt=""r8"">0</Current><DateUtc dt:dt=""string"">2018-10-17T16:24:23Z</DateUtc></FrequencyChange></FrequencyChanges></Clock>\n",KW_Experiment5A-23-1,59.946,1.0.0.105,2,-49029577,Professional,2.0.10.353,2.0.10.353,10/17/2018,10/17/2018 16:24,12:24:23,2.0.10.248,3,2,1,3,,,,,,,,TrainingProc,BlockList,32,2,Distractor1.bmp,1,0,,1,0,499663,401,,0,0,red,400,1,400,1,horizontal,red,Distractor1.bmp,blue,Distractor2.bmp,lime,Target2.bmp,cyan,Distractor1.bmp,yellow,Distractor2.bmp,purple,Distractor1.bmp,,,,TrialProc,,TrainingTrialList,0,2,-999999,1,500064,0,1,470,500534,Target2.bmp,lime,2,,,,3,5,80
KW_Experiment5A,23,1,"<?xml version=""1.0""?>\n<Clock xmlns:dt=""urn:schemas-microsoft-com:datatypes""><Description dt:dt=""string"">E-Prime Primary Realtime Clock</Description><StartTime><Timestamp dt:dt=""int"">0</Timestamp><DateUtc dt:dt=""string"">2018-10-17T16:24:23Z</DateUtc></StartTime><FrequencyChanges><FrequencyChange><Frequency dt:dt=""r8"">3215292</Frequency><Timestamp dt:dt=""r8"">5841105867149</Timestamp><Current dt:dt=""r8"">0</Current><DateUtc dt:dt=""string"">2018-10-17T16:24:23Z</DateUtc></FrequencyChange></FrequencyChanges></Clock>\n",KW_Experiment5A-23-1,59.946,1.0.0.105,2,-49029577,Professional,2.0.10.353,2.0.10.353,10/17/2018,10/17/2018 16:24,12:24:23,2.0.10.248,3,2,1,3,,,,,,,,TrainingProc,BlockList,33,2,Distractor1.bmp,1,0,,1,0,501548,501,,0,0,lime,500,2,500,,horizontal,red,Target2.bmp,cyan,Distractor1.bmp,purple,Distractor1.bmp,yellow,Distractor2.bmp,blue,Distractor2.bmp,lime,Distractor1.bmp,,,,TrialProc,6,TrainingTrialList,1,2,-999999,1,502049,0,2,173,502222,Target2.bmp,red,2,,,,7,5,81
KW_Experiment5A,23,1,"<?xml version=""1.0""?>\n<Clock xmlns:dt=""urn:schemas-microsoft-com:datatypes""><Description dt:dt=""string"">E-Prime Primary Realtime Clock</Description><StartTime><Timestamp dt:dt=""int"">0</Timestamp><DateUtc dt:dt=""string"">2018-10-17T16:24:23Z</DateUtc></StartTime><FrequencyChanges><FrequencyChange><Frequency dt:dt=""r8"">3215292</Frequency><Timestamp dt:dt=""r8"">5841105867149</Timestamp><Current dt:dt=""r8"">0</Current><DateUtc dt:dt=""string"">2018-10-17T16:24:23Z</DateUtc></FrequencyChange></FrequencyChanges></Clock>\n",KW_Experiment5A-23-1,59.946,1.0.0.105,2,-49029577,Professional,2.0.10.353,2.0.10.353,10/17/2018,10/17/2018 16:24,12:24:23,2.0.10.248,3,2,1,3,,,,,,,,TrainingProc,BlockList,34,2,Distractor1.bmp,1,0,,0,1,503233,601,,0,0,lime,600,3,600,,horizontal,red,Target2.bmp,blue,Distractor1.bmp,purple,Distractor1.bmp,cyan,Distractor1.bmp,yellow,Distractor2.bmp,lime,Distractor1.bmp,,,,TrialProc,6,TrainingTrialList,1,2,-999999,1,503834,0,2,356,504190,Target2.bmp,red,2,,,,7,5,82
KW_Experiment5A,23,1,"<?xml version=""1.0""?>\n<Clock xmlns:dt=""urn:schemas-microsoft-com:datatypes""><Description dt:dt=""string"">E-Prime Primary Realtime Clock</Description><StartTime><Timestamp dt:dt=""int"">0</Timestamp><DateUtc dt:dt=""string"">2018-10-17T16:24:23Z</DateUtc></StartTime><FrequencyChanges><FrequencyChange><Frequency dt:dt=""r8"">3215292</Frequency><Timestamp dt:dt=""r8"">5841105867149</Timestamp><Current dt:dt=""r8"">0</Current><DateUtc dt:dt=""string"">2018-10-17T16:24:23Z</DateUtc></FrequencyChange></FrequencyChanges></Clock>\n",KW_Experiment5A-23-1,59.946,1.0.0.105,2,-49029577,Professional,2.0.10.353,2.0.10.353,10/17/2018,10/17/2018 16:24,12:24:23,2.0.10.248,3,2,1,3,,,,,,,,TrainingProc,BlockList,35,2,Distractor2.bmp,2,0,,0,1,505202,500,,0,0,purple,500,2,500,,horizontal,purple,Distractor2.bmp,blue,Distractor2.bmp,red,Target2.bmp,lime,Distractor2.bmp,cyan,Distractor2.bmp,yellow,Distractor1.bmp,,,,TrialProc,5,TrainingTrialList,0,2,-999999,0,505702,0,1,783,506485,Target2.bmp,red,2,,,,9,5,83
KW_Experiment5A,23,1,"<?xml version=""1.0""?>\n<Clock xmlns:dt=""urn:schemas-microsoft-com:datatypes""><Description dt:dt=""string"">E-Prime Primary Realtime Clock</Description><StartTime><Timestamp dt:dt=""int"">0</Timestamp><DateUtc dt:dt=""string"">2018-10-17T16:24:23Z</DateUtc></StartTime><FrequencyChanges><FrequencyChange><Frequency dt:dt=""r8"">3215292</Frequency><Timestamp dt:dt=""r8"">5841105867149</Timestamp><Current dt:dt=""r8"">0</Current><DateUtc dt:dt=""string"">2018-10-17T16:24:23Z</DateUtc></FrequencyChange></FrequencyChanges></Clock>\n",KW_Experiment5A-23-1,59.946,1.0.0.105,2,-49029577,Professional,2.0.10.353,2.0.10.353,10/17/2018,10/17/2018 16:24,12:24:23,2.0.10.248,3,2,1,3,,,,,,,,TrainingProc,BlockList,36,1,Distractor1.bmp,1,0,,0,1,507504,600,,0,0,red,600,3,600,1,vertical,red,Distractor2.bmp,cyan,Distractor1.bmp,purple,Distractor1.bmp,blue,Distractor1.bmp,lime,Target1.bmp,yellow,Distractor1.bmp,,,,TrialProc,,TrainingTrialList,0,1,-999999,0,508104,0,2,317,508421,Target1.bmp,lime,1,,,,5,5,84
KW_Experiment5A,23,1,"<?xml version=""1.0""?>\n<Clock xmlns:dt=""urn:schemas-microsoft-com:datatypes""><Description dt:dt=""string"">E-Prime Primary Realtime Clock</Description><StartTime><Timestamp dt:dt=""int"">0</Timestamp><DateUtc dt:dt=""string"">2018-10-17T16:24:23Z</DateUtc></StartTime><FrequencyChanges><FrequencyChange><Frequency dt:dt=""r8"">3215292</Frequency><Timestamp dt:dt=""r8"">5841105867149</Timestamp><Current dt:dt=""r8"">0</Current><DateUtc dt:dt=""string"">2018-10-17T16:24:23Z</DateUtc></FrequencyChange></FrequencyChanges></Clock>\n",KW_Experiment5A-23-1,59.946,1.0.0.105,2,-49029577,Professional,2.0.10.353,2.0.10.353,10/17/2018,10/17/2018 16:24,12:24:23,2.0.10.248,3,2,1,3,,,,,,,,TrainingProc,BlockList,37,1,Distractor1.bmp,1,0,,0,1,509439,400,,0,0,yellow,400,1,400,,vertical,yellow,Distractor1.bmp,blue,Distractor1.bmp,purple,Distractor2.bmp,lime,Distractor2.bmp,red,Target1.bmp,cyan,Distractor1.bmp,,,,TrialProc,2,TrainingTrialList,1,1,-999999,0,509839,0,1,302,510141,Target1.bmp,red,1,,,,11,5,85
KW_Experiment5A,23,1,"<?xml version=""1.0""?>\n<Clock xmlns:dt=""urn:schemas-microsoft-com:datatypes""><Description dt:dt=""string"">E-Prime Primary Realtime Clock</Description><StartTime><Timestamp dt:dt=""int"">0</Timestamp><DateUtc dt:dt=""string"">2018-10-17T16:24:23Z</DateUtc></StartTime><FrequencyChanges><FrequencyChange><Frequency dt:dt=""r8"">3215292</Frequency><Timestamp dt:dt=""r8"">5841105867149</Timestamp><Current dt:dt=""r8"">0</Current><DateUtc dt:dt=""string"">2018-10-17T16:24:23Z</DateUtc></FrequencyChange></FrequencyChanges></Clock>\n",KW_Experiment5A-23-1,59.946,1.0.0.105,2,-49029577,Professional,2.0.10.353,2.0.10.353,10/17/2018,10/17/2018 16:24,12:24:23,2.0.10.248,3,2,1,3,,,,,,,,TrainingProc,BlockList,38,1,Distractor1.bmp,1,0,,0,1,511157,401,,0,0,lime,400,1,400,,vertical,lime,Distractor2.bmp,cyan,Distractor2.bmp,yellow,Distractor2.bmp,purple,Distractor2.bmp,red,Target1.bmp,blue,Distractor1.bmp,,,,TrialProc,6,TrainingTrialList,0,1,-999999,1,511558,0,2,1719,513277,Target1.bmp,red,1,,,,11,5,86
KW_Experiment5A,23,1,"<?xml version=""1.0""?>\n<Clock xmlns:dt=""urn:schemas-microsoft-com:datatypes""><Description dt:dt=""string"">E-Prime Primary Realtime Clock</Description><StartTime><Timestamp dt:dt=""int"">0</Timestamp><DateUtc dt:dt=""string"">2018-10-17T16:24:23Z</DateUtc></StartTime><FrequencyChanges><FrequencyChange><Frequency dt:dt=""r8"">3215292</Frequency><Timestamp dt:dt=""r8"">5841105867149</Timestamp><Current dt:dt=""r8"">0</Current><DateUtc dt:dt=""string"">2018-10-17T16:24:23Z</DateUtc></FrequencyChange></FrequencyChanges></Clock>\n",KW_Experiment5A-23-1,59.946,1.0.0.105,2,-49029577,Professional,2.0.10.353,2.0.10.353,10/17/2018,10/17/2018 16:24,12:24:23,2.0.10.248,3,2,1,3,,,,,,,,TrainingProc,BlockList,39,1,Distractor1.bmp,1,0,,0,0,514293,401,,0,0,purple,400,1,400,,vertical,purple,Distractor1.bmp,lime,Distractor1.bmp,yellow,Distractor1.bmp,cyan,Distractor1.bmp,blue,Distractor2.bmp,red,Target1.bmp,,,,TrialProc,5,TrainingTrialList,1,1,-999999,1,514694,0,1,1439,516133,Target1.bmp,red,1,,,,12,5,87
KW_Experiment5A,23,1,"<?xml version=""1.0""?>\n<Clock xmlns:dt=""urn:schemas-microsoft-com:datatypes""><Description dt:dt=""string"">E-Prime Primary Realtime Clock</Description><StartTime><Timestamp dt:dt=""int"">0</Timestamp><DateUtc dt:dt=""string"">2018-10-17T16:24:23Z</DateUtc></StartTime><FrequencyChanges><FrequencyChange><Frequency dt:dt=""r8"">3215292</Frequency><Timestamp dt:dt=""r8"">5841105867149</Timestamp><Current dt:dt=""r8"">0</Current><DateUtc dt:dt=""string"">2018-10-17T16:24:23Z</DateUtc></FrequencyChange></FrequencyChanges></Clock>\n",KW_Experiment5A-23-1,59.946,1.0.0.105,2,-49029577,Professional,2.0.10.353,2.0.10.353,10/17/2018,10/17/2018 16:24,12:24:23,2.0.10.248,3,2,1,3,,,,,,,,TrainingProc,BlockList,40,2,Distractor2.bmp,2,0,,0,1,517146,400,,0,0,blue,400,1,400,,horizontal,blue,Distractor2.bmp,cyan,Distractor2.bmp,purple,Distractor1.bmp,red,Target2.bmp,lime,Distractor2.bmp,yellow,Distractor1.bmp,,,,TrialProc,3,TrainingTrialList,0,2,-999999,0,517546,0,1,307,517853,Target2.bmp,red,2,,,,10,5,88
KW_Experiment5A,23,1,"<?xml version=""1.0""?>\n<Clock xmlns:dt=""urn:schemas-microsoft-com:datatypes""><Description dt:dt=""string"">E-Prime Primary Realtime Clock</Description><StartTime><Timestamp dt:dt=""int"">0</Timestamp><DateUtc dt:dt=""string"">2018-10-17T16:24:23Z</DateUtc></StartTime><FrequencyChanges><FrequencyChange><Frequency dt:dt=""r8"">3215292</Frequency><Timestamp dt:dt=""r8"">5841105867149</Timestamp><Current dt:dt=""r8"">0</Current><DateUtc dt:dt=""string"">2018-10-17T16:24:23Z</DateUtc></FrequencyChange></FrequencyChanges></Clock>\n",KW_Experiment5A-23-1,59.946,1.0.0.105,2,-49029577,Professional,2.0.10.353,2.0.10.353,10/17/2018,10/17/2018 16:24,12:24:23,2.0.10.248,3,2,1,3,,,,,,,,TrainingProc,BlockList,41,1,Distractor2.bmp,2,0,,0,1,518864,401,,0,0,yellow,400,1,400,2,vertical,lime,Target1.bmp,yellow,Distractor2.bmp,blue,Distractor1.bmp,purple,Distractor2.bmp,cyan,Distractor1.bmp,red,Distractor1.bmp,,,,TrialProc,,TrainingTrialList,1,1,-999999,1,519265,0,1,164,519429,Target1.bmp,lime,1,,,,1,5,89
KW_Experiment5A,23,1,"<?xml version=""1.0""?>\n<Clock xmlns:dt=""urn:schemas-microsoft-com:datatypes""><Description dt:dt=""string"">E-Prime Primary Realtime Clock</Description><StartTime><Timestamp dt:dt=""int"">0</Timestamp><DateUtc dt:dt=""string"">2018-10-17T16:24:23Z</DateUtc></StartTime><FrequencyChanges><FrequencyChange><Frequency dt:dt=""r8"">3215292</Frequency><Timestamp dt:dt=""r8"">5841105867149</Timestamp><Current dt:dt=""r8"">0</Current><DateUtc dt:dt=""string"">2018-10-17T16:24:23Z</DateUtc></FrequencyChange></FrequencyChanges></Clock>\n",KW_Experiment5A-23-1,59.946,1.0.0.105,2,-49029577,Professional,2.0.10.353,2.0.10.353,10/17/2018,10/17/2018 16:24,12:24:23,2.0.10.248,3,2,1,3,,,,,,,,TrainingProc,BlockList,42,2,Distractor2.bmp,2,0,,0,1,520449,500,,0,0,yellow,500,2,500,,horizontal,yellow,Distractor2.bmp,red,Target2.bmp,blue,Distractor2.bmp,lime,Distractor2.bmp,purple,Distractor1.bmp,cyan,Distractor2.bmp,,,,TrialProc,2,TrainingTrialList,0,2,-999999,0,520949,0,1,336,521285,Target2.bmp,red,2,,,,8,5,90
