ExperimentName,Subject,Session,Clock.Information,DataFile.Basename,Display.RefreshRate,ExperimentVersion,Group,RandomSeed,RuntimeCapabilities,RuntimeVersion,RuntimeVersionExpected,SessionDate,SessionStartDateTimeUtc,SessionTime,StudioVersion,Block,BlockList,BlockList.Cycle,BlockList.Sample,PostTestQ1.RESP,PostTestQ1CJ.RESP,PostTestQ2.RESP,PostTestQ2CJ.RESP,PostTestQ3.RESP,PostTestQ3CJ.RESP,PostTestSlide.RESP,Procedure[Block],Running[Block],Trial,CorrectResponse,Distractor,DistractorList,Fixation.ACC,Fixation.CRESP,Fixation.DurationError,Fixation.OnsetDelay,Fixation.OnsetTime,Fixation.OnsetToOnsetTime,Fixation.RESP,Fixation.RT,Fixation.RTTime,ItemColor,Jitter,JitterList,JitterTime,Lime0List,Orientation,Pos1Color,Pos1Item,Pos2Color,Pos2Item,Pos3Color,Pos3Item,Pos4Color,Pos4Item,Pos5Color,Pos5Item,Pos6Color,Pos6Item,PracticeTrialList,PracticeTrialList.Cycle,PracticeTrialList.Sample,Procedure[Trial],Red0List,Running[Trial],Stimulus.ACC,Stimulus.CRESP,Stimulus.DurationError,Stimulus.OnsetDelay,Stimulus.OnsetTime,Stimulus.OnsetToOnsetTime,Stimulus.RESP,Stimulus.RT,Stimulus.RTTime,Target,TargetColor,TargetList,TestTrialList,TestTrialList.Cycle,TestTrialList.Sample,TrainingTrialList,TrainingTrialList.Cycle,TrainingTrialList.Sample
KW_Experiment5A,24,1,"<?xml version=""1.0""?>\n<Clock xmlns:dt=""urn:schemas-microsoft-com:datatypes""><Description dt:dt=""string"">E-Prime Primary Realtime Clock</Description><StartTime><Timestamp dt:dt=""int"">0</Timestamp><DateUtc dt:dt=""string"">2018-10-17T16:24:39Z</DateUtc></StartTime><FrequencyChanges><FrequencyChange><Frequency dt:dt=""r8"">3215244</Frequency><Timestamp dt:dt=""r8"">7124585736004</Timestamp><Current dt:dt=""r8"">0</Current><DateUtc dt:dt=""string"">2018-10-17T16:24:39Z</DateUtc></FrequencyChange></FrequencyChanges></Clock>\n",KW_Experiment5A-24-1,59.945,1.0.0.105,1,-764369534,Professional,2.0.10.353,2.0.10.353,10/17/2018,10/17/2018 16:24,12:24:39,2.0.10.248,1,1,1,1,,,,,,,,PracticeProc,BlockList,1,2,Distractor2.bmp,2,0,,0,55,223369,600,,0,0,blue,600,3,600,3,horizontal,cyan,Distractor1.bmp,blue,Distractor2.bmp,lime,Target2.bmp,yellow,Distractor2.bmp,red,Distractor2.bmp,purple,Distractor2.bmp,3,1,1,TrialProc,,PracticeTrialList,0,2,-999999,0,223969,0,1,1137,225106,Target2.bmp,lime,2,,,,,,
KW_Experiment5A,24,1,"<?xml version=""1.0""?>\n<Clock xmlns:dt=""urn:schemas-microsoft-com:datatypes""><Description dt:dt=""string"">E-Prime Primary Realtime Clock</Description><StartTime><Timestamp dt:dt=""int"">0</Timestamp><DateUtc dt:dt=""string"">2018-10-17T16:24:39Z</DateUtc></StartTime><FrequencyChanges><FrequencyChange><Frequency dt:dt=""r8"">3215244</Frequency><Timestamp dt:dt=""r8"">7124585736004</Timestamp><Current dt:dt=""r8"">0</Current><DateUtc dt:dt=""string"">2018-10-17T16:24:39Z</DateUtc></FrequencyChange></FrequencyChanges></Clock>\n",KW_Experiment5A-24-1,59.945,1.0.0.105,1,-764369534,Professional,2.0.10.353,2.0.10.353,10/17/2018,10/17/2018 16:24,12:24:39,2.0.10.248,1,1,1,1,,,,,,,,PracticeProc,BlockList,2,2,Distractor2.bmp,2,0,,0,1,226121,501,,0,0,blue,500,2,500,,horizontal,yellow,Distractor2.bmp,cyan,Distractor1.bmp,blue,Distractor1.bmp,red,Target2.bmp,purple,Distractor2.bmp,lime,Distractor2.bmp,4,1,2,TrialProc,3,PracticeTrialList,1,2,-999999,1,226622,0,2,3220,229842,Target2.bmp,red,2,,,,,,
KW_Experiment5A,24,1,"<?xml version=""1.0""?>\n<Clock xmlns:dt=""urn:schemas-microsoft-com:datatypes""><Description dt:dt=""string"">E-Prime Primary Realtime Clock</Description><StartTime><Timestamp dt:dt=""int"">0</Timestamp><DateUtc dt:dt=""string"">2018-10-17T16:24:39Z</DateUtc></StartTime><FrequencyChanges><FrequencyChange><Frequency dt:dt=""r8"">3215244</Frequency><Timestamp dt:dt=""r8"">7124585736004</Timestamp><Current dt:dt=""r8"">0</Current><DateUtc dt:dt=""string"">2018-10-17T16:24:39Z</DateUtc></FrequencyChange></FrequencyChanges></Clock>\n",KW_Experiment5A-24-1,59.945,1.0.0.105,1,-764369534,Professional,2.0.10.353,2.0.10.353,10/17/2018,10/17/2018 16:24,12:24:39,2.0.10.248,1,1,1,1,,,,,,,,PracticeProc,BlockList,3,1,Distractor2.bmp,2,0,,0,1,230859,500,,0,0,blue,500,2,500,3,vertical,lime,Target1.bmp,cyan,Distractor2.bmp,yellow,Distractor1.bmp,red,Distractor2.bmp,purple,Distractor1.bmp,blue,Distractor2.bmp,1,1,3,TrialProc,,PracticeTrialList,1,1,-999999,0,231359,0,1,1259,232618,Target1.bmp,lime,1,,,,,,
KW_Experiment5A,24,1,"<?xml version=""1.0""?>\n<Clock xmlns:dt=""urn:schemas-microsoft-com:datatypes""><Description dt:dt=""string"">E-Prime Primary Realtime Clock</Description><StartTime><Timestamp dt:dt=""int"">0</Timestamp><DateUtc dt:dt=""string"">2018-10-17T16:24:39Z</DateUtc></StartTime><FrequencyChanges><FrequencyChange><Frequency dt:dt=""r8"">3215244</Frequency><Timestamp dt:dt=""r8"">7124585736004</Timestamp><Current dt:dt=""r8"">0</Current><DateUtc dt:dt=""string"">2018-10-17T16:24:39Z</DateUtc></FrequencyChange></FrequencyChanges></Clock>\n",KW_Experiment5A-24-1,59.945,1.0.0.105,1,-764369534,Professional,2.0.10.353,2.0.10.353,10/17/2018,10/17/2018 16:24,12:24:39,2.0.10.248,1,1,1,1,,,,,,,,PracticeProc,BlockList,4,2,Distractor1.bmp,1,0,,0,1,233645,600,,0,0,yellow,600,3,600,,horizontal,yellow,Distractor1.bmp,red,Target2.bmp,lime,Distractor1.bmp,purple,Distractor2.bmp,blue,Distractor2.bmp,cyan,Distractor1.bmp,2,1,4,TrialProc,2,PracticeTrialList,0,2,-999999,0,234245,0,1,421,234666,Target2.bmp,red,2,,,,,,
KW_Experiment5A,24,1,"<?xml version=""1.0""?>\n<Clock xmlns:dt=""urn:schemas-microsoft-com:datatypes""><Description dt:dt=""string"">E-Prime Primary Realtime Clock</Description><StartTime><Timestamp dt:dt=""int"">0</Timestamp><DateUtc dt:dt=""string"">2018-10-17T16:24:39Z</DateUtc></StartTime><FrequencyChanges><FrequencyChange><Frequency dt:dt=""r8"">3215244</Frequency><Timestamp dt:dt=""r8"">7124585736004</Timestamp><Current dt:dt=""r8"">0</Current><DateUtc dt:dt=""string"">2018-10-17T16:24:39Z</DateUtc></FrequencyChange></FrequencyChanges></Clock>\n",KW_Experiment5A-24-1,59.945,1.0.0.105,1,-764369534,Professional,2.0.10.353,2.0.10.353,10/17/2018,10/17/2018 16:24,12:24:39,2.0.10.248,1,1,1,1,,,,,,,,PracticeProc,BlockList,5,2,Distractor2.bmp,2,0,,0,1,235680,601,,0,0,cyan,600,3,600,,horizontal,blue,Distractor2.bmp,purple,Distractor1.bmp,yellow,Distractor1.bmp,lime,Distractor1.bmp,cyan,Distractor1.bmp,red,Target2.bmp,6,1,5,TrialProc,4,PracticeTrialList,1,2,-999999,1,236281,0,2,201,236482,Target2.bmp,red,2,,,,,,
KW_Experiment5A,24,1,"<?xml version=""1.0""?>\n<Clock xmlns:dt=""urn:schemas-microsoft-com:datatypes""><Description dt:dt=""string"">E-Prime Primary Realtime Clock</Description><StartTime><Timestamp dt:dt=""int"">0</Timestamp><DateUtc dt:dt=""string"">2018-10-17T16:24:39Z</DateUtc></StartTime><FrequencyChanges><FrequencyChange><Frequency dt:dt=""r8"">3215244</Frequency><Timestamp dt:dt=""r8"">7124585736004</Timestamp><Current dt:dt=""r8"">0</Current><DateUtc dt:dt=""string"">2018-10-17T16:24:39Z</DateUtc></FrequencyChange></FrequencyChanges></Clock>\n",KW_Experiment5A-24-1,59.945,1.0.0.105,1,-764369534,Professional,2.0.10.353,2.0.10.353,10/17/2018,10/17/2018 16:24,12:24:39,2.0.10.248,1,1,1,1,,,,,,,,PracticeProc,BlockList,6,2,Distractor1.bmp,1,0,,1,0,237498,401,,0,0,blue,400,1,400,3,horizontal,yellow,Distractor2.bmp,red,Distractor2.bmp,purple,Distractor1.bmp,blue,Distractor1.bmp,lime,Target2.bmp,cyan,Distractor1.bmp,5,1,6,TrialProc,,PracticeTrialList,1,2,-999999,1,237899,0,2,359,238258,Target2.bmp,lime,2,,,,,,
KW_Experiment5A,24,1,"<?xml version=""1.0""?>\n<Clock xmlns:dt=""urn:schemas-microsoft-com:datatypes""><Description dt:dt=""string"">E-Prime Primary Realtime Clock</Description><StartTime><Timestamp dt:dt=""int"">0</Timestamp><DateUtc dt:dt=""string"">2018-10-17T16:24:39Z</DateUtc></StartTime><FrequencyChanges><FrequencyChange><Frequency dt:dt=""r8"">3215244</Frequency><Timestamp dt:dt=""r8"">7124585736004</Timestamp><Current dt:dt=""r8"">0</Current><DateUtc dt:dt=""string"">2018-10-17T16:24:39Z</DateUtc></FrequencyChange></FrequencyChanges></Clock>\n",KW_Experiment5A-24-1,59.945,1.0.0.105,1,-764369534,Professional,2.0.10.353,2.0.10.353,10/17/2018,10/17/2018 16:24,12:24:39,2.0.10.248,2,2,1,2,,,,,,,,TrainingProc,BlockList,1,2,Distractor2.bmp,2,0,,0,21,244839,500,,0,0,yellow,500,2,500,,horizontal,yellow,Distractor2.bmp,cyan,Distractor1.bmp,purple,Distractor1.bmp,red,Target2.bmp,blue,Distractor2.bmp,lime,Distractor1.bmp,,,,TrialProc,2,TrainingTrialList,1,2,-999999,0,245339,0,2,223,245562,Target2.bmp,red,2,,,,10,1,1
KW_Experiment5A,24,1,"<?xml version=""1.0""?>\n<Clock xmlns:dt=""urn:schemas-microsoft-com:datatypes""><Description dt:dt=""string"">E-Prime Primary Realtime Clock</Description><StartTime><Timestamp dt:dt=""int"">0</Timestamp><DateUtc dt:dt=""string"">2018-10-17T16:24:39Z</DateUtc></StartTime><FrequencyChanges><FrequencyChange><Frequency dt:dt=""r8"">3215244</Frequency><Timestamp dt:dt=""r8"">7124585736004</Timestamp><Current dt:dt=""r8"">0</Current><DateUtc dt:dt=""string"">2018-10-17T16:24:39Z</DateUtc></FrequencyChange></FrequencyChanges></Clock>\n",KW_Experiment5A-24-1,59.945,1.0.0.105,1,-764369534,Professional,2.0.10.353,2.0.10.353,10/17/2018,10/17/2018 16:24,12:24:39,2.0.10.248,2,2,1,2,,,,,,,,TrainingProc,BlockList,2,2,Distractor2.bmp,2,0,,0,1,246574,600,,0,0,cyan,600,3,600,4,horizontal,lime,Target2.bmp,cyan,Distractor2.bmp,purple,Distractor2.bmp,blue,Distractor2.bmp,yellow,Distractor2.bmp,red,Distractor2.bmp,,,,TrialProc,,TrainingTrialList,1,2,-999999,0,247174,0,2,300,247474,Target2.bmp,lime,2,,,,1,1,2
KW_Experiment5A,24,1,"<?xml version=""1.0""?>\n<Clock xmlns:dt=""urn:schemas-microsoft-com:datatypes""><Description dt:dt=""string"">E-Prime Primary Realtime Clock</Description><StartTime><Timestamp dt:dt=""int"">0</Timestamp><DateUtc dt:dt=""string"">2018-10-17T16:24:39Z</DateUtc></StartTime><FrequencyChanges><FrequencyChange><Frequency dt:dt=""r8"">3215244</Frequency><Timestamp dt:dt=""r8"">7124585736004</Timestamp><Current dt:dt=""r8"">0</Current><DateUtc dt:dt=""string"">2018-10-17T16:24:39Z</DateUtc></FrequencyChange></FrequencyChanges></Clock>\n",KW_Experiment5A-24-1,59.945,1.0.0.105,1,-764369534,Professional,2.0.10.353,2.0.10.353,10/17/2018,10/17/2018 16:24,12:24:39,2.0.10.248,2,2,1,2,,,,,,,,TrainingProc,BlockList,3,2,Distractor1.bmp,1,0,,0,1,248492,600,,0,0,yellow,600,3,600,2,horizontal,lime,Target2.bmp,yellow,Distractor1.bmp,cyan,Distractor2.bmp,red,Distractor2.bmp,purple,Distractor1.bmp,blue,Distractor1.bmp,,,,TrialProc,,TrainingTrialList,0,2,-999999,0,249092,0,1,438,249530,Target2.bmp,lime,2,,,,1,1,3
KW_Experiment5A,24,1,"<?xml version=""1.0""?>\n<Clock xmlns:dt=""urn:schemas-microsoft-com:datatypes""><Description dt:dt=""string"">E-Prime Primary Realtime Clock</Description><StartTime><Timestamp dt:dt=""int"">0</Timestamp><DateUtc dt:dt=""string"">2018-10-17T16:24:39Z</DateUtc></StartTime><FrequencyChanges><FrequencyChange><Frequency dt:dt=""r8"">3215244</Frequency><Timestamp dt:dt=""r8"">7124585736004</Timestamp><Current dt:dt=""r8"">0</Current><DateUtc dt:dt=""string"">2018-10-17T16:24:39Z</DateUtc></FrequencyChange></FrequencyChanges></Clock>\n",KW_Experiment5A-24-1,59.945,1.0.0.105,1,-764369534,Professional,2.0.10.353,2.0.10.353,10/17/2018,10/17/2018 16:24,12:24:39,2.0.10.248,2,2,1,2,,,,,,,,TrainingProc,BlockList,4,1,Distractor1.bmp,1,0,,0,1,250544,400,,0,0,yellow,400,1,400,2,vertical,yellow,Distractor1.bmp,blue,Distractor2.bmp,purple,Distractor2.bmp,lime,Target1.bmp,cyan,Distractor1.bmp,red,Distractor1.bmp,,,,TrialProc,,TrainingTrialList,1,1,-999999,0,250944,0,1,114,251058,Target1.bmp,lime,1,,,,4,1,4
KW_Experiment5A,24,1,"<?xml version=""1.0""?>\n<Clock xmlns:dt=""urn:schemas-microsoft-com:datatypes""><Description dt:dt=""string"">E-Prime Primary Realtime Clock</Description><StartTime><Timestamp dt:dt=""int"">0</Timestamp><DateUtc dt:dt=""string"">2018-10-17T16:24:39Z</DateUtc></StartTime><FrequencyChanges><FrequencyChange><Frequency dt:dt=""r8"">3215244</Frequency><Timestamp dt:dt=""r8"">7124585736004</Timestamp><Current dt:dt=""r8"">0</Current><DateUtc dt:dt=""string"">2018-10-17T16:24:39Z</DateUtc></FrequencyChange></FrequencyChanges></Clock>\n",KW_Experiment5A-24-1,59.945,1.0.0.105,1,-764369534,Professional,2.0.10.353,2.0.10.353,10/17/2018,10/17/2018 16:24,12:24:39,2.0.10.248,2,2,1,2,,,,,,,,TrainingProc,BlockList,5,2,Distractor2.bmp,2,0,,0,1,252079,500,,0,0,cyan,500,2,500,4,horizontal,cyan,Distractor2.bmp,purple,Distractor2.bmp,blue,Distractor2.bmp,lime,Target2.bmp,yellow,Distractor2.bmp,red,Distractor1.bmp,,,,TrialProc,,TrainingTrialList,0,2,-999999,0,252579,0,1,63,252642,Target2.bmp,lime,2,,,,4,1,5
KW_Experiment5A,24,1,"<?xml version=""1.0""?>\n<Clock xmlns:dt=""urn:schemas-microsoft-com:datatypes""><Description dt:dt=""string"">E-Prime Primary Realtime Clock</Description><StartTime><Timestamp dt:dt=""int"">0</Timestamp><DateUtc dt:dt=""string"">2018-10-17T16:24:39Z</DateUtc></StartTime><FrequencyChanges><FrequencyChange><Frequency dt:dt=""r8"">3215244</Frequency><Timestamp dt:dt=""r8"">7124585736004</Timestamp><Current dt:dt=""r8"">0</Current><DateUtc dt:dt=""string"">2018-10-17T16:24:39Z</DateUtc></FrequencyChange></FrequencyChanges></Clock>\n",KW_Experiment5A-24-1,59.945,1.0.0.105,1,-764369534,Professional,2.0.10.353,2.0.10.353,10/17/2018,10/17/2018 16:24,12:24:39,2.0.10.248,2,2,1,2,,,,,,,,TrainingProc,BlockList,6,1,Distractor1.bmp,1,0,,0,1,253663,601,,0,0,red,600,3,600,1,vertical,red,Distractor1.bmp,blue,Distractor1.bmp,cyan,Distractor1.bmp,purple,Distractor1.bmp,yellow,Distractor2.bmp,lime,Target1.bmp,,,,TrialProc,,TrainingTrialList,0,1,-999999,1,254264,0,2,138,254402,Target1.bmp,lime,1,,,,6,1,6
KW_Experiment5A,24,1,"<?xml version=""1.0""?>\n<Clock xmlns:dt=""urn:schemas-microsoft-com:datatypes""><Description dt:dt=""string"">E-Prime Primary Realtime Clock</Description><StartTime><Timestamp dt:dt=""int"">0</Timestamp><DateUtc dt:dt=""string"">2018-10-17T16:24:39Z</DateUtc></StartTime><FrequencyChanges><FrequencyChange><Frequency dt:dt=""r8"">3215244</Frequency><Timestamp dt:dt=""r8"">7124585736004</Timestamp><Current dt:dt=""r8"">0</Current><DateUtc dt:dt=""string"">2018-10-17T16:24:39Z</DateUtc></FrequencyChange></FrequencyChanges></Clock>\n",KW_Experiment5A-24-1,59.945,1.0.0.105,1,-764369534,Professional,2.0.10.353,2.0.10.353,10/17/2018,10/17/2018 16:24,12:24:39,2.0.10.248,2,2,1,2,,,,,,,,TrainingProc,BlockList,7,2,Distractor1.bmp,1,0,,0,1,255415,400,,0,0,purple,400,1,400,5,horizontal,purple,Distractor2.bmp,yellow,Distractor1.bmp,lime,Target2.bmp,cyan,Distractor1.bmp,red,Distractor1.bmp,blue,Distractor1.bmp,,,,TrialProc,,TrainingTrialList,0,2,-999999,0,255815,0,1,267,256082,Target2.bmp,lime,2,,,,3,1,7
KW_Experiment5A,24,1,"<?xml version=""1.0""?>\n<Clock xmlns:dt=""urn:schemas-microsoft-com:datatypes""><Description dt:dt=""string"">E-Prime Primary Realtime Clock</Description><StartTime><Timestamp dt:dt=""int"">0</Timestamp><DateUtc dt:dt=""string"">2018-10-17T16:24:39Z</DateUtc></StartTime><FrequencyChanges><FrequencyChange><Frequency dt:dt=""r8"">3215244</Frequency><Timestamp dt:dt=""r8"">7124585736004</Timestamp><Current dt:dt=""r8"">0</Current><DateUtc dt:dt=""string"">2018-10-17T16:24:39Z</DateUtc></FrequencyChange></FrequencyChanges></Clock>\n",KW_Experiment5A-24-1,59.945,1.0.0.105,1,-764369534,Professional,2.0.10.353,2.0.10.353,10/17/2018,10/17/2018 16:24,12:24:39,2.0.10.248,2,2,1,2,,,,,,,,TrainingProc,BlockList,8,2,Distractor2.bmp,2,0,,0,1,257100,500,,0,0,purple,500,2,500,5,horizontal,purple,Distractor2.bmp,yellow,Distractor1.bmp,cyan,Distractor2.bmp,blue,Distractor1.bmp,red,Distractor2.bmp,lime,Target2.bmp,,,,TrialProc,,TrainingTrialList,1,2,-999999,0,257600,0,2,226,257826,Target2.bmp,lime,2,,,,6,1,8
KW_Experiment5A,24,1,"<?xml version=""1.0""?>\n<Clock xmlns:dt=""urn:schemas-microsoft-com:datatypes""><Description dt:dt=""string"">E-Prime Primary Realtime Clock</Description><StartTime><Timestamp dt:dt=""int"">0</Timestamp><DateUtc dt:dt=""string"">2018-10-17T16:24:39Z</DateUtc></StartTime><FrequencyChanges><FrequencyChange><Frequency dt:dt=""r8"">3215244</Frequency><Timestamp dt:dt=""r8"">7124585736004</Timestamp><Current dt:dt=""r8"">0</Current><DateUtc dt:dt=""string"">2018-10-17T16:24:39Z</DateUtc></FrequencyChange></FrequencyChanges></Clock>\n",KW_Experiment5A-24-1,59.945,1.0.0.105,1,-764369534,Professional,2.0.10.353,2.0.10.353,10/17/2018,10/17/2018 16:24,12:24:39,2.0.10.248,2,2,1,2,,,,,,,,TrainingProc,BlockList,9,2,Distractor2.bmp,2,0,,0,1,258835,600,,0,0,red,600,3,600,1,horizontal,red,Distractor2.bmp,lime,Target2.bmp,yellow,Distractor2.bmp,purple,Distractor2.bmp,blue,Distractor1.bmp,cyan,Distractor1.bmp,,,,TrialProc,,TrainingTrialList,1,2,-999999,0,259435,0,2,71,259506,Target2.bmp,lime,2,,,,2,1,9
KW_Experiment5A,24,1,"<?xml version=""1.0""?>\n<Clock xmlns:dt=""urn:schemas-microsoft-com:datatypes""><Description dt:dt=""string"">E-Prime Primary Realtime Clock</Description><StartTime><Timestamp dt:dt=""int"">0</Timestamp><DateUtc dt:dt=""string"">2018-10-17T16:24:39Z</DateUtc></StartTime><FrequencyChanges><FrequencyChange><Frequency dt:dt=""r8"">3215244</Frequency><Timestamp dt:dt=""r8"">7124585736004</Timestamp><Current dt:dt=""r8"">0</Current><DateUtc dt:dt=""string"">2018-10-17T16:24:39Z</DateUtc></FrequencyChange></FrequencyChanges></Clock>\n",KW_Experiment5A-24-1,59.945,1.0.0.105,1,-764369534,Professional,2.0.10.353,2.0.10.353,10/17/2018,10/17/2018 16:24,12:24:39,2.0.10.248,2,2,1,2,,,,,,,,TrainingProc,BlockList,10,2,Distractor2.bmp,2,0,,0,1,260520,500,,0,0,lime,500,2,500,,horizontal,red,Target2.bmp,yellow,Distractor2.bmp,blue,Distractor1.bmp,purple,Distractor2.bmp,cyan,Distractor1.bmp,lime,Distractor1.bmp,,,,TrialProc,6,TrainingTrialList,1,2,-999999,0,261020,0,2,262,261282,Target2.bmp,red,2,,,,7,1,10
KW_Experiment5A,24,1,"<?xml version=""1.0""?>\n<Clock xmlns:dt=""urn:schemas-microsoft-com:datatypes""><Description dt:dt=""string"">E-Prime Primary Realtime Clock</Description><StartTime><Timestamp dt:dt=""int"">0</Timestamp><DateUtc dt:dt=""string"">2018-10-17T16:24:39Z</DateUtc></StartTime><FrequencyChanges><FrequencyChange><Frequency dt:dt=""r8"">3215244</Frequency><Timestamp dt:dt=""r8"">7124585736004</Timestamp><Current dt:dt=""r8"">0</Current><DateUtc dt:dt=""string"">2018-10-17T16:24:39Z</DateUtc></FrequencyChange></FrequencyChanges></Clock>\n",KW_Experiment5A-24-1,59.945,1.0.0.105,1,-764369534,Professional,2.0.10.353,2.0.10.353,10/17/2018,10/17/2018 16:24,12:24:39,2.0.10.248,2,2,1,2,,,,,,,,TrainingProc,BlockList,11,1,Distractor1.bmp,1,0,,0,1,262305,500,,0,0,red,500,2,500,1,vertical,red,Distractor2.bmp,yellow,Distractor2.bmp,lime,Target1.bmp,cyan,Distractor1.bmp,blue,Distractor2.bmp,purple,Distractor1.bmp,,,,TrialProc,,TrainingTrialList,1,1,-999999,0,262805,0,1,173,262978,Target1.bmp,lime,1,,,,3,1,11
KW_Experiment5A,24,1,"<?xml version=""1.0""?>\n<Clock xmlns:dt=""urn:schemas-microsoft-com:datatypes""><Description dt:dt=""string"">E-Prime Primary Realtime Clock</Description><StartTime><Timestamp dt:dt=""int"">0</Timestamp><DateUtc dt:dt=""string"">2018-10-17T16:24:39Z</DateUtc></StartTime><FrequencyChanges><FrequencyChange><Frequency dt:dt=""r8"">3215244</Frequency><Timestamp dt:dt=""r8"">7124585736004</Timestamp><Current dt:dt=""r8"">0</Current><DateUtc dt:dt=""string"">2018-10-17T16:24:39Z</DateUtc></FrequencyChange></FrequencyChanges></Clock>\n",KW_Experiment5A-24-1,59.945,1.0.0.105,1,-764369534,Professional,2.0.10.353,2.0.10.353,10/17/2018,10/17/2018 16:24,12:24:39,2.0.10.248,2,2,1,2,,,,,,,,TrainingProc,BlockList,12,1,Distractor1.bmp,1,0,,0,1,263990,600,,0,0,purple,600,3,600,,vertical,purple,Distractor1.bmp,red,Target1.bmp,lime,Distractor1.bmp,blue,Distractor2.bmp,yellow,Distractor1.bmp,cyan,Distractor2.bmp,,,,TrialProc,5,TrainingTrialList,1,1,-999999,0,264590,0,1,348,264938,Target1.bmp,red,1,,,,8,1,12
KW_Experiment5A,24,1,"<?xml version=""1.0""?>\n<Clock xmlns:dt=""urn:schemas-microsoft-com:datatypes""><Description dt:dt=""string"">E-Prime Primary Realtime Clock</Description><StartTime><Timestamp dt:dt=""int"">0</Timestamp><DateUtc dt:dt=""string"">2018-10-17T16:24:39Z</DateUtc></StartTime><FrequencyChanges><FrequencyChange><Frequency dt:dt=""r8"">3215244</Frequency><Timestamp dt:dt=""r8"">7124585736004</Timestamp><Current dt:dt=""r8"">0</Current><DateUtc dt:dt=""string"">2018-10-17T16:24:39Z</DateUtc></FrequencyChange></FrequencyChanges></Clock>\n",KW_Experiment5A-24-1,59.945,1.0.0.105,1,-764369534,Professional,2.0.10.353,2.0.10.353,10/17/2018,10/17/2018 16:24,12:24:39,2.0.10.248,2,2,1,2,,,,,,,,TrainingProc,BlockList,13,2,Distractor2.bmp,2,0,,0,1,265958,501,,0,0,red,500,2,500,1,horizontal,red,Distractor2.bmp,purple,Distractor2.bmp,yellow,Distractor2.bmp,blue,Distractor1.bmp,lime,Target2.bmp,cyan,Distractor2.bmp,,,,TrialProc,,TrainingTrialList,1,2,-999999,1,266459,0,2,399,266858,Target2.bmp,lime,2,,,,5,1,13
KW_Experiment5A,24,1,"<?xml version=""1.0""?>\n<Clock xmlns:dt=""urn:schemas-microsoft-com:datatypes""><Description dt:dt=""string"">E-Prime Primary Realtime Clock</Description><StartTime><Timestamp dt:dt=""int"">0</Timestamp><DateUtc dt:dt=""string"">2018-10-17T16:24:39Z</DateUtc></StartTime><FrequencyChanges><FrequencyChange><Frequency dt:dt=""r8"">3215244</Frequency><Timestamp dt:dt=""r8"">7124585736004</Timestamp><Current dt:dt=""r8"">0</Current><DateUtc dt:dt=""string"">2018-10-17T16:24:39Z</DateUtc></FrequencyChange></FrequencyChanges></Clock>\n",KW_Experiment5A-24-1,59.945,1.0.0.105,1,-764369534,Professional,2.0.10.353,2.0.10.353,10/17/2018,10/17/2018 16:24,12:24:39,2.0.10.248,2,2,1,2,,,,,,,,TrainingProc,BlockList,14,2,Distractor2.bmp,2,0,,1,0,267876,601,,0,0,blue,600,3,600,3,horizontal,blue,Distractor1.bmp,cyan,Distractor1.bmp,yellow,Distractor1.bmp,lime,Target2.bmp,purple,Distractor2.bmp,red,Distractor2.bmp,,,,TrialProc,,TrainingTrialList,0,2,-999999,1,268477,0,1,285,268762,Target2.bmp,lime,2,,,,4,1,14
KW_Experiment5A,24,1,"<?xml version=""1.0""?>\n<Clock xmlns:dt=""urn:schemas-microsoft-com:datatypes""><Description dt:dt=""string"">E-Prime Primary Realtime Clock</Description><StartTime><Timestamp dt:dt=""int"">0</Timestamp><DateUtc dt:dt=""string"">2018-10-17T16:24:39Z</DateUtc></StartTime><FrequencyChanges><FrequencyChange><Frequency dt:dt=""r8"">3215244</Frequency><Timestamp dt:dt=""r8"">7124585736004</Timestamp><Current dt:dt=""r8"">0</Current><DateUtc dt:dt=""string"">2018-10-17T16:24:39Z</DateUtc></FrequencyChange></FrequencyChanges></Clock>\n",KW_Experiment5A-24-1,59.945,1.0.0.105,1,-764369534,Professional,2.0.10.353,2.0.10.353,10/17/2018,10/17/2018 16:24,12:24:39,2.0.10.248,2,2,1,2,,,,,,,,TrainingProc,BlockList,15,1,Distractor1.bmp,1,0,,0,1,269778,501,,0,0,yellow,500,2,500,,vertical,yellow,Distractor2.bmp,blue,Distractor2.bmp,red,Target1.bmp,cyan,Distractor1.bmp,lime,Distractor2.bmp,purple,Distractor2.bmp,,,,TrialProc,2,TrainingTrialList,0,1,-999999,1,270279,0,2,283,270562,Target1.bmp,red,1,,,,9,1,15
KW_Experiment5A,24,1,"<?xml version=""1.0""?>\n<Clock xmlns:dt=""urn:schemas-microsoft-com:datatypes""><Description dt:dt=""string"">E-Prime Primary Realtime Clock</Description><StartTime><Timestamp dt:dt=""int"">0</Timestamp><DateUtc dt:dt=""string"">2018-10-17T16:24:39Z</DateUtc></StartTime><FrequencyChanges><FrequencyChange><Frequency dt:dt=""r8"">3215244</Frequency><Timestamp dt:dt=""r8"">7124585736004</Timestamp><Current dt:dt=""r8"">0</Current><DateUtc dt:dt=""string"">2018-10-17T16:24:39Z</DateUtc></FrequencyChange></FrequencyChanges></Clock>\n",KW_Experiment5A-24-1,59.945,1.0.0.105,1,-764369534,Professional,2.0.10.353,2.0.10.353,10/17/2018,10/17/2018 16:24,12:24:39,2.0.10.248,2,2,1,2,,,,,,,,TrainingProc,BlockList,16,2,Distractor1.bmp,1,0,,0,1,271580,600,,0,0,purple,600,3,600,5,horizontal,purple,Distractor2.bmp,lime,Target2.bmp,cyan,Distractor1.bmp,yellow,Distractor1.bmp,red,Distractor2.bmp,blue,Distractor1.bmp,,,,TrialProc,,TrainingTrialList,1,2,-999999,0,272180,0,2,1165,273345,Target2.bmp,lime,2,,,,2,1,16
KW_Experiment5A,24,1,"<?xml version=""1.0""?>\n<Clock xmlns:dt=""urn:schemas-microsoft-com:datatypes""><Description dt:dt=""string"">E-Prime Primary Realtime Clock</Description><StartTime><Timestamp dt:dt=""int"">0</Timestamp><DateUtc dt:dt=""string"">2018-10-17T16:24:39Z</DateUtc></StartTime><FrequencyChanges><FrequencyChange><Frequency dt:dt=""r8"">3215244</Frequency><Timestamp dt:dt=""r8"">7124585736004</Timestamp><Current dt:dt=""r8"">0</Current><DateUtc dt:dt=""string"">2018-10-17T16:24:39Z</DateUtc></FrequencyChange></FrequencyChanges></Clock>\n",KW_Experiment5A-24-1,59.945,1.0.0.105,1,-764369534,Professional,2.0.10.353,2.0.10.353,10/17/2018,10/17/2018 16:24,12:24:39,2.0.10.248,2,2,1,2,,,,,,,,TrainingProc,BlockList,17,1,Distractor2.bmp,2,0,,0,1,274366,400,,0,0,blue,400,1,400,3,vertical,blue,Distractor2.bmp,lime,Target1.bmp,yellow,Distractor2.bmp,red,Distractor1.bmp,purple,Distractor2.bmp,cyan,Distractor2.bmp,,,,TrialProc,,TrainingTrialList,1,1,-999999,0,274766,0,1,483,275249,Target1.bmp,lime,1,,,,2,1,17
KW_Experiment5A,24,1,"<?xml version=""1.0""?>\n<Clock xmlns:dt=""urn:schemas-microsoft-com:datatypes""><Description dt:dt=""string"">E-Prime Primary Realtime Clock</Description><StartTime><Timestamp dt:dt=""int"">0</Timestamp><DateUtc dt:dt=""string"">2018-10-17T16:24:39Z</DateUtc></StartTime><FrequencyChanges><FrequencyChange><Frequency dt:dt=""r8"">3215244</Frequency><Timestamp dt:dt=""r8"">7124585736004</Timestamp><Current dt:dt=""r8"">0</Current><DateUtc dt:dt=""string"">2018-10-17T16:24:39Z</DateUtc></FrequencyChange></FrequencyChanges></Clock>\n",KW_Experiment5A-24-1,59.945,1.0.0.105,1,-764369534,Professional,2.0.10.353,2.0.10.353,10/17/2018,10/17/2018 16:24,12:24:39,2.0.10.248,2,2,1,2,,,,,,,,TrainingProc,BlockList,18,1,Distractor1.bmp,1,0,,1,0,276267,601,,0,0,red,600,3,600,1,vertical,red,Distractor2.bmp,yellow,Distractor2.bmp,blue,Distractor2.bmp,cyan,Distractor1.bmp,lime,Target1.bmp,purple,Distractor1.bmp,,,,TrialProc,,TrainingTrialList,0,1,-999999,1,276868,0,2,1117,277985,Target1.bmp,lime,1,,,,5,1,18
KW_Experiment5A,24,1,"<?xml version=""1.0""?>\n<Clock xmlns:dt=""urn:schemas-microsoft-com:datatypes""><Description dt:dt=""string"">E-Prime Primary Realtime Clock</Description><StartTime><Timestamp dt:dt=""int"">0</Timestamp><DateUtc dt:dt=""string"">2018-10-17T16:24:39Z</DateUtc></StartTime><FrequencyChanges><FrequencyChange><Frequency dt:dt=""r8"">3215244</Frequency><Timestamp dt:dt=""r8"">7124585736004</Timestamp><Current dt:dt=""r8"">0</Current><DateUtc dt:dt=""string"">2018-10-17T16:24:39Z</DateUtc></FrequencyChange></FrequencyChanges></Clock>\n",KW_Experiment5A-24-1,59.945,1.0.0.105,1,-764369534,Professional,2.0.10.353,2.0.10.353,10/17/2018,10/17/2018 16:24,12:24:39,2.0.10.248,2,2,1,2,,,,,,,,TrainingProc,BlockList,19,2,Distractor1.bmp,1,0,,0,1,279003,601,,0,0,red,600,3,600,1,horizontal,red,Distractor2.bmp,purple,Distractor2.bmp,cyan,Distractor2.bmp,yellow,Distractor2.bmp,lime,Target2.bmp,blue,Distractor1.bmp,,,,TrialProc,,TrainingTrialList,0,2,-999999,1,279604,0,1,613,280217,Target2.bmp,lime,2,,,,5,1,19
KW_Experiment5A,24,1,"<?xml version=""1.0""?>\n<Clock xmlns:dt=""urn:schemas-microsoft-com:datatypes""><Description dt:dt=""string"">E-Prime Primary Realtime Clock</Description><StartTime><Timestamp dt:dt=""int"">0</Timestamp><DateUtc dt:dt=""string"">2018-10-17T16:24:39Z</DateUtc></StartTime><FrequencyChanges><FrequencyChange><Frequency dt:dt=""r8"">3215244</Frequency><Timestamp dt:dt=""r8"">7124585736004</Timestamp><Current dt:dt=""r8"">0</Current><DateUtc dt:dt=""string"">2018-10-17T16:24:39Z</DateUtc></FrequencyChange></FrequencyChanges></Clock>\n",KW_Experiment5A-24-1,59.945,1.0.0.105,1,-764369534,Professional,2.0.10.353,2.0.10.353,10/17/2018,10/17/2018 16:24,12:24:39,2.0.10.248,2,2,1,2,,,,,,,,TrainingProc,BlockList,20,1,Distractor2.bmp,2,0,,0,1,281239,600,,0,0,purple,600,3,600,,vertical,purple,Distractor2.bmp,lime,Distractor2.bmp,cyan,Distractor1.bmp,yellow,Distractor1.bmp,blue,Distractor2.bmp,red,Target1.bmp,,,,TrialProc,5,TrainingTrialList,0,1,-999999,0,281839,0,2,602,282441,Target1.bmp,red,1,,,,12,1,20
KW_Experiment5A,24,1,"<?xml version=""1.0""?>\n<Clock xmlns:dt=""urn:schemas-microsoft-com:datatypes""><Description dt:dt=""string"">E-Prime Primary Realtime Clock</Description><StartTime><Timestamp dt:dt=""int"">0</Timestamp><DateUtc dt:dt=""string"">2018-10-17T16:24:39Z</DateUtc></StartTime><FrequencyChanges><FrequencyChange><Frequency dt:dt=""r8"">3215244</Frequency><Timestamp dt:dt=""r8"">7124585736004</Timestamp><Current dt:dt=""r8"">0</Current><DateUtc dt:dt=""string"">2018-10-17T16:24:39Z</DateUtc></FrequencyChange></FrequencyChanges></Clock>\n",KW_Experiment5A-24-1,59.945,1.0.0.105,1,-764369534,Professional,2.0.10.353,2.0.10.353,10/17/2018,10/17/2018 16:24,12:24:39,2.0.10.248,2,2,1,2,,,,,,,,TrainingProc,BlockList,21,1,Distractor1.bmp,1,0,,0,1,283458,400,,0,0,purple,400,1,400,,vertical,purple,Distractor2.bmp,yellow,Distractor1.bmp,lime,Distractor1.bmp,blue,Distractor2.bmp,red,Target1.bmp,cyan,Distractor1.bmp,,,,TrialProc,5,TrainingTrialList,1,1,-999999,0,283858,0,1,271,284129,Target1.bmp,red,1,,,,11,1,21
KW_Experiment5A,24,1,"<?xml version=""1.0""?>\n<Clock xmlns:dt=""urn:schemas-microsoft-com:datatypes""><Description dt:dt=""string"">E-Prime Primary Realtime Clock</Description><StartTime><Timestamp dt:dt=""int"">0</Timestamp><DateUtc dt:dt=""string"">2018-10-17T16:24:39Z</DateUtc></StartTime><FrequencyChanges><FrequencyChange><Frequency dt:dt=""r8"">3215244</Frequency><Timestamp dt:dt=""r8"">7124585736004</Timestamp><Current dt:dt=""r8"">0</Current><DateUtc dt:dt=""string"">2018-10-17T16:24:39Z</DateUtc></FrequencyChange></FrequencyChanges></Clock>\n",KW_Experiment5A-24-1,59.945,1.0.0.105,1,-764369534,Professional,2.0.10.353,2.0.10.353,10/17/2018,10/17/2018 16:24,12:24:39,2.0.10.248,2,2,1,2,,,,,,,,TrainingProc,BlockList,22,2,Distractor1.bmp,1,0,,0,1,285142,501,,0,0,yellow,500,2,500,2,horizontal,yellow,Distractor1.bmp,red,Distractor1.bmp,purple,Distractor1.bmp,blue,Distractor2.bmp,cyan,Distractor2.bmp,lime,Target2.bmp,,,,TrialProc,,TrainingTrialList,0,2,-999999,1,285643,0,1,166,285809,Target2.bmp,lime,2,,,,6,1,22
KW_Experiment5A,24,1,"<?xml version=""1.0""?>\n<Clock xmlns:dt=""urn:schemas-microsoft-com:datatypes""><Description dt:dt=""string"">E-Prime Primary Realtime Clock</Description><StartTime><Timestamp dt:dt=""int"">0</Timestamp><DateUtc dt:dt=""string"">2018-10-17T16:24:39Z</DateUtc></StartTime><FrequencyChanges><FrequencyChange><Frequency dt:dt=""r8"">3215244</Frequency><Timestamp dt:dt=""r8"">7124585736004</Timestamp><Current dt:dt=""r8"">0</Current><DateUtc dt:dt=""string"">2018-10-17T16:24:39Z</DateUtc></FrequencyChange></FrequencyChanges></Clock>\n",KW_Experiment5A-24-1,59.945,1.0.0.105,1,-764369534,Professional,2.0.10.353,2.0.10.353,10/17/2018,10/17/2018 16:24,12:24:39,2.0.10.248,2,2,1,2,,,,,,,,TrainingProc,BlockList,23,2,Distractor2.bmp,2,0,,0,1,286827,501,,0,0,cyan,500,2,500,4,horizontal,cyan,Distractor2.bmp,blue,Distractor1.bmp,lime,Target2.bmp,yellow,Distractor2.bmp,purple,Distractor2.bmp,red,Distractor2.bmp,,,,TrialProc,,TrainingTrialList,1,2,-999999,1,287328,0,2,33,287361,Target2.bmp,lime,2,,,,3,1,23
KW_Experiment5A,24,1,"<?xml version=""1.0""?>\n<Clock xmlns:dt=""urn:schemas-microsoft-com:datatypes""><Description dt:dt=""string"">E-Prime Primary Realtime Clock</Description><StartTime><Timestamp dt:dt=""int"">0</Timestamp><DateUtc dt:dt=""string"">2018-10-17T16:24:39Z</DateUtc></StartTime><FrequencyChanges><FrequencyChange><Frequency dt:dt=""r8"">3215244</Frequency><Timestamp dt:dt=""r8"">7124585736004</Timestamp><Current dt:dt=""r8"">0</Current><DateUtc dt:dt=""string"">2018-10-17T16:24:39Z</DateUtc></FrequencyChange></FrequencyChanges></Clock>\n",KW_Experiment5A-24-1,59.945,1.0.0.105,1,-764369534,Professional,2.0.10.353,2.0.10.353,10/17/2018,10/17/2018 16:24,12:24:39,2.0.10.248,2,2,1,2,,,,,,,,TrainingProc,BlockList,24,2,Distractor2.bmp,2,0,,0,1,288379,500,,0,0,purple,500,2,500,5,horizontal,lime,Target2.bmp,purple,Distractor2.bmp,cyan,Distractor2.bmp,yellow,Distractor2.bmp,red,Distractor1.bmp,blue,Distractor1.bmp,,,,TrialProc,,TrainingTrialList,1,2,-999999,0,288879,0,2,26,288905,Target2.bmp,lime,2,,,,1,1,24
KW_Experiment5A,24,1,"<?xml version=""1.0""?>\n<Clock xmlns:dt=""urn:schemas-microsoft-com:datatypes""><Description dt:dt=""string"">E-Prime Primary Realtime Clock</Description><StartTime><Timestamp dt:dt=""int"">0</Timestamp><DateUtc dt:dt=""string"">2018-10-17T16:24:39Z</DateUtc></StartTime><FrequencyChanges><FrequencyChange><Frequency dt:dt=""r8"">3215244</Frequency><Timestamp dt:dt=""r8"">7124585736004</Timestamp><Current dt:dt=""r8"">0</Current><DateUtc dt:dt=""string"">2018-10-17T16:24:39Z</DateUtc></FrequencyChange></FrequencyChanges></Clock>\n",KW_Experiment5A-24-1,59.945,1.0.0.105,1,-764369534,Professional,2.0.10.353,2.0.10.353,10/17/2018,10/17/2018 16:24,12:24:39,2.0.10.248,2,2,1,2,,,,,,,,TrainingProc,BlockList,25,2,Distractor1.bmp,1,0,,0,1,289930,401,,0,0,yellow,400,1,400,2,horizontal,yellow,Distractor1.bmp,cyan,Distractor2.bmp,blue,Distractor1.bmp,lime,Target2.bmp,purple,Distractor1.bmp,red,Distractor2.bmp,,,,TrialProc,,TrainingTrialList,1,2,-999999,1,290331,0,2,406,290737,Target2.bmp,lime,2,,,,4,2,25
KW_Experiment5A,24,1,"<?xml version=""1.0""?>\n<Clock xmlns:dt=""urn:schemas-microsoft-com:datatypes""><Description dt:dt=""string"">E-Prime Primary Realtime Clock</Description><StartTime><Timestamp dt:dt=""int"">0</Timestamp><DateUtc dt:dt=""string"">2018-10-17T16:24:39Z</DateUtc></StartTime><FrequencyChanges><FrequencyChange><Frequency dt:dt=""r8"">3215244</Frequency><Timestamp dt:dt=""r8"">7124585736004</Timestamp><Current dt:dt=""r8"">0</Current><DateUtc dt:dt=""string"">2018-10-17T16:24:39Z</DateUtc></FrequencyChange></FrequencyChanges></Clock>\n",KW_Experiment5A-24-1,59.945,1.0.0.105,1,-764369534,Professional,2.0.10.353,2.0.10.353,10/17/2018,10/17/2018 16:24,12:24:39,2.0.10.248,2,2,1,2,,,,,,,,TrainingProc,BlockList,26,1,Distractor2.bmp,2,0,,1,0,291748,501,,0,0,cyan,500,2,500,4,vertical,cyan,Distractor2.bmp,purple,Distractor2.bmp,yellow,Distractor1.bmp,blue,Distractor2.bmp,lime,Target1.bmp,red,Distractor2.bmp,,,,TrialProc,,TrainingTrialList,0,1,-999999,1,292249,0,2,16,292265,Target1.bmp,lime,1,,,,5,2,26
KW_Experiment5A,24,1,"<?xml version=""1.0""?>\n<Clock xmlns:dt=""urn:schemas-microsoft-com:datatypes""><Description dt:dt=""string"">E-Prime Primary Realtime Clock</Description><StartTime><Timestamp dt:dt=""int"">0</Timestamp><DateUtc dt:dt=""string"">2018-10-17T16:24:39Z</DateUtc></StartTime><FrequencyChanges><FrequencyChange><Frequency dt:dt=""r8"">3215244</Frequency><Timestamp dt:dt=""r8"">7124585736004</Timestamp><Current dt:dt=""r8"">0</Current><DateUtc dt:dt=""string"">2018-10-17T16:24:39Z</DateUtc></FrequencyChange></FrequencyChanges></Clock>\n",KW_Experiment5A-24-1,59.945,1.0.0.105,1,-764369534,Professional,2.0.10.353,2.0.10.353,10/17/2018,10/17/2018 16:24,12:24:39,2.0.10.248,2,2,1,2,,,,,,,,TrainingProc,BlockList,27,1,Distractor2.bmp,2,0,,0,1,293283,501,,0,0,purple,500,2,500,5,vertical,purple,Distractor2.bmp,cyan,Distractor1.bmp,lime,Target1.bmp,yellow,Distractor2.bmp,red,Distractor2.bmp,blue,Distractor2.bmp,,,,TrialProc,,TrainingTrialList,1,1,-999999,1,293784,0,1,65,293849,Target1.bmp,lime,1,,,,3,2,27
KW_Experiment5A,24,1,"<?xml version=""1.0""?>\n<Clock xmlns:dt=""urn:schemas-microsoft-com:datatypes""><Description dt:dt=""string"">E-Prime Primary Realtime Clock</Description><StartTime><Timestamp dt:dt=""int"">0</Timestamp><DateUtc dt:dt=""string"">2018-10-17T16:24:39Z</DateUtc></StartTime><FrequencyChanges><FrequencyChange><Frequency dt:dt=""r8"">3215244</Frequency><Timestamp dt:dt=""r8"">7124585736004</Timestamp><Current dt:dt=""r8"">0</Current><DateUtc dt:dt=""string"">2018-10-17T16:24:39Z</DateUtc></FrequencyChange></FrequencyChanges></Clock>\n",KW_Experiment5A-24-1,59.945,1.0.0.105,1,-764369534,Professional,2.0.10.353,2.0.10.353,10/17/2018,10/17/2018 16:24,12:24:39,2.0.10.248,2,2,1,2,,,,,,,,TrainingProc,BlockList,28,2,Distractor2.bmp,2,0,,0,1,294868,601,,0,0,yellow,600,3,600,,horizontal,yellow,Distractor2.bmp,blue,Distractor1.bmp,red,Target2.bmp,purple,Distractor2.bmp,cyan,Distractor2.bmp,lime,Distractor1.bmp,,,,TrialProc,2,TrainingTrialList,0,2,-999999,1,295469,0,1,268,295737,Target2.bmp,red,2,,,,9,2,28
KW_Experiment5A,24,1,"<?xml version=""1.0""?>\n<Clock xmlns:dt=""urn:schemas-microsoft-com:datatypes""><Description dt:dt=""string"">E-Prime Primary Realtime Clock</Description><StartTime><Timestamp dt:dt=""int"">0</Timestamp><DateUtc dt:dt=""string"">2018-10-17T16:24:39Z</DateUtc></StartTime><FrequencyChanges><FrequencyChange><Frequency dt:dt=""r8"">3215244</Frequency><Timestamp dt:dt=""r8"">7124585736004</Timestamp><Current dt:dt=""r8"">0</Current><DateUtc dt:dt=""string"">2018-10-17T16:24:39Z</DateUtc></FrequencyChange></FrequencyChanges></Clock>\n",KW_Experiment5A-24-1,59.945,1.0.0.105,1,-764369534,Professional,2.0.10.353,2.0.10.353,10/17/2018,10/17/2018 16:24,12:24:39,2.0.10.248,2,2,1,2,,,,,,,,TrainingProc,BlockList,29,1,Distractor2.bmp,2,0,,0,1,296753,400,,0,0,purple,400,1,400,,vertical,purple,Distractor2.bmp,red,Target1.bmp,yellow,Distractor2.bmp,lime,Distractor2.bmp,cyan,Distractor2.bmp,blue,Distractor2.bmp,,,,TrialProc,5,TrainingTrialList,0,1,-999999,0,297153,0,2,232,297385,Target1.bmp,red,1,,,,8,2,29
KW_Experiment5A,24,1,"<?xml version=""1.0""?>\n<Clock xmlns:dt=""urn:schemas-microsoft-com:datatypes""><Description dt:dt=""string"">E-Prime Primary Realtime Clock</Description><StartTime><Timestamp dt:dt=""int"">0</Timestamp><DateUtc dt:dt=""string"">2018-10-17T16:24:39Z</DateUtc></StartTime><FrequencyChanges><FrequencyChange><Frequency dt:dt=""r8"">3215244</Frequency><Timestamp dt:dt=""r8"">7124585736004</Timestamp><Current dt:dt=""r8"">0</Current><DateUtc dt:dt=""string"">2018-10-17T16:24:39Z</DateUtc></FrequencyChange></FrequencyChanges></Clock>\n",KW_Experiment5A-24-1,59.945,1.0.0.105,1,-764369534,Professional,2.0.10.353,2.0.10.353,10/17/2018,10/17/2018 16:24,12:24:39,2.0.10.248,2,2,1,2,,,,,,,,TrainingProc,BlockList,30,1,Distractor2.bmp,2,0,,0,1,298405,500,,0,0,red,500,2,500,1,vertical,red,Distractor2.bmp,purple,Distractor2.bmp,cyan,Distractor2.bmp,blue,Distractor2.bmp,yellow,Distractor2.bmp,lime,Target1.bmp,,,,TrialProc,,TrainingTrialList,1,1,-999999,0,298905,0,1,144,299049,Target1.bmp,lime,1,,,,6,2,30
KW_Experiment5A,24,1,"<?xml version=""1.0""?>\n<Clock xmlns:dt=""urn:schemas-microsoft-com:datatypes""><Description dt:dt=""string"">E-Prime Primary Realtime Clock</Description><StartTime><Timestamp dt:dt=""int"">0</Timestamp><DateUtc dt:dt=""string"">2018-10-17T16:24:39Z</DateUtc></StartTime><FrequencyChanges><FrequencyChange><Frequency dt:dt=""r8"">3215244</Frequency><Timestamp dt:dt=""r8"">7124585736004</Timestamp><Current dt:dt=""r8"">0</Current><DateUtc dt:dt=""string"">2018-10-17T16:24:39Z</DateUtc></FrequencyChange></FrequencyChanges></Clock>\n",KW_Experiment5A-24-1,59.945,1.0.0.105,1,-764369534,Professional,2.0.10.353,2.0.10.353,10/17/2018,10/17/2018 16:24,12:24:39,2.0.10.248,2,2,1,2,,,,,,,,TrainingProc,BlockList,31,1,Distractor1.bmp,1,0,,0,1,300073,400,,0,0,cyan,400,1,400,4,vertical,cyan,Distractor2.bmp,lime,Target1.bmp,purple,Distractor1.bmp,yellow,Distractor1.bmp,red,Distractor1.bmp,blue,Distractor2.bmp,,,,TrialProc,,TrainingTrialList,1,1,-999999,0,300473,0,1,48,300521,Target1.bmp,lime,1,,,,2,2,31
KW_Experiment5A,24,1,"<?xml version=""1.0""?>\n<Clock xmlns:dt=""urn:schemas-microsoft-com:datatypes""><Description dt:dt=""string"">E-Prime Primary Realtime Clock</Description><StartTime><Timestamp dt:dt=""int"">0</Timestamp><DateUtc dt:dt=""string"">2018-10-17T16:24:39Z</DateUtc></StartTime><FrequencyChanges><FrequencyChange><Frequency dt:dt=""r8"">3215244</Frequency><Timestamp dt:dt=""r8"">7124585736004</Timestamp><Current dt:dt=""r8"">0</Current><DateUtc dt:dt=""string"">2018-10-17T16:24:39Z</DateUtc></FrequencyChange></FrequencyChanges></Clock>\n",KW_Experiment5A-24-1,59.945,1.0.0.105,1,-764369534,Professional,2.0.10.353,2.0.10.353,10/17/2018,10/17/2018 16:24,12:24:39,2.0.10.248,2,2,1,2,,,,,,,,TrainingProc,BlockList,32,1,Distractor2.bmp,2,0,,0,1,301541,500,,0,0,yellow,500,2,500,,vertical,red,Target1.bmp,purple,Distractor2.bmp,cyan,Distractor1.bmp,lime,Distractor2.bmp,blue,Distractor1.bmp,yellow,Distractor1.bmp,,,,TrialProc,2,TrainingTrialList,1,1,-999999,0,302041,0,1,368,302409,Target1.bmp,red,1,,,,7,2,32
KW_Experiment5A,24,1,"<?xml version=""1.0""?>\n<Clock xmlns:dt=""urn:schemas-microsoft-com:datatypes""><Description dt:dt=""string"">E-Prime Primary Realtime Clock</Description><StartTime><Timestamp dt:dt=""int"">0</Timestamp><DateUtc dt:dt=""string"">2018-10-17T16:24:39Z</DateUtc></StartTime><FrequencyChanges><FrequencyChange><Frequency dt:dt=""r8"">3215244</Frequency><Timestamp dt:dt=""r8"">7124585736004</Timestamp><Current dt:dt=""r8"">0</Current><DateUtc dt:dt=""string"">2018-10-17T16:24:39Z</DateUtc></FrequencyChange></FrequencyChanges></Clock>\n",KW_Experiment5A-24-1,59.945,1.0.0.105,1,-764369534,Professional,2.0.10.353,2.0.10.353,10/17/2018,10/17/2018 16:24,12:24:39,2.0.10.248,2,2,1,2,,,,,,,,TrainingProc,BlockList,33,1,Distractor2.bmp,2,0,,0,1,303426,400,,0,0,red,400,1,400,1,vertical,red,Distractor1.bmp,cyan,Distractor2.bmp,blue,Distractor2.bmp,purple,Distractor2.bmp,lime,Target1.bmp,yellow,Distractor2.bmp,,,,TrialProc,,TrainingTrialList,1,1,-999999,0,303826,0,1,111,303937,Target1.bmp,lime,1,,,,5,2,33
KW_Experiment5A,24,1,"<?xml version=""1.0""?>\n<Clock xmlns:dt=""urn:schemas-microsoft-com:datatypes""><Description dt:dt=""string"">E-Prime Primary Realtime Clock</Description><StartTime><Timestamp dt:dt=""int"">0</Timestamp><DateUtc dt:dt=""string"">2018-10-17T16:24:39Z</DateUtc></StartTime><FrequencyChanges><FrequencyChange><Frequency dt:dt=""r8"">3215244</Frequency><Timestamp dt:dt=""r8"">7124585736004</Timestamp><Current dt:dt=""r8"">0</Current><DateUtc dt:dt=""string"">2018-10-17T16:24:39Z</DateUtc></FrequencyChange></FrequencyChanges></Clock>\n",KW_Experiment5A-24-1,59.945,1.0.0.105,1,-764369534,Professional,2.0.10.353,2.0.10.353,10/17/2018,10/17/2018 16:24,12:24:39,2.0.10.248,2,2,1,2,,,,,,,,TrainingProc,BlockList,34,1,Distractor2.bmp,2,0,,0,1,304961,500,,0,0,purple,500,2,500,5,vertical,lime,Target1.bmp,purple,Distractor2.bmp,yellow,Distractor2.bmp,red,Distractor1.bmp,blue,Distractor2.bmp,cyan,Distractor1.bmp,,,,TrialProc,,TrainingTrialList,1,1,-999999,0,305461,0,1,732,306193,Target1.bmp,lime,1,,,,1,2,34
KW_Experiment5A,24,1,"<?xml version=""1.0""?>\n<Clock xmlns:dt=""urn:schemas-microsoft-com:datatypes""><Description dt:dt=""string"">E-Prime Primary Realtime Clock</Description><StartTime><Timestamp dt:dt=""int"">0</Timestamp><DateUtc dt:dt=""string"">2018-10-17T16:24:39Z</DateUtc></StartTime><FrequencyChanges><FrequencyChange><Frequency dt:dt=""r8"">3215244</Frequency><Timestamp dt:dt=""r8"">7124585736004</Timestamp><Current dt:dt=""r8"">0</Current><DateUtc dt:dt=""string"">2018-10-17T16:24:39Z</DateUtc></FrequencyChange></FrequencyChanges></Clock>\n",KW_Experiment5A-24-1,59.945,1.0.0.105,1,-764369534,Professional,2.0.10.353,2.0.10.353,10/17/2018,10/17/2018 16:24,12:24:39,2.0.10.248,2,2,1,2,,,,,,,,TrainingProc,BlockList,35,1,Distractor2.bmp,2,0,,0,1,307213,400,,0,0,blue,400,1,400,3,vertical,lime,Target1.bmp,blue,Distractor2.bmp,yellow,Distractor1.bmp,red,Distractor2.bmp,cyan,Distractor1.bmp,purple,Distractor1.bmp,,,,TrialProc,,TrainingTrialList,1,1,-999999,0,307613,0,1,916,308529,Target1.bmp,lime,1,,,,1,2,35
KW_Experiment5A,24,1,"<?xml version=""1.0""?>\n<Clock xmlns:dt=""urn:schemas-microsoft-com:datatypes""><Description dt:dt=""string"">E-Prime Primary Realtime Clock</Description><StartTime><Timestamp dt:dt=""int"">0</Timestamp><DateUtc dt:dt=""string"">2018-10-17T16:24:39Z</DateUtc></StartTime><FrequencyChanges><FrequencyChange><Frequency dt:dt=""r8"">3215244</Frequency><Timestamp dt:dt=""r8"">7124585736004</Timestamp><Current dt:dt=""r8"">0</Current><DateUtc dt:dt=""string"">2018-10-17T16:24:39Z</DateUtc></FrequencyChange></FrequencyChanges></Clock>\n",KW_Experiment5A-24-1,59.945,1.0.0.105,1,-764369534,Professional,2.0.10.353,2.0.10.353,10/17/2018,10/17/2018 16:24,12:24:39,2.0.10.248,2,2,1,2,,,,,,,,TrainingProc,BlockList,36,2,Distractor1.bmp,1,0,,0,1,309548,501,,0,0,blue,500,2,500,3,horizontal,blue,Distractor2.bmp,cyan,Distractor2.bmp,lime,Target2.bmp,purple,Distractor1.bmp,red,Distractor2.bmp,yellow,Distractor2.bmp,,,,TrialProc,,TrainingTrialList,1,2,-999999,1,310049,0,2,520,310569,Target2.bmp,lime,2,,,,3,2,36
KW_Experiment5A,24,1,"<?xml version=""1.0""?>\n<Clock xmlns:dt=""urn:schemas-microsoft-com:datatypes""><Description dt:dt=""string"">E-Prime Primary Realtime Clock</Description><StartTime><Timestamp dt:dt=""int"">0</Timestamp><DateUtc dt:dt=""string"">2018-10-17T16:24:39Z</DateUtc></StartTime><FrequencyChanges><FrequencyChange><Frequency dt:dt=""r8"">3215244</Frequency><Timestamp dt:dt=""r8"">7124585736004</Timestamp><Current dt:dt=""r8"">0</Current><DateUtc dt:dt=""string"">2018-10-17T16:24:39Z</DateUtc></FrequencyChange></FrequencyChanges></Clock>\n",KW_Experiment5A-24-1,59.945,1.0.0.105,1,-764369534,Professional,2.0.10.353,2.0.10.353,10/17/2018,10/17/2018 16:24,12:24:39,2.0.10.248,2,2,1,2,,,,,,,,TrainingProc,BlockList,37,2,Distractor2.bmp,2,0,,1,0,311583,601,,0,0,yellow,600,3,600,,horizontal,yellow,Distractor2.bmp,lime,Distractor2.bmp,purple,Distractor2.bmp,blue,Distractor2.bmp,cyan,Distractor2.bmp,red,Target2.bmp,,,,TrialProc,2,TrainingTrialList,1,2,-999999,1,312184,0,2,465,312649,Target2.bmp,red,2,,,,12,2,37
KW_Experiment5A,24,1,"<?xml version=""1.0""?>\n<Clock xmlns:dt=""urn:schemas-microsoft-com:datatypes""><Description dt:dt=""string"">E-Prime Primary Realtime Clock</Description><StartTime><Timestamp dt:dt=""int"">0</Timestamp><DateUtc dt:dt=""string"">2018-10-17T16:24:39Z</DateUtc></StartTime><FrequencyChanges><FrequencyChange><Frequency dt:dt=""r8"">3215244</Frequency><Timestamp dt:dt=""r8"">7124585736004</Timestamp><Current dt:dt=""r8"">0</Current><DateUtc dt:dt=""string"">2018-10-17T16:24:39Z</DateUtc></FrequencyChange></FrequencyChanges></Clock>\n",KW_Experiment5A-24-1,59.945,1.0.0.105,1,-764369534,Professional,2.0.10.353,2.0.10.353,10/17/2018,10/17/2018 16:24,12:24:39,2.0.10.248,2,2,1,2,,,,,,,,TrainingProc,BlockList,38,1,Distractor2.bmp,2,0,,0,1,313669,600,,0,0,blue,600,3,600,3,vertical,blue,Distractor2.bmp,lime,Target1.bmp,red,Distractor2.bmp,yellow,Distractor2.bmp,cyan,Distractor2.bmp,purple,Distractor2.bmp,,,,TrialProc,,TrainingTrialList,0,1,-999999,0,314269,0,2,652,314921,Target1.bmp,lime,1,,,,2,2,38
KW_Experiment5A,24,1,"<?xml version=""1.0""?>\n<Clock xmlns:dt=""urn:schemas-microsoft-com:datatypes""><Description dt:dt=""string"">E-Prime Primary Realtime Clock</Description><StartTime><Timestamp dt:dt=""int"">0</Timestamp><DateUtc dt:dt=""string"">2018-10-17T16:24:39Z</DateUtc></StartTime><FrequencyChanges><FrequencyChange><Frequency dt:dt=""r8"">3215244</Frequency><Timestamp dt:dt=""r8"">7124585736004</Timestamp><Current dt:dt=""r8"">0</Current><DateUtc dt:dt=""string"">2018-10-17T16:24:39Z</DateUtc></FrequencyChange></FrequencyChanges></Clock>\n",KW_Experiment5A-24-1,59.945,1.0.0.105,1,-764369534,Professional,2.0.10.353,2.0.10.353,10/17/2018,10/17/2018 16:24,12:24:39,2.0.10.248,2,2,1,2,,,,,,,,TrainingProc,BlockList,39,2,Distractor2.bmp,2,0,,1,0,315937,501,,0,0,purple,500,2,500,5,horizontal,purple,Distractor1.bmp,yellow,Distractor2.bmp,cyan,Distractor2.bmp,red,Distractor1.bmp,lime,Target2.bmp,blue,Distractor2.bmp,,,,TrialProc,,TrainingTrialList,1,2,-999999,1,316438,0,2,1499,317937,Target2.bmp,lime,2,,,,5,2,39
KW_Experiment5A,24,1,"<?xml version=""1.0""?>\n<Clock xmlns:dt=""urn:schemas-microsoft-com:datatypes""><Description dt:dt=""string"">E-Prime Primary Realtime Clock</Description><StartTime><Timestamp dt:dt=""int"">0</Timestamp><DateUtc dt:dt=""string"">2018-10-17T16:24:39Z</DateUtc></StartTime><FrequencyChanges><FrequencyChange><Frequency dt:dt=""r8"">3215244</Frequency><Timestamp dt:dt=""r8"">7124585736004</Timestamp><Current dt:dt=""r8"">0</Current><DateUtc dt:dt=""string"">2018-10-17T16:24:39Z</DateUtc></FrequencyChange></FrequencyChanges></Clock>\n",KW_Experiment5A-24-1,59.945,1.0.0.105,1,-764369534,Professional,2.0.10.353,2.0.10.353,10/17/2018,10/17/2018 16:24,12:24:39,2.0.10.248,2,2,1,2,,,,,,,,TrainingProc,BlockList,40,1,Distractor1.bmp,1,0,,0,1,318957,400,,0,0,yellow,400,1,400,2,vertical,yellow,Distractor1.bmp,cyan,Distractor1.bmp,blue,Distractor2.bmp,lime,Target1.bmp,purple,Distractor1.bmp,red,Distractor2.bmp,,,,TrialProc,,TrainingTrialList,1,1,-999999,0,319357,0,1,244,319601,Target1.bmp,lime,1,,,,4,2,40
KW_Experiment5A,24,1,"<?xml version=""1.0""?>\n<Clock xmlns:dt=""urn:schemas-microsoft-com:datatypes""><Description dt:dt=""string"">E-Prime Primary Realtime Clock</Description><StartTime><Timestamp dt:dt=""int"">0</Timestamp><DateUtc dt:dt=""string"">2018-10-17T16:24:39Z</DateUtc></StartTime><FrequencyChanges><FrequencyChange><Frequency dt:dt=""r8"">3215244</Frequency><Timestamp dt:dt=""r8"">7124585736004</Timestamp><Current dt:dt=""r8"">0</Current><DateUtc dt:dt=""string"">2018-10-17T16:24:39Z</DateUtc></FrequencyChange></FrequencyChanges></Clock>\n",KW_Experiment5A-24-1,59.945,1.0.0.105,1,-764369534,Professional,2.0.10.353,2.0.10.353,10/17/2018,10/17/2018 16:24,12:24:39,2.0.10.248,2,2,1,2,,,,,,,,TrainingProc,BlockList,41,2,Distractor2.bmp,2,0,,0,1,320625,501,,0,0,blue,500,2,500,3,horizontal,blue,Distractor2.bmp,cyan,Distractor2.bmp,red,Distractor2.bmp,purple,Distractor2.bmp,yellow,Distractor2.bmp,lime,Target2.bmp,,,,TrialProc,,TrainingTrialList,1,2,-999999,1,321126,0,2,171,321297,Target2.bmp,lime,2,,,,6,2,41
KW_Experiment5A,24,1,"<?xml version=""1.0""?>\n<Clock xmlns:dt=""urn:schemas-microsoft-com:datatypes""><Description dt:dt=""string"">E-Prime Primary Realtime Clock</Description><StartTime><Timestamp dt:dt=""int"">0</Timestamp><DateUtc dt:dt=""string"">2018-10-17T16:24:39Z</DateUtc></StartTime><FrequencyChanges><FrequencyChange><Frequency dt:dt=""r8"">3215244</Frequency><Timestamp dt:dt=""r8"">7124585736004</Timestamp><Current dt:dt=""r8"">0</Current><DateUtc dt:dt=""string"">2018-10-17T16:24:39Z</DateUtc></FrequencyChange></FrequencyChanges></Clock>\n",KW_Experiment5A-24-1,59.945,1.0.0.105,1,-764369534,Professional,2.0.10.353,2.0.10.353,10/17/2018,10/17/2018 16:24,12:24:39,2.0.10.248,2,2,1,2,,,,,,,,TrainingProc,BlockList,42,1,Distractor2.bmp,2,0,,0,1,322310,500,,0,0,yellow,500,2,500,,vertical,yellow,Distractor2.bmp,purple,Distractor2.bmp,lime,Distractor1.bmp,red,Target1.bmp,blue,Distractor2.bmp,cyan,Distractor1.bmp,,,,TrialProc,2,TrainingTrialList,0,1,-999999,0,322810,0,2,287,323097,Target1.bmp,red,1,,,,10,2,42
KW_Experiment5A,24,1,"<?xml version=""1.0""?>\n<Clock xmlns:dt=""urn:schemas-microsoft-com:datatypes""><Description dt:dt=""string"">E-Prime Primary Realtime Clock</Description><StartTime><Timestamp dt:dt=""int"">0</Timestamp><DateUtc dt:dt=""string"">2018-10-17T16:24:39Z</DateUtc></StartTime><FrequencyChanges><FrequencyChange><Frequency dt:dt=""r8"">3215244</Frequency><Timestamp dt:dt=""r8"">7124585736004</Timestamp><Current dt:dt=""r8"">0</Current><DateUtc dt:dt=""string"">2018-10-17T16:24:39Z</DateUtc></FrequencyChange></FrequencyChanges></Clock>\n",KW_Experiment5A-24-1,59.945,1.0.0.105,1,-764369534,Professional,2.0.10.353,2.0.10.353,10/17/2018,10/17/2018 16:24,12:24:39,2.0.10.248,2,2,1,2,,,,,,,,TrainingProc,BlockList,43,2,Distractor1.bmp,1,0,,0,1,324112,600,,0,0,red,600,3,600,1,horizontal,red,Distractor2.bmp,yellow,Distractor1.bmp,lime,Target2.bmp,blue,Distractor1.bmp,purple,Distractor2.bmp,cyan,Distractor2.bmp,,,,TrialProc,,TrainingTrialList,0,2,-999999,0,324712,0,1,185,324897,Target2.bmp,lime,2,,,,3,2,43
KW_Experiment5A,24,1,"<?xml version=""1.0""?>\n<Clock xmlns:dt=""urn:schemas-microsoft-com:datatypes""><Description dt:dt=""string"">E-Prime Primary Realtime Clock</Description><StartTime><Timestamp dt:dt=""int"">0</Timestamp><DateUtc dt:dt=""string"">2018-10-17T16:24:39Z</DateUtc></StartTime><FrequencyChanges><FrequencyChange><Frequency dt:dt=""r8"">3215244</Frequency><Timestamp dt:dt=""r8"">7124585736004</Timestamp><Current dt:dt=""r8"">0</Current><DateUtc dt:dt=""string"">2018-10-17T16:24:39Z</DateUtc></FrequencyChange></FrequencyChanges></Clock>\n",KW_Experiment5A-24-1,59.945,1.0.0.105,1,-764369534,Professional,2.0.10.353,2.0.10.353,10/17/2018,10/17/2018 16:24,12:24:39,2.0.10.248,2,2,1,2,,,,,,,,TrainingProc,BlockList,44,2,Distractor1.bmp,1,0,,0,1,325913,601,,0,0,yellow,600,3,600,2,horizontal,yellow,Distractor2.bmp,lime,Target2.bmp,purple,Distractor1.bmp,red,Distractor1.bmp,blue,Distractor2.bmp,cyan,Distractor2.bmp,,,,TrialProc,,TrainingTrialList,1,2,-999999,1,326514,0,2,351,326865,Target2.bmp,lime,2,,,,2,2,44
KW_Experiment5A,24,1,"<?xml version=""1.0""?>\n<Clock xmlns:dt=""urn:schemas-microsoft-com:datatypes""><Description dt:dt=""string"">E-Prime Primary Realtime Clock</Description><StartTime><Timestamp dt:dt=""int"">0</Timestamp><DateUtc dt:dt=""string"">2018-10-17T16:24:39Z</DateUtc></StartTime><FrequencyChanges><FrequencyChange><Frequency dt:dt=""r8"">3215244</Frequency><Timestamp dt:dt=""r8"">7124585736004</Timestamp><Current dt:dt=""r8"">0</Current><DateUtc dt:dt=""string"">2018-10-17T16:24:39Z</DateUtc></FrequencyChange></FrequencyChanges></Clock>\n",KW_Experiment5A-24-1,59.945,1.0.0.105,1,-764369534,Professional,2.0.10.353,2.0.10.353,10/17/2018,10/17/2018 16:24,12:24:39,2.0.10.248,2,2,1,2,,,,,,,,TrainingProc,BlockList,45,2,Distractor1.bmp,1,0,,0,1,327882,400,,0,0,yellow,400,1,400,,horizontal,yellow,Distractor2.bmp,cyan,Distractor2.bmp,blue,Distractor2.bmp,purple,Distractor2.bmp,red,Target2.bmp,lime,Distractor1.bmp,,,,TrialProc,2,TrainingTrialList,1,2,-999999,0,328282,0,2,407,328689,Target2.bmp,red,2,,,,11,2,45
KW_Experiment5A,24,1,"<?xml version=""1.0""?>\n<Clock xmlns:dt=""urn:schemas-microsoft-com:datatypes""><Description dt:dt=""string"">E-Prime Primary Realtime Clock</Description><StartTime><Timestamp dt:dt=""int"">0</Timestamp><DateUtc dt:dt=""string"">2018-10-17T16:24:39Z</DateUtc></StartTime><FrequencyChanges><FrequencyChange><Frequency dt:dt=""r8"">3215244</Frequency><Timestamp dt:dt=""r8"">7124585736004</Timestamp><Current dt:dt=""r8"">0</Current><DateUtc dt:dt=""string"">2018-10-17T16:24:39Z</DateUtc></FrequencyChange></FrequencyChanges></Clock>\n",KW_Experiment5A-24-1,59.945,1.0.0.105,1,-764369534,Professional,2.0.10.353,2.0.10.353,10/17/2018,10/17/2018 16:24,12:24:39,2.0.10.248,2,2,1,2,,,,,,,,TrainingProc,BlockList,46,2,Distractor1.bmp,1,0,,0,1,329700,401,,0,0,blue,400,1,400,3,horizontal,blue,Distractor2.bmp,yellow,Distractor2.bmp,red,Distractor1.bmp,lime,Target2.bmp,purple,Distractor1.bmp,cyan,Distractor2.bmp,,,,TrialProc,,TrainingTrialList,1,2,-999999,1,330101,0,2,444,330545,Target2.bmp,lime,2,,,,4,2,46
KW_Experiment5A,24,1,"<?xml version=""1.0""?>\n<Clock xmlns:dt=""urn:schemas-microsoft-com:datatypes""><Description dt:dt=""string"">E-Prime Primary Realtime Clock</Description><StartTime><Timestamp dt:dt=""int"">0</Timestamp><DateUtc dt:dt=""string"">2018-10-17T16:24:39Z</DateUtc></StartTime><FrequencyChanges><FrequencyChange><Frequency dt:dt=""r8"">3215244</Frequency><Timestamp dt:dt=""r8"">7124585736004</Timestamp><Current dt:dt=""r8"">0</Current><DateUtc dt:dt=""string"">2018-10-17T16:24:39Z</DateUtc></FrequencyChange></FrequencyChanges></Clock>\n",KW_Experiment5A-24-1,59.945,1.0.0.105,1,-764369534,Professional,2.0.10.353,2.0.10.353,10/17/2018,10/17/2018 16:24,12:24:39,2.0.10.248,2,2,1,2,,,,,,,,TrainingProc,BlockList,47,1,Distractor2.bmp,2,0,,0,1,331569,500,,0,0,red,500,2,500,1,vertical,red,Distractor2.bmp,cyan,Distractor2.bmp,purple,Distractor1.bmp,yellow,Distractor1.bmp,blue,Distractor1.bmp,lime,Target1.bmp,,,,TrialProc,,TrainingTrialList,0,1,-999999,0,332069,0,2,228,332297,Target1.bmp,lime,1,,,,6,2,47
KW_Experiment5A,24,1,"<?xml version=""1.0""?>\n<Clock xmlns:dt=""urn:schemas-microsoft-com:datatypes""><Description dt:dt=""string"">E-Prime Primary Realtime Clock</Description><StartTime><Timestamp dt:dt=""int"">0</Timestamp><DateUtc dt:dt=""string"">2018-10-17T16:24:39Z</DateUtc></StartTime><FrequencyChanges><FrequencyChange><Frequency dt:dt=""r8"">3215244</Frequency><Timestamp dt:dt=""r8"">7124585736004</Timestamp><Current dt:dt=""r8"">0</Current><DateUtc dt:dt=""string"">2018-10-17T16:24:39Z</DateUtc></FrequencyChange></FrequencyChanges></Clock>\n",KW_Experiment5A-24-1,59.945,1.0.0.105,1,-764369534,Professional,2.0.10.353,2.0.10.353,10/17/2018,10/17/2018 16:24,12:24:39,2.0.10.248,2,2,1,2,,,,,,,,TrainingProc,BlockList,48,2,Distractor1.bmp,1,0,,0,1,333320,400,,0,0,yellow,400,1,400,2,horizontal,lime,Target2.bmp,yellow,Distractor1.bmp,cyan,Distractor1.bmp,purple,Distractor2.bmp,blue,Distractor1.bmp,red,Distractor1.bmp,,,,TrialProc,,TrainingTrialList,0,2,-999999,0,333720,0,1,241,333961,Target2.bmp,lime,2,,,,1,2,48
KW_Experiment5A,24,1,"<?xml version=""1.0""?>\n<Clock xmlns:dt=""urn:schemas-microsoft-com:datatypes""><Description dt:dt=""string"">E-Prime Primary Realtime Clock</Description><StartTime><Timestamp dt:dt=""int"">0</Timestamp><DateUtc dt:dt=""string"">2018-10-17T16:24:39Z</DateUtc></StartTime><FrequencyChanges><FrequencyChange><Frequency dt:dt=""r8"">3215244</Frequency><Timestamp dt:dt=""r8"">7124585736004</Timestamp><Current dt:dt=""r8"">0</Current><DateUtc dt:dt=""string"">2018-10-17T16:24:39Z</DateUtc></FrequencyChange></FrequencyChanges></Clock>\n",KW_Experiment5A-24-1,59.945,1.0.0.105,1,-764369534,Professional,2.0.10.353,2.0.10.353,10/17/2018,10/17/2018 16:24,12:24:39,2.0.10.248,3,2,1,3,,,,,,,,TrainingProc,BlockList,1,1,Distractor1.bmp,1,0,,0,17,337674,601,,0,0,purple,600,3,600,5,vertical,purple,Distractor1.bmp,yellow,Distractor2.bmp,red,Distractor1.bmp,lime,Target1.bmp,cyan,Distractor1.bmp,blue,Distractor1.bmp,,,,TrialProc,,TrainingTrialList,0,1,-999999,1,338275,0,2,1086,339361,Target1.bmp,lime,1,,,,4,3,49
KW_Experiment5A,24,1,"<?xml version=""1.0""?>\n<Clock xmlns:dt=""urn:schemas-microsoft-com:datatypes""><Description dt:dt=""string"">E-Prime Primary Realtime Clock</Description><StartTime><Timestamp dt:dt=""int"">0</Timestamp><DateUtc dt:dt=""string"">2018-10-17T16:24:39Z</DateUtc></StartTime><FrequencyChanges><FrequencyChange><Frequency dt:dt=""r8"">3215244</Frequency><Timestamp dt:dt=""r8"">7124585736004</Timestamp><Current dt:dt=""r8"">0</Current><DateUtc dt:dt=""string"">2018-10-17T16:24:39Z</DateUtc></FrequencyChange></FrequencyChanges></Clock>\n",KW_Experiment5A-24-1,59.945,1.0.0.105,1,-764369534,Professional,2.0.10.353,2.0.10.353,10/17/2018,10/17/2018 16:24,12:24:39,2.0.10.248,3,2,1,3,,,,,,,,TrainingProc,BlockList,2,1,Distractor1.bmp,1,0,,0,1,340377,500,,0,0,yellow,500,2,500,2,vertical,yellow,Distractor2.bmp,purple,Distractor1.bmp,lime,Target1.bmp,red,Distractor1.bmp,cyan,Distractor1.bmp,blue,Distractor1.bmp,,,,TrialProc,,TrainingTrialList,1,1,-999999,0,340877,0,1,420,341297,Target1.bmp,lime,1,,,,3,3,50
KW_Experiment5A,24,1,"<?xml version=""1.0""?>\n<Clock xmlns:dt=""urn:schemas-microsoft-com:datatypes""><Description dt:dt=""string"">E-Prime Primary Realtime Clock</Description><StartTime><Timestamp dt:dt=""int"">0</Timestamp><DateUtc dt:dt=""string"">2018-10-17T16:24:39Z</DateUtc></StartTime><FrequencyChanges><FrequencyChange><Frequency dt:dt=""r8"">3215244</Frequency><Timestamp dt:dt=""r8"">7124585736004</Timestamp><Current dt:dt=""r8"">0</Current><DateUtc dt:dt=""string"">2018-10-17T16:24:39Z</DateUtc></FrequencyChange></FrequencyChanges></Clock>\n",KW_Experiment5A-24-1,59.945,1.0.0.105,1,-764369534,Professional,2.0.10.353,2.0.10.353,10/17/2018,10/17/2018 16:24,12:24:39,2.0.10.248,3,2,1,3,,,,,,,,TrainingProc,BlockList,3,2,Distractor1.bmp,1,0,,0,1,342312,500,,0,0,cyan,500,2,500,4,horizontal,lime,Target2.bmp,cyan,Distractor1.bmp,red,Distractor1.bmp,blue,Distractor2.bmp,yellow,Distractor1.bmp,purple,Distractor2.bmp,,,,TrialProc,,TrainingTrialList,0,2,-999999,0,342812,0,1,557,343369,Target2.bmp,lime,2,,,,1,3,51
KW_Experiment5A,24,1,"<?xml version=""1.0""?>\n<Clock xmlns:dt=""urn:schemas-microsoft-com:datatypes""><Description dt:dt=""string"">E-Prime Primary Realtime Clock</Description><StartTime><Timestamp dt:dt=""int"">0</Timestamp><DateUtc dt:dt=""string"">2018-10-17T16:24:39Z</DateUtc></StartTime><FrequencyChanges><FrequencyChange><Frequency dt:dt=""r8"">3215244</Frequency><Timestamp dt:dt=""r8"">7124585736004</Timestamp><Current dt:dt=""r8"">0</Current><DateUtc dt:dt=""string"">2018-10-17T16:24:39Z</DateUtc></FrequencyChange></FrequencyChanges></Clock>\n",KW_Experiment5A-24-1,59.945,1.0.0.105,1,-764369534,Professional,2.0.10.353,2.0.10.353,10/17/2018,10/17/2018 16:24,12:24:39,2.0.10.248,3,2,1,3,,,,,,,,TrainingProc,BlockList,4,1,Distractor1.bmp,1,0,,0,1,344380,501,,0,0,lime,500,2,500,,vertical,lime,Distractor2.bmp,blue,Distractor1.bmp,red,Target1.bmp,cyan,Distractor1.bmp,yellow,Distractor1.bmp,purple,Distractor1.bmp,,,,TrialProc,6,TrainingTrialList,1,1,-999999,1,344881,0,1,1496,346377,Target1.bmp,red,1,,,,9,3,52
KW_Experiment5A,24,1,"<?xml version=""1.0""?>\n<Clock xmlns:dt=""urn:schemas-microsoft-com:datatypes""><Description dt:dt=""string"">E-Prime Primary Realtime Clock</Description><StartTime><Timestamp dt:dt=""int"">0</Timestamp><DateUtc dt:dt=""string"">2018-10-17T16:24:39Z</DateUtc></StartTime><FrequencyChanges><FrequencyChange><Frequency dt:dt=""r8"">3215244</Frequency><Timestamp dt:dt=""r8"">7124585736004</Timestamp><Current dt:dt=""r8"">0</Current><DateUtc dt:dt=""string"">2018-10-17T16:24:39Z</DateUtc></FrequencyChange></FrequencyChanges></Clock>\n",KW_Experiment5A-24-1,59.945,1.0.0.105,1,-764369534,Professional,2.0.10.353,2.0.10.353,10/17/2018,10/17/2018 16:24,12:24:39,2.0.10.248,3,2,1,3,,,,,,,,TrainingProc,BlockList,5,1,Distractor1.bmp,1,0,,0,1,347400,600,,0,0,yellow,600,3,600,2,vertical,yellow,Distractor1.bmp,purple,Distractor2.bmp,cyan,Distractor1.bmp,lime,Target1.bmp,blue,Distractor1.bmp,red,Distractor2.bmp,,,,TrialProc,,TrainingTrialList,1,1,-999999,0,348000,0,1,153,348153,Target1.bmp,lime,1,,,,4,3,53
KW_Experiment5A,24,1,"<?xml version=""1.0""?>\n<Clock xmlns:dt=""urn:schemas-microsoft-com:datatypes""><Description dt:dt=""string"">E-Prime Primary Realtime Clock</Description><StartTime><Timestamp dt:dt=""int"">0</Timestamp><DateUtc dt:dt=""string"">2018-10-17T16:24:39Z</DateUtc></StartTime><FrequencyChanges><FrequencyChange><Frequency dt:dt=""r8"">3215244</Frequency><Timestamp dt:dt=""r8"">7124585736004</Timestamp><Current dt:dt=""r8"">0</Current><DateUtc dt:dt=""string"">2018-10-17T16:24:39Z</DateUtc></FrequencyChange></FrequencyChanges></Clock>\n",KW_Experiment5A-24-1,59.945,1.0.0.105,1,-764369534,Professional,2.0.10.353,2.0.10.353,10/17/2018,10/17/2018 16:24,12:24:39,2.0.10.248,3,2,1,3,,,,,,,,TrainingProc,BlockList,6,2,Distractor2.bmp,2,0,,0,1,349168,601,,0,0,yellow,600,3,600,,horizontal,yellow,Distractor2.bmp,red,Target2.bmp,blue,Distractor2.bmp,purple,Distractor2.bmp,lime,Distractor2.bmp,cyan,Distractor2.bmp,,,,TrialProc,2,TrainingTrialList,0,2,-999999,1,349769,0,1,288,350057,Target2.bmp,red,2,,,,8,3,54
KW_Experiment5A,24,1,"<?xml version=""1.0""?>\n<Clock xmlns:dt=""urn:schemas-microsoft-com:datatypes""><Description dt:dt=""string"">E-Prime Primary Realtime Clock</Description><StartTime><Timestamp dt:dt=""int"">0</Timestamp><DateUtc dt:dt=""string"">2018-10-17T16:24:39Z</DateUtc></StartTime><FrequencyChanges><FrequencyChange><Frequency dt:dt=""r8"">3215244</Frequency><Timestamp dt:dt=""r8"">7124585736004</Timestamp><Current dt:dt=""r8"">0</Current><DateUtc dt:dt=""string"">2018-10-17T16:24:39Z</DateUtc></FrequencyChange></FrequencyChanges></Clock>\n",KW_Experiment5A-24-1,59.945,1.0.0.105,1,-764369534,Professional,2.0.10.353,2.0.10.353,10/17/2018,10/17/2018 16:24,12:24:39,2.0.10.248,3,2,1,3,,,,,,,,TrainingProc,BlockList,7,2,Distractor2.bmp,2,0,,0,1,351070,600,,0,0,blue,600,3,600,,horizontal,blue,Distractor2.bmp,lime,Distractor1.bmp,purple,Distractor2.bmp,yellow,Distractor1.bmp,cyan,Distractor2.bmp,red,Target2.bmp,,,,TrialProc,3,TrainingTrialList,1,2,-999999,0,351670,0,2,43,351713,Target2.bmp,red,2,,,,12,3,55
KW_Experiment5A,24,1,"<?xml version=""1.0""?>\n<Clock xmlns:dt=""urn:schemas-microsoft-com:datatypes""><Description dt:dt=""string"">E-Prime Primary Realtime Clock</Description><StartTime><Timestamp dt:dt=""int"">0</Timestamp><DateUtc dt:dt=""string"">2018-10-17T16:24:39Z</DateUtc></StartTime><FrequencyChanges><FrequencyChange><Frequency dt:dt=""r8"">3215244</Frequency><Timestamp dt:dt=""r8"">7124585736004</Timestamp><Current dt:dt=""r8"">0</Current><DateUtc dt:dt=""string"">2018-10-17T16:24:39Z</DateUtc></FrequencyChange></FrequencyChanges></Clock>\n",KW_Experiment5A-24-1,59.945,1.0.0.105,1,-764369534,Professional,2.0.10.353,2.0.10.353,10/17/2018,10/17/2018 16:24,12:24:39,2.0.10.248,3,2,1,3,,,,,,,,TrainingProc,BlockList,8,1,Distractor2.bmp,2,0,,0,1,352738,501,,0,0,blue,500,2,500,3,vertical,blue,Distractor2.bmp,purple,Distractor2.bmp,yellow,Distractor1.bmp,cyan,Distractor1.bmp,red,Distractor2.bmp,lime,Target1.bmp,,,,TrialProc,,TrainingTrialList,0,1,-999999,1,353239,0,2,234,353473,Target1.bmp,lime,1,,,,6,3,56
KW_Experiment5A,24,1,"<?xml version=""1.0""?>\n<Clock xmlns:dt=""urn:schemas-microsoft-com:datatypes""><Description dt:dt=""string"">E-Prime Primary Realtime Clock</Description><StartTime><Timestamp dt:dt=""int"">0</Timestamp><DateUtc dt:dt=""string"">2018-10-17T16:24:39Z</DateUtc></StartTime><FrequencyChanges><FrequencyChange><Frequency dt:dt=""r8"">3215244</Frequency><Timestamp dt:dt=""r8"">7124585736004</Timestamp><Current dt:dt=""r8"">0</Current><DateUtc dt:dt=""string"">2018-10-17T16:24:39Z</DateUtc></FrequencyChange></FrequencyChanges></Clock>\n",KW_Experiment5A-24-1,59.945,1.0.0.105,1,-764369534,Professional,2.0.10.353,2.0.10.353,10/17/2018,10/17/2018 16:24,12:24:39,2.0.10.248,3,2,1,3,,,,,,,,TrainingProc,BlockList,9,1,Distractor1.bmp,1,0,,0,1,354490,600,,0,0,cyan,600,3,600,,vertical,cyan,Distractor2.bmp,lime,Distractor2.bmp,yellow,Distractor2.bmp,red,Target1.bmp,blue,Distractor1.bmp,purple,Distractor1.bmp,,,,TrialProc,4,TrainingTrialList,1,1,-999999,0,355090,0,1,39,355129,Target1.bmp,red,1,,,,10,3,57
KW_Experiment5A,24,1,"<?xml version=""1.0""?>\n<Clock xmlns:dt=""urn:schemas-microsoft-com:datatypes""><Description dt:dt=""string"">E-Prime Primary Realtime Clock</Description><StartTime><Timestamp dt:dt=""int"">0</Timestamp><DateUtc dt:dt=""string"">2018-10-17T16:24:39Z</DateUtc></StartTime><FrequencyChanges><FrequencyChange><Frequency dt:dt=""r8"">3215244</Frequency><Timestamp dt:dt=""r8"">7124585736004</Timestamp><Current dt:dt=""r8"">0</Current><DateUtc dt:dt=""string"">2018-10-17T16:24:39Z</DateUtc></FrequencyChange></FrequencyChanges></Clock>\n",KW_Experiment5A-24-1,59.945,1.0.0.105,1,-764369534,Professional,2.0.10.353,2.0.10.353,10/17/2018,10/17/2018 16:24,12:24:39,2.0.10.248,3,2,1,3,,,,,,,,TrainingProc,BlockList,10,2,Distractor1.bmp,1,0,,0,1,356141,501,,0,0,cyan,500,2,500,4,horizontal,cyan,Distractor1.bmp,yellow,Distractor2.bmp,lime,Target2.bmp,purple,Distractor1.bmp,blue,Distractor2.bmp,red,Distractor2.bmp,,,,TrialProc,,TrainingTrialList,0,2,-999999,1,356642,0,1,303,356945,Target2.bmp,lime,2,,,,3,3,58
KW_Experiment5A,24,1,"<?xml version=""1.0""?>\n<Clock xmlns:dt=""urn:schemas-microsoft-com:datatypes""><Description dt:dt=""string"">E-Prime Primary Realtime Clock</Description><StartTime><Timestamp dt:dt=""int"">0</Timestamp><DateUtc dt:dt=""string"">2018-10-17T16:24:39Z</DateUtc></StartTime><FrequencyChanges><FrequencyChange><Frequency dt:dt=""r8"">3215244</Frequency><Timestamp dt:dt=""r8"">7124585736004</Timestamp><Current dt:dt=""r8"">0</Current><DateUtc dt:dt=""string"">2018-10-17T16:24:39Z</DateUtc></FrequencyChange></FrequencyChanges></Clock>\n",KW_Experiment5A-24-1,59.945,1.0.0.105,1,-764369534,Professional,2.0.10.353,2.0.10.353,10/17/2018,10/17/2018 16:24,12:24:39,2.0.10.248,3,2,1,3,,,,,,,,TrainingProc,BlockList,11,1,Distractor2.bmp,2,0,,0,1,357960,600,,0,0,cyan,600,3,600,4,vertical,cyan,Distractor1.bmp,lime,Target1.bmp,red,Distractor2.bmp,yellow,Distractor2.bmp,blue,Distractor2.bmp,purple,Distractor2.bmp,,,,TrialProc,,TrainingTrialList,0,1,-999999,0,358560,0,2,41,358601,Target1.bmp,lime,1,,,,2,3,59
KW_Experiment5A,24,1,"<?xml version=""1.0""?>\n<Clock xmlns:dt=""urn:schemas-microsoft-com:datatypes""><Description dt:dt=""string"">E-Prime Primary Realtime Clock</Description><StartTime><Timestamp dt:dt=""int"">0</Timestamp><DateUtc dt:dt=""string"">2018-10-17T16:24:39Z</DateUtc></StartTime><FrequencyChanges><FrequencyChange><Frequency dt:dt=""r8"">3215244</Frequency><Timestamp dt:dt=""r8"">7124585736004</Timestamp><Current dt:dt=""r8"">0</Current><DateUtc dt:dt=""string"">2018-10-17T16:24:39Z</DateUtc></FrequencyChange></FrequencyChanges></Clock>\n",KW_Experiment5A-24-1,59.945,1.0.0.105,1,-764369534,Professional,2.0.10.353,2.0.10.353,10/17/2018,10/17/2018 16:24,12:24:39,2.0.10.248,3,2,1,3,,,,,,,,TrainingProc,BlockList,12,1,Distractor2.bmp,2,0,,0,1,359628,500,,0,0,red,500,2,500,1,vertical,red,Distractor1.bmp,blue,Distractor2.bmp,yellow,Distractor2.bmp,purple,Distractor1.bmp,lime,Target1.bmp,cyan,Distractor2.bmp,,,,TrialProc,,TrainingTrialList,1,1,-999999,0,360128,0,1,329,360457,Target1.bmp,lime,1,,,,5,3,60
KW_Experiment5A,24,1,"<?xml version=""1.0""?>\n<Clock xmlns:dt=""urn:schemas-microsoft-com:datatypes""><Description dt:dt=""string"">E-Prime Primary Realtime Clock</Description><StartTime><Timestamp dt:dt=""int"">0</Timestamp><DateUtc dt:dt=""string"">2018-10-17T16:24:39Z</DateUtc></StartTime><FrequencyChanges><FrequencyChange><Frequency dt:dt=""r8"">3215244</Frequency><Timestamp dt:dt=""r8"">7124585736004</Timestamp><Current dt:dt=""r8"">0</Current><DateUtc dt:dt=""string"">2018-10-17T16:24:39Z</DateUtc></FrequencyChange></FrequencyChanges></Clock>\n",KW_Experiment5A-24-1,59.945,1.0.0.105,1,-764369534,Professional,2.0.10.353,2.0.10.353,10/17/2018,10/17/2018 16:24,12:24:39,2.0.10.248,3,2,1,3,,,,,,,,TrainingProc,BlockList,13,1,Distractor1.bmp,1,0,,0,1,361479,501,,0,0,red,500,2,500,1,vertical,red,Distractor1.bmp,cyan,Distractor1.bmp,purple,Distractor1.bmp,lime,Target1.bmp,blue,Distractor1.bmp,yellow,Distractor2.bmp,,,,TrialProc,,TrainingTrialList,1,1,-999999,1,361980,0,1,357,362337,Target1.bmp,lime,1,,,,4,3,61
KW_Experiment5A,24,1,"<?xml version=""1.0""?>\n<Clock xmlns:dt=""urn:schemas-microsoft-com:datatypes""><Description dt:dt=""string"">E-Prime Primary Realtime Clock</Description><StartTime><Timestamp dt:dt=""int"">0</Timestamp><DateUtc dt:dt=""string"">2018-10-17T16:24:39Z</DateUtc></StartTime><FrequencyChanges><FrequencyChange><Frequency dt:dt=""r8"">3215244</Frequency><Timestamp dt:dt=""r8"">7124585736004</Timestamp><Current dt:dt=""r8"">0</Current><DateUtc dt:dt=""string"">2018-10-17T16:24:39Z</DateUtc></FrequencyChange></FrequencyChanges></Clock>\n",KW_Experiment5A-24-1,59.945,1.0.0.105,1,-764369534,Professional,2.0.10.353,2.0.10.353,10/17/2018,10/17/2018 16:24,12:24:39,2.0.10.248,3,2,1,3,,,,,,,,TrainingProc,BlockList,14,2,Distractor2.bmp,2,0,,0,1,363348,500,,0,0,cyan,500,2,500,4,horizontal,cyan,Distractor1.bmp,lime,Target2.bmp,yellow,Distractor2.bmp,purple,Distractor2.bmp,blue,Distractor2.bmp,red,Distractor1.bmp,,,,TrialProc,,TrainingTrialList,0,2,-999999,0,363848,0,1,305,364153,Target2.bmp,lime,2,,,,2,3,62
KW_Experiment5A,24,1,"<?xml version=""1.0""?>\n<Clock xmlns:dt=""urn:schemas-microsoft-com:datatypes""><Description dt:dt=""string"">E-Prime Primary Realtime Clock</Description><StartTime><Timestamp dt:dt=""int"">0</Timestamp><DateUtc dt:dt=""string"">2018-10-17T16:24:39Z</DateUtc></StartTime><FrequencyChanges><FrequencyChange><Frequency dt:dt=""r8"">3215244</Frequency><Timestamp dt:dt=""r8"">7124585736004</Timestamp><Current dt:dt=""r8"">0</Current><DateUtc dt:dt=""string"">2018-10-17T16:24:39Z</DateUtc></FrequencyChange></FrequencyChanges></Clock>\n",KW_Experiment5A-24-1,59.945,1.0.0.105,1,-764369534,Professional,2.0.10.353,2.0.10.353,10/17/2018,10/17/2018 16:24,12:24:39,2.0.10.248,3,2,1,3,,,,,,,,TrainingProc,BlockList,15,1,Distractor2.bmp,2,0,,0,1,365166,601,,0,0,red,600,3,600,1,vertical,lime,Target1.bmp,red,Distractor2.bmp,yellow,Distractor1.bmp,blue,Distractor1.bmp,cyan,Distractor1.bmp,purple,Distractor2.bmp,,,,TrialProc,,TrainingTrialList,0,1,-999999,1,365767,0,2,106,365873,Target1.bmp,lime,1,,,,1,3,63
KW_Experiment5A,24,1,"<?xml version=""1.0""?>\n<Clock xmlns:dt=""urn:schemas-microsoft-com:datatypes""><Description dt:dt=""string"">E-Prime Primary Realtime Clock</Description><StartTime><Timestamp dt:dt=""int"">0</Timestamp><DateUtc dt:dt=""string"">2018-10-17T16:24:39Z</DateUtc></StartTime><FrequencyChanges><FrequencyChange><Frequency dt:dt=""r8"">3215244</Frequency><Timestamp dt:dt=""r8"">7124585736004</Timestamp><Current dt:dt=""r8"">0</Current><DateUtc dt:dt=""string"">2018-10-17T16:24:39Z</DateUtc></FrequencyChange></FrequencyChanges></Clock>\n",KW_Experiment5A-24-1,59.945,1.0.0.105,1,-764369534,Professional,2.0.10.353,2.0.10.353,10/17/2018,10/17/2018 16:24,12:24:39,2.0.10.248,3,2,1,3,,,,,,,,TrainingProc,BlockList,16,1,Distractor1.bmp,1,0,,1,1,366884,401,,0,0,cyan,400,1,400,4,vertical,lime,Target1.bmp,cyan,Distractor1.bmp,red,Distractor1.bmp,yellow,Distractor1.bmp,blue,Distractor1.bmp,purple,Distractor2.bmp,,,,TrialProc,,TrainingTrialList,1,1,-999999,1,367285,0,1,204,367489,Target1.bmp,lime,1,,,,1,3,64
KW_Experiment5A,24,1,"<?xml version=""1.0""?>\n<Clock xmlns:dt=""urn:schemas-microsoft-com:datatypes""><Description dt:dt=""string"">E-Prime Primary Realtime Clock</Description><StartTime><Timestamp dt:dt=""int"">0</Timestamp><DateUtc dt:dt=""string"">2018-10-17T16:24:39Z</DateUtc></StartTime><FrequencyChanges><FrequencyChange><Frequency dt:dt=""r8"">3215244</Frequency><Timestamp dt:dt=""r8"">7124585736004</Timestamp><Current dt:dt=""r8"">0</Current><DateUtc dt:dt=""string"">2018-10-17T16:24:39Z</DateUtc></FrequencyChange></FrequencyChanges></Clock>\n",KW_Experiment5A-24-1,59.945,1.0.0.105,1,-764369534,Professional,2.0.10.353,2.0.10.353,10/17/2018,10/17/2018 16:24,12:24:39,2.0.10.248,3,2,1,3,,,,,,,,TrainingProc,BlockList,17,2,Distractor1.bmp,1,0,,0,1,368503,500,,0,0,lime,500,2,500,,horizontal,lime,Distractor1.bmp,cyan,Distractor2.bmp,yellow,Distractor1.bmp,blue,Distractor2.bmp,red,Target2.bmp,purple,Distractor1.bmp,,,,TrialProc,6,TrainingTrialList,0,2,-999999,0,369003,0,1,238,369241,Target2.bmp,red,2,,,,11,3,65
KW_Experiment5A,24,1,"<?xml version=""1.0""?>\n<Clock xmlns:dt=""urn:schemas-microsoft-com:datatypes""><Description dt:dt=""string"">E-Prime Primary Realtime Clock</Description><StartTime><Timestamp dt:dt=""int"">0</Timestamp><DateUtc dt:dt=""string"">2018-10-17T16:24:39Z</DateUtc></StartTime><FrequencyChanges><FrequencyChange><Frequency dt:dt=""r8"">3215244</Frequency><Timestamp dt:dt=""r8"">7124585736004</Timestamp><Current dt:dt=""r8"">0</Current><DateUtc dt:dt=""string"">2018-10-17T16:24:39Z</DateUtc></FrequencyChange></FrequencyChanges></Clock>\n",KW_Experiment5A-24-1,59.945,1.0.0.105,1,-764369534,Professional,2.0.10.353,2.0.10.353,10/17/2018,10/17/2018 16:24,12:24:39,2.0.10.248,3,2,1,3,,,,,,,,TrainingProc,BlockList,18,1,Distractor1.bmp,1,0,,0,1,370254,501,,0,0,yellow,500,2,500,,vertical,red,Target1.bmp,cyan,Distractor1.bmp,blue,Distractor2.bmp,lime,Distractor1.bmp,purple,Distractor2.bmp,yellow,Distractor2.bmp,,,,TrialProc,2,TrainingTrialList,0,1,-999999,1,370755,0,2,246,371001,Target1.bmp,red,1,,,,7,3,66
KW_Experiment5A,24,1,"<?xml version=""1.0""?>\n<Clock xmlns:dt=""urn:schemas-microsoft-com:datatypes""><Description dt:dt=""string"">E-Prime Primary Realtime Clock</Description><StartTime><Timestamp dt:dt=""int"">0</Timestamp><DateUtc dt:dt=""string"">2018-10-17T16:24:39Z</DateUtc></StartTime><FrequencyChanges><FrequencyChange><Frequency dt:dt=""r8"">3215244</Frequency><Timestamp dt:dt=""r8"">7124585736004</Timestamp><Current dt:dt=""r8"">0</Current><DateUtc dt:dt=""string"">2018-10-17T16:24:39Z</DateUtc></FrequencyChange></FrequencyChanges></Clock>\n",KW_Experiment5A-24-1,59.945,1.0.0.105,1,-764369534,Professional,2.0.10.353,2.0.10.353,10/17/2018,10/17/2018 16:24,12:24:39,2.0.10.248,3,2,1,3,,,,,,,,TrainingProc,BlockList,19,2,Distractor1.bmp,1,0,,0,1,372023,400,,0,0,yellow,400,1,400,2,horizontal,yellow,Distractor1.bmp,red,Distractor1.bmp,cyan,Distractor2.bmp,blue,Distractor1.bmp,purple,Distractor1.bmp,lime,Target2.bmp,,,,TrialProc,,TrainingTrialList,0,2,-999999,0,372423,0,1,274,372697,Target2.bmp,lime,2,,,,6,3,67
KW_Experiment5A,24,1,"<?xml version=""1.0""?>\n<Clock xmlns:dt=""urn:schemas-microsoft-com:datatypes""><Description dt:dt=""string"">E-Prime Primary Realtime Clock</Description><StartTime><Timestamp dt:dt=""int"">0</Timestamp><DateUtc dt:dt=""string"">2018-10-17T16:24:39Z</DateUtc></StartTime><FrequencyChanges><FrequencyChange><Frequency dt:dt=""r8"">3215244</Frequency><Timestamp dt:dt=""r8"">7124585736004</Timestamp><Current dt:dt=""r8"">0</Current><DateUtc dt:dt=""string"">2018-10-17T16:24:39Z</DateUtc></FrequencyChange></FrequencyChanges></Clock>\n",KW_Experiment5A-24-1,59.945,1.0.0.105,1,-764369534,Professional,2.0.10.353,2.0.10.353,10/17/2018,10/17/2018 16:24,12:24:39,2.0.10.248,3,2,1,3,,,,,,,,TrainingProc,BlockList,20,2,Distractor1.bmp,1,0,,0,1,373707,401,,0,0,red,400,1,400,1,horizontal,red,Distractor1.bmp,blue,Distractor1.bmp,cyan,Distractor2.bmp,yellow,Distractor2.bmp,lime,Target2.bmp,purple,Distractor1.bmp,,,,TrialProc,,TrainingTrialList,0,2,-999999,1,374108,0,1,132,374240,Target2.bmp,lime,2,,,,5,3,68
KW_Experiment5A,24,1,"<?xml version=""1.0""?>\n<Clock xmlns:dt=""urn:schemas-microsoft-com:datatypes""><Description dt:dt=""string"">E-Prime Primary Realtime Clock</Description><StartTime><Timestamp dt:dt=""int"">0</Timestamp><DateUtc dt:dt=""string"">2018-10-17T16:24:39Z</DateUtc></StartTime><FrequencyChanges><FrequencyChange><Frequency dt:dt=""r8"">3215244</Frequency><Timestamp dt:dt=""r8"">7124585736004</Timestamp><Current dt:dt=""r8"">0</Current><DateUtc dt:dt=""string"">2018-10-17T16:24:39Z</DateUtc></FrequencyChange></FrequencyChanges></Clock>\n",KW_Experiment5A-24-1,59.945,1.0.0.105,1,-764369534,Professional,2.0.10.353,2.0.10.353,10/17/2018,10/17/2018 16:24,12:24:39,2.0.10.248,3,2,1,3,,,,,,,,TrainingProc,BlockList,21,1,Distractor2.bmp,2,0,,0,1,375259,400,,0,0,purple,400,1,400,5,vertical,purple,Distractor2.bmp,yellow,Distractor2.bmp,cyan,Distractor1.bmp,blue,Distractor2.bmp,lime,Target1.bmp,red,Distractor2.bmp,,,,TrialProc,,TrainingTrialList,0,1,-999999,0,375659,0,2,229,375888,Target1.bmp,lime,1,,,,5,3,69
KW_Experiment5A,24,1,"<?xml version=""1.0""?>\n<Clock xmlns:dt=""urn:schemas-microsoft-com:datatypes""><Description dt:dt=""string"">E-Prime Primary Realtime Clock</Description><StartTime><Timestamp dt:dt=""int"">0</Timestamp><DateUtc dt:dt=""string"">2018-10-17T16:24:39Z</DateUtc></StartTime><FrequencyChanges><FrequencyChange><Frequency dt:dt=""r8"">3215244</Frequency><Timestamp dt:dt=""r8"">7124585736004</Timestamp><Current dt:dt=""r8"">0</Current><DateUtc dt:dt=""string"">2018-10-17T16:24:39Z</DateUtc></FrequencyChange></FrequencyChanges></Clock>\n",KW_Experiment5A-24-1,59.945,1.0.0.105,1,-764369534,Professional,2.0.10.353,2.0.10.353,10/17/2018,10/17/2018 16:24,12:24:39,2.0.10.248,3,2,1,3,,,,,,,,TrainingProc,BlockList,22,2,Distractor1.bmp,1,0,,0,1,376910,601,,0,0,red,600,3,600,1,horizontal,red,Distractor1.bmp,blue,Distractor1.bmp,cyan,Distractor1.bmp,purple,Distractor1.bmp,yellow,Distractor2.bmp,lime,Target2.bmp,,,,TrialProc,,TrainingTrialList,0,2,-999999,1,377511,0,1,218,377729,Target2.bmp,lime,2,,,,6,3,70
KW_Experiment5A,24,1,"<?xml version=""1.0""?>\n<Clock xmlns:dt=""urn:schemas-microsoft-com:datatypes""><Description dt:dt=""string"">E-Prime Primary Realtime Clock</Description><StartTime><Timestamp dt:dt=""int"">0</Timestamp><DateUtc dt:dt=""string"">2018-10-17T16:24:39Z</DateUtc></StartTime><FrequencyChanges><FrequencyChange><Frequency dt:dt=""r8"">3215244</Frequency><Timestamp dt:dt=""r8"">7124585736004</Timestamp><Current dt:dt=""r8"">0</Current><DateUtc dt:dt=""string"">2018-10-17T16:24:39Z</DateUtc></FrequencyChange></FrequencyChanges></Clock>\n",KW_Experiment5A-24-1,59.945,1.0.0.105,1,-764369534,Professional,2.0.10.353,2.0.10.353,10/17/2018,10/17/2018 16:24,12:24:39,2.0.10.248,3,2,1,3,,,,,,,,TrainingProc,BlockList,23,2,Distractor1.bmp,1,0,,0,1,378745,601,,0,0,red,600,3,600,1,horizontal,red,Distractor1.bmp,lime,Target2.bmp,cyan,Distractor1.bmp,blue,Distractor2.bmp,yellow,Distractor1.bmp,purple,Distractor2.bmp,,,,TrialProc,,TrainingTrialList,1,2,-999999,1,379346,0,2,366,379712,Target2.bmp,lime,2,,,,2,3,71
KW_Experiment5A,24,1,"<?xml version=""1.0""?>\n<Clock xmlns:dt=""urn:schemas-microsoft-com:datatypes""><Description dt:dt=""string"">E-Prime Primary Realtime Clock</Description><StartTime><Timestamp dt:dt=""int"">0</Timestamp><DateUtc dt:dt=""string"">2018-10-17T16:24:39Z</DateUtc></StartTime><FrequencyChanges><FrequencyChange><Frequency dt:dt=""r8"">3215244</Frequency><Timestamp dt:dt=""r8"">7124585736004</Timestamp><Current dt:dt=""r8"">0</Current><DateUtc dt:dt=""string"">2018-10-17T16:24:39Z</DateUtc></FrequencyChange></FrequencyChanges></Clock>\n",KW_Experiment5A-24-1,59.945,1.0.0.105,1,-764369534,Professional,2.0.10.353,2.0.10.353,10/17/2018,10/17/2018 16:24,12:24:39,2.0.10.248,3,2,1,3,,,,,,,,TrainingProc,BlockList,24,1,Distractor1.bmp,1,0,,1,0,380730,601,,0,0,yellow,600,3,600,2,vertical,yellow,Distractor2.bmp,purple,Distractor1.bmp,lime,Target1.bmp,blue,Distractor1.bmp,cyan,Distractor1.bmp,red,Distractor1.bmp,,,,TrialProc,,TrainingTrialList,0,1,-999999,1,381331,0,2,165,381496,Target1.bmp,lime,1,,,,3,3,72
KW_Experiment5A,24,1,"<?xml version=""1.0""?>\n<Clock xmlns:dt=""urn:schemas-microsoft-com:datatypes""><Description dt:dt=""string"">E-Prime Primary Realtime Clock</Description><StartTime><Timestamp dt:dt=""int"">0</Timestamp><DateUtc dt:dt=""string"">2018-10-17T16:24:39Z</DateUtc></StartTime><FrequencyChanges><FrequencyChange><Frequency dt:dt=""r8"">3215244</Frequency><Timestamp dt:dt=""r8"">7124585736004</Timestamp><Current dt:dt=""r8"">0</Current><DateUtc dt:dt=""string"">2018-10-17T16:24:39Z</DateUtc></FrequencyChange></FrequencyChanges></Clock>\n",KW_Experiment5A-24-1,59.945,1.0.0.105,1,-764369534,Professional,2.0.10.353,2.0.10.353,10/17/2018,10/17/2018 16:24,12:24:39,2.0.10.248,3,2,1,3,,,,,,,,TrainingProc,BlockList,25,1,Distractor1.bmp,1,0,,0,1,382516,500,,0,0,purple,500,2,500,,vertical,purple,Distractor1.bmp,blue,Distractor2.bmp,cyan,Distractor1.bmp,yellow,Distractor1.bmp,lime,Distractor1.bmp,red,Target1.bmp,,,,TrialProc,5,TrainingTrialList,1,1,-999999,0,383016,0,1,1088,384104,Target1.bmp,red,1,,,,12,4,73
KW_Experiment5A,24,1,"<?xml version=""1.0""?>\n<Clock xmlns:dt=""urn:schemas-microsoft-com:datatypes""><Description dt:dt=""string"">E-Prime Primary Realtime Clock</Description><StartTime><Timestamp dt:dt=""int"">0</Timestamp><DateUtc dt:dt=""string"">2018-10-17T16:24:39Z</DateUtc></StartTime><FrequencyChanges><FrequencyChange><Frequency dt:dt=""r8"">3215244</Frequency><Timestamp dt:dt=""r8"">7124585736004</Timestamp><Current dt:dt=""r8"">0</Current><DateUtc dt:dt=""string"">2018-10-17T16:24:39Z</DateUtc></FrequencyChange></FrequencyChanges></Clock>\n",KW_Experiment5A-24-1,59.945,1.0.0.105,1,-764369534,Professional,2.0.10.353,2.0.10.353,10/17/2018,10/17/2018 16:24,12:24:39,2.0.10.248,3,2,1,3,,,,,,,,TrainingProc,BlockList,26,2,Distractor2.bmp,2,0,,0,1,385118,600,,0,0,purple,600,3,600,5,horizontal,purple,Distractor2.bmp,yellow,Distractor1.bmp,red,Distractor2.bmp,cyan,Distractor2.bmp,lime,Target2.bmp,blue,Distractor2.bmp,,,,TrialProc,,TrainingTrialList,1,2,-999999,0,385718,0,2,826,386544,Target2.bmp,lime,2,,,,5,4,74
KW_Experiment5A,24,1,"<?xml version=""1.0""?>\n<Clock xmlns:dt=""urn:schemas-microsoft-com:datatypes""><Description dt:dt=""string"">E-Prime Primary Realtime Clock</Description><StartTime><Timestamp dt:dt=""int"">0</Timestamp><DateUtc dt:dt=""string"">2018-10-17T16:24:39Z</DateUtc></StartTime><FrequencyChanges><FrequencyChange><Frequency dt:dt=""r8"">3215244</Frequency><Timestamp dt:dt=""r8"">7124585736004</Timestamp><Current dt:dt=""r8"">0</Current><DateUtc dt:dt=""string"">2018-10-17T16:24:39Z</DateUtc></FrequencyChange></FrequencyChanges></Clock>\n",KW_Experiment5A-24-1,59.945,1.0.0.105,1,-764369534,Professional,2.0.10.353,2.0.10.353,10/17/2018,10/17/2018 16:24,12:24:39,2.0.10.248,3,2,1,3,,,,,,,,TrainingProc,BlockList,27,2,Distractor2.bmp,2,0,,1,0,387553,401,,0,0,yellow,400,1,400,2,horizontal,lime,Target2.bmp,yellow,Distractor2.bmp,blue,Distractor1.bmp,cyan,Distractor1.bmp,red,Distractor1.bmp,purple,Distractor2.bmp,,,,TrialProc,,TrainingTrialList,0,2,-999999,1,387954,0,1,774,388728,Target2.bmp,lime,2,,,,1,4,75
KW_Experiment5A,24,1,"<?xml version=""1.0""?>\n<Clock xmlns:dt=""urn:schemas-microsoft-com:datatypes""><Description dt:dt=""string"">E-Prime Primary Realtime Clock</Description><StartTime><Timestamp dt:dt=""int"">0</Timestamp><DateUtc dt:dt=""string"">2018-10-17T16:24:39Z</DateUtc></StartTime><FrequencyChanges><FrequencyChange><Frequency dt:dt=""r8"">3215244</Frequency><Timestamp dt:dt=""r8"">7124585736004</Timestamp><Current dt:dt=""r8"">0</Current><DateUtc dt:dt=""string"">2018-10-17T16:24:39Z</DateUtc></FrequencyChange></FrequencyChanges></Clock>\n",KW_Experiment5A-24-1,59.945,1.0.0.105,1,-764369534,Professional,2.0.10.353,2.0.10.353,10/17/2018,10/17/2018 16:24,12:24:39,2.0.10.248,3,2,1,3,,,,,,,,TrainingProc,BlockList,28,2,Distractor1.bmp,1,0,,1,0,389755,601,,0,0,purple,600,3,600,5,horizontal,purple,Distractor2.bmp,blue,Distractor1.bmp,red,Distractor2.bmp,yellow,Distractor2.bmp,lime,Target2.bmp,cyan,Distractor1.bmp,,,,TrialProc,,TrainingTrialList,1,2,-999999,1,390356,0,2,252,390608,Target2.bmp,lime,2,,,,5,4,76
KW_Experiment5A,24,1,"<?xml version=""1.0""?>\n<Clock xmlns:dt=""urn:schemas-microsoft-com:datatypes""><Description dt:dt=""string"">E-Prime Primary Realtime Clock</Description><StartTime><Timestamp dt:dt=""int"">0</Timestamp><DateUtc dt:dt=""string"">2018-10-17T16:24:39Z</DateUtc></StartTime><FrequencyChanges><FrequencyChange><Frequency dt:dt=""r8"">3215244</Frequency><Timestamp dt:dt=""r8"">7124585736004</Timestamp><Current dt:dt=""r8"">0</Current><DateUtc dt:dt=""string"">2018-10-17T16:24:39Z</DateUtc></FrequencyChange></FrequencyChanges></Clock>\n",KW_Experiment5A-24-1,59.945,1.0.0.105,1,-764369534,Professional,2.0.10.353,2.0.10.353,10/17/2018,10/17/2018 16:24,12:24:39,2.0.10.248,3,2,1,3,,,,,,,,TrainingProc,BlockList,29,2,Distractor1.bmp,1,0,,0,1,391624,500,,0,0,yellow,500,2,500,,horizontal,red,Target2.bmp,cyan,Distractor1.bmp,lime,Distractor2.bmp,purple,Distractor1.bmp,blue,Distractor1.bmp,yellow,Distractor1.bmp,,,,TrialProc,2,TrainingTrialList,1,2,-999999,0,392124,0,2,3620,395744,Target2.bmp,red,2,,,,7,4,77
KW_Experiment5A,24,1,"<?xml version=""1.0""?>\n<Clock xmlns:dt=""urn:schemas-microsoft-com:datatypes""><Description dt:dt=""string"">E-Prime Primary Realtime Clock</Description><StartTime><Timestamp dt:dt=""int"">0</Timestamp><DateUtc dt:dt=""string"">2018-10-17T16:24:39Z</DateUtc></StartTime><FrequencyChanges><FrequencyChange><Frequency dt:dt=""r8"">3215244</Frequency><Timestamp dt:dt=""r8"">7124585736004</Timestamp><Current dt:dt=""r8"">0</Current><DateUtc dt:dt=""string"">2018-10-17T16:24:39Z</DateUtc></FrequencyChange></FrequencyChanges></Clock>\n",KW_Experiment5A-24-1,59.945,1.0.0.105,1,-764369534,Professional,2.0.10.353,2.0.10.353,10/17/2018,10/17/2018 16:24,12:24:39,2.0.10.248,3,2,1,3,,,,,,,,TrainingProc,BlockList,30,1,Distractor2.bmp,2,0,,0,1,396762,400,,0,0,cyan,400,1,400,4,vertical,lime,Target1.bmp,cyan,Distractor2.bmp,purple,Distractor2.bmp,blue,Distractor2.bmp,red,Distractor1.bmp,yellow,Distractor1.bmp,,,,TrialProc,,TrainingTrialList,1,1,-999999,0,397162,0,1,990,398152,Target1.bmp,lime,1,,,,1,4,78
KW_Experiment5A,24,1,"<?xml version=""1.0""?>\n<Clock xmlns:dt=""urn:schemas-microsoft-com:datatypes""><Description dt:dt=""string"">E-Prime Primary Realtime Clock</Description><StartTime><Timestamp dt:dt=""int"">0</Timestamp><DateUtc dt:dt=""string"">2018-10-17T16:24:39Z</DateUtc></StartTime><FrequencyChanges><FrequencyChange><Frequency dt:dt=""r8"">3215244</Frequency><Timestamp dt:dt=""r8"">7124585736004</Timestamp><Current dt:dt=""r8"">0</Current><DateUtc dt:dt=""string"">2018-10-17T16:24:39Z</DateUtc></FrequencyChange></FrequencyChanges></Clock>\n",KW_Experiment5A-24-1,59.945,1.0.0.105,1,-764369534,Professional,2.0.10.353,2.0.10.353,10/17/2018,10/17/2018 16:24,12:24:39,2.0.10.248,3,2,1,3,,,,,,,,TrainingProc,BlockList,31,1,Distractor1.bmp,1,0,,0,1,399164,601,,0,0,purple,600,3,600,5,vertical,purple,Distractor2.bmp,blue,Distractor1.bmp,lime,Target1.bmp,red,Distractor1.bmp,yellow,Distractor1.bmp,cyan,Distractor1.bmp,,,,TrialProc,,TrainingTrialList,0,1,-999999,1,399765,0,2,755,400520,Target1.bmp,lime,1,,,,3,4,79
KW_Experiment5A,24,1,"<?xml version=""1.0""?>\n<Clock xmlns:dt=""urn:schemas-microsoft-com:datatypes""><Description dt:dt=""string"">E-Prime Primary Realtime Clock</Description><StartTime><Timestamp dt:dt=""int"">0</Timestamp><DateUtc dt:dt=""string"">2018-10-17T16:24:39Z</DateUtc></StartTime><FrequencyChanges><FrequencyChange><Frequency dt:dt=""r8"">3215244</Frequency><Timestamp dt:dt=""r8"">7124585736004</Timestamp><Current dt:dt=""r8"">0</Current><DateUtc dt:dt=""string"">2018-10-17T16:24:39Z</DateUtc></FrequencyChange></FrequencyChanges></Clock>\n",KW_Experiment5A-24-1,59.945,1.0.0.105,1,-764369534,Professional,2.0.10.353,2.0.10.353,10/17/2018,10/17/2018 16:24,12:24:39,2.0.10.248,3,2,1,3,,,,,,,,TrainingProc,BlockList,32,1,Distractor1.bmp,1,0,,0,1,401533,400,,0,0,red,400,1,400,1,vertical,red,Distractor1.bmp,cyan,Distractor1.bmp,blue,Distractor1.bmp,purple,Distractor1.bmp,yellow,Distractor2.bmp,lime,Target1.bmp,,,,TrialProc,,TrainingTrialList,1,1,-999999,0,401933,0,1,619,402552,Target1.bmp,lime,1,,,,6,4,80
KW_Experiment5A,24,1,"<?xml version=""1.0""?>\n<Clock xmlns:dt=""urn:schemas-microsoft-com:datatypes""><Description dt:dt=""string"">E-Prime Primary Realtime Clock</Description><StartTime><Timestamp dt:dt=""int"">0</Timestamp><DateUtc dt:dt=""string"">2018-10-17T16:24:39Z</DateUtc></StartTime><FrequencyChanges><FrequencyChange><Frequency dt:dt=""r8"">3215244</Frequency><Timestamp dt:dt=""r8"">7124585736004</Timestamp><Current dt:dt=""r8"">0</Current><DateUtc dt:dt=""string"">2018-10-17T16:24:39Z</DateUtc></FrequencyChange></FrequencyChanges></Clock>\n",KW_Experiment5A-24-1,59.945,1.0.0.105,1,-764369534,Professional,2.0.10.353,2.0.10.353,10/17/2018,10/17/2018 16:24,12:24:39,2.0.10.248,3,2,1,3,,,,,,,,TrainingProc,BlockList,33,2,Distractor2.bmp,2,0,,0,1,403568,601,,0,0,cyan,600,3,600,,horizontal,cyan,Distractor1.bmp,red,Target2.bmp,yellow,Distractor2.bmp,lime,Distractor1.bmp,purple,Distractor1.bmp,blue,Distractor1.bmp,,,,TrialProc,4,TrainingTrialList,1,2,-999999,1,404169,0,2,1215,405384,Target2.bmp,red,2,,,,8,4,81
KW_Experiment5A,24,1,"<?xml version=""1.0""?>\n<Clock xmlns:dt=""urn:schemas-microsoft-com:datatypes""><Description dt:dt=""string"">E-Prime Primary Realtime Clock</Description><StartTime><Timestamp dt:dt=""int"">0</Timestamp><DateUtc dt:dt=""string"">2018-10-17T16:24:39Z</DateUtc></StartTime><FrequencyChanges><FrequencyChange><Frequency dt:dt=""r8"">3215244</Frequency><Timestamp dt:dt=""r8"">7124585736004</Timestamp><Current dt:dt=""r8"">0</Current><DateUtc dt:dt=""string"">2018-10-17T16:24:39Z</DateUtc></FrequencyChange></FrequencyChanges></Clock>\n",KW_Experiment5A-24-1,59.945,1.0.0.105,1,-764369534,Professional,2.0.10.353,2.0.10.353,10/17/2018,10/17/2018 16:24,12:24:39,2.0.10.248,3,2,1,3,,,,,,,,TrainingProc,BlockList,34,1,Distractor1.bmp,1,0,,0,1,406404,601,,0,0,purple,600,3,600,5,vertical,purple,Distractor1.bmp,blue,Distractor2.bmp,lime,Target1.bmp,yellow,Distractor1.bmp,red,Distractor2.bmp,cyan,Distractor2.bmp,,,,TrialProc,,TrainingTrialList,1,1,-999999,1,407005,0,1,819,407824,Target1.bmp,lime,1,,,,3,4,82
KW_Experiment5A,24,1,"<?xml version=""1.0""?>\n<Clock xmlns:dt=""urn:schemas-microsoft-com:datatypes""><Description dt:dt=""string"">E-Prime Primary Realtime Clock</Description><StartTime><Timestamp dt:dt=""int"">0</Timestamp><DateUtc dt:dt=""string"">2018-10-17T16:24:39Z</DateUtc></StartTime><FrequencyChanges><FrequencyChange><Frequency dt:dt=""r8"">3215244</Frequency><Timestamp dt:dt=""r8"">7124585736004</Timestamp><Current dt:dt=""r8"">0</Current><DateUtc dt:dt=""string"">2018-10-17T16:24:39Z</DateUtc></FrequencyChange></FrequencyChanges></Clock>\n",KW_Experiment5A-24-1,59.945,1.0.0.105,1,-764369534,Professional,2.0.10.353,2.0.10.353,10/17/2018,10/17/2018 16:24,12:24:39,2.0.10.248,3,2,1,3,,,,,,,,TrainingProc,BlockList,35,1,Distractor1.bmp,1,0,,0,1,408840,600,,0,0,cyan,600,3,600,,vertical,cyan,Distractor2.bmp,blue,Distractor2.bmp,red,Target1.bmp,purple,Distractor1.bmp,lime,Distractor1.bmp,yellow,Distractor1.bmp,,,,TrialProc,4,TrainingTrialList,0,1,-999999,0,409440,0,2,584,410024,Target1.bmp,red,1,,,,9,4,83
KW_Experiment5A,24,1,"<?xml version=""1.0""?>\n<Clock xmlns:dt=""urn:schemas-microsoft-com:datatypes""><Description dt:dt=""string"">E-Prime Primary Realtime Clock</Description><StartTime><Timestamp dt:dt=""int"">0</Timestamp><DateUtc dt:dt=""string"">2018-10-17T16:24:39Z</DateUtc></StartTime><FrequencyChanges><FrequencyChange><Frequency dt:dt=""r8"">3215244</Frequency><Timestamp dt:dt=""r8"">7124585736004</Timestamp><Current dt:dt=""r8"">0</Current><DateUtc dt:dt=""string"">2018-10-17T16:24:39Z</DateUtc></FrequencyChange></FrequencyChanges></Clock>\n",KW_Experiment5A-24-1,59.945,1.0.0.105,1,-764369534,Professional,2.0.10.353,2.0.10.353,10/17/2018,10/17/2018 16:24,12:24:39,2.0.10.248,3,2,1,3,,,,,,,,TrainingProc,BlockList,36,2,Distractor1.bmp,1,0,,0,1,411042,400,,0,0,red,400,1,400,1,horizontal,red,Distractor2.bmp,lime,Target2.bmp,blue,Distractor1.bmp,yellow,Distractor2.bmp,cyan,Distractor2.bmp,purple,Distractor2.bmp,,,,TrialProc,,TrainingTrialList,1,2,-999999,0,411442,0,2,830,412272,Target2.bmp,lime,2,,,,2,4,84
KW_Experiment5A,24,1,"<?xml version=""1.0""?>\n<Clock xmlns:dt=""urn:schemas-microsoft-com:datatypes""><Description dt:dt=""string"">E-Prime Primary Realtime Clock</Description><StartTime><Timestamp dt:dt=""int"">0</Timestamp><DateUtc dt:dt=""string"">2018-10-17T16:24:39Z</DateUtc></StartTime><FrequencyChanges><FrequencyChange><Frequency dt:dt=""r8"">3215244</Frequency><Timestamp dt:dt=""r8"">7124585736004</Timestamp><Current dt:dt=""r8"">0</Current><DateUtc dt:dt=""string"">2018-10-17T16:24:39Z</DateUtc></FrequencyChange></FrequencyChanges></Clock>\n",KW_Experiment5A-24-1,59.945,1.0.0.105,1,-764369534,Professional,2.0.10.353,2.0.10.353,10/17/2018,10/17/2018 16:24,12:24:39,2.0.10.248,3,2,1,3,,,,,,,,TrainingProc,BlockList,37,2,Distractor2.bmp,2,0,,0,1,413294,500,,0,0,yellow,500,2,500,2,horizontal,lime,Target2.bmp,yellow,Distractor2.bmp,purple,Distractor2.bmp,red,Distractor1.bmp,blue,Distractor1.bmp,cyan,Distractor2.bmp,,,,TrialProc,,TrainingTrialList,1,2,-999999,0,413794,0,2,534,414328,Target2.bmp,lime,2,,,,1,4,85
KW_Experiment5A,24,1,"<?xml version=""1.0""?>\n<Clock xmlns:dt=""urn:schemas-microsoft-com:datatypes""><Description dt:dt=""string"">E-Prime Primary Realtime Clock</Description><StartTime><Timestamp dt:dt=""int"">0</Timestamp><DateUtc dt:dt=""string"">2018-10-17T16:24:39Z</DateUtc></StartTime><FrequencyChanges><FrequencyChange><Frequency dt:dt=""r8"">3215244</Frequency><Timestamp dt:dt=""r8"">7124585736004</Timestamp><Current dt:dt=""r8"">0</Current><DateUtc dt:dt=""string"">2018-10-17T16:24:39Z</DateUtc></FrequencyChange></FrequencyChanges></Clock>\n",KW_Experiment5A-24-1,59.945,1.0.0.105,1,-764369534,Professional,2.0.10.353,2.0.10.353,10/17/2018,10/17/2018 16:24,12:24:39,2.0.10.248,3,2,1,3,,,,,,,,TrainingProc,BlockList,38,2,Distractor2.bmp,2,0,,0,1,415346,400,,0,0,blue,400,1,400,,horizontal,blue,Distractor2.bmp,lime,Distractor2.bmp,yellow,Distractor2.bmp,purple,Distractor1.bmp,red,Target2.bmp,cyan,Distractor2.bmp,,,,TrialProc,3,TrainingTrialList,1,2,-999999,0,415746,0,2,278,416024,Target2.bmp,red,2,,,,11,4,86
KW_Experiment5A,24,1,"<?xml version=""1.0""?>\n<Clock xmlns:dt=""urn:schemas-microsoft-com:datatypes""><Description dt:dt=""string"">E-Prime Primary Realtime Clock</Description><StartTime><Timestamp dt:dt=""int"">0</Timestamp><DateUtc dt:dt=""string"">2018-10-17T16:24:39Z</DateUtc></StartTime><FrequencyChanges><FrequencyChange><Frequency dt:dt=""r8"">3215244</Frequency><Timestamp dt:dt=""r8"">7124585736004</Timestamp><Current dt:dt=""r8"">0</Current><DateUtc dt:dt=""string"">2018-10-17T16:24:39Z</DateUtc></FrequencyChange></FrequencyChanges></Clock>\n",KW_Experiment5A-24-1,59.945,1.0.0.105,1,-764369534,Professional,2.0.10.353,2.0.10.353,10/17/2018,10/17/2018 16:24,12:24:39,2.0.10.248,3,2,1,3,,,,,,,,TrainingProc,BlockList,39,2,Distractor1.bmp,1,0,,0,1,417047,601,,0,0,purple,600,3,600,,horizontal,purple,Distractor2.bmp,yellow,Distractor1.bmp,cyan,Distractor2.bmp,red,Target2.bmp,lime,Distractor1.bmp,blue,Distractor2.bmp,,,,TrialProc,5,TrainingTrialList,1,2,-999999,1,417648,0,2,224,417872,Target2.bmp,red,2,,,,10,4,87
KW_Experiment5A,24,1,"<?xml version=""1.0""?>\n<Clock xmlns:dt=""urn:schemas-microsoft-com:datatypes""><Description dt:dt=""string"">E-Prime Primary Realtime Clock</Description><StartTime><Timestamp dt:dt=""int"">0</Timestamp><DateUtc dt:dt=""string"">2018-10-17T16:24:39Z</DateUtc></StartTime><FrequencyChanges><FrequencyChange><Frequency dt:dt=""r8"">3215244</Frequency><Timestamp dt:dt=""r8"">7124585736004</Timestamp><Current dt:dt=""r8"">0</Current><DateUtc dt:dt=""string"">2018-10-17T16:24:39Z</DateUtc></FrequencyChange></FrequencyChanges></Clock>\n",KW_Experiment5A-24-1,59.945,1.0.0.105,1,-764369534,Professional,2.0.10.353,2.0.10.353,10/17/2018,10/17/2018 16:24,12:24:39,2.0.10.248,3,2,1,3,,,,,,,,TrainingProc,BlockList,40,2,Distractor2.bmp,2,0,,0,1,418882,601,,0,0,yellow,600,3,600,2,horizontal,yellow,Distractor2.bmp,lime,Target2.bmp,blue,Distractor2.bmp,red,Distractor1.bmp,purple,Distractor2.bmp,cyan,Distractor2.bmp,,,,TrialProc,,TrainingTrialList,1,2,-999999,1,419483,0,2,405,419888,Target2.bmp,lime,2,,,,2,4,88
KW_Experiment5A,24,1,"<?xml version=""1.0""?>\n<Clock xmlns:dt=""urn:schemas-microsoft-com:datatypes""><Description dt:dt=""string"">E-Prime Primary Realtime Clock</Description><StartTime><Timestamp dt:dt=""int"">0</Timestamp><DateUtc dt:dt=""string"">2018-10-17T16:24:39Z</DateUtc></StartTime><FrequencyChanges><FrequencyChange><Frequency dt:dt=""r8"">3215244</Frequency><Timestamp dt:dt=""r8"">7124585736004</Timestamp><Current dt:dt=""r8"">0</Current><DateUtc dt:dt=""string"">2018-10-17T16:24:39Z</DateUtc></FrequencyChange></FrequencyChanges></Clock>\n",KW_Experiment5A-24-1,59.945,1.0.0.105,1,-764369534,Professional,2.0.10.353,2.0.10.353,10/17/2018,10/17/2018 16:24,12:24:39,2.0.10.248,3,2,1,3,,,,,,,,TrainingProc,BlockList,41,2,Distractor1.bmp,1,0,,0,1,420901,400,,0,0,yellow,400,1,400,2,horizontal,yellow,Distractor1.bmp,blue,Distractor2.bmp,lime,Target2.bmp,red,Distractor1.bmp,purple,Distractor1.bmp,cyan,Distractor1.bmp,,,,TrialProc,,TrainingTrialList,1,2,-999999,0,421301,0,2,267,421568,Target2.bmp,lime,2,,,,3,4,89
KW_Experiment5A,24,1,"<?xml version=""1.0""?>\n<Clock xmlns:dt=""urn:schemas-microsoft-com:datatypes""><Description dt:dt=""string"">E-Prime Primary Realtime Clock</Description><StartTime><Timestamp dt:dt=""int"">0</Timestamp><DateUtc dt:dt=""string"">2018-10-17T16:24:39Z</DateUtc></StartTime><FrequencyChanges><FrequencyChange><Frequency dt:dt=""r8"">3215244</Frequency><Timestamp dt:dt=""r8"">7124585736004</Timestamp><Current dt:dt=""r8"">0</Current><DateUtc dt:dt=""string"">2018-10-17T16:24:39Z</DateUtc></FrequencyChange></FrequencyChanges></Clock>\n",KW_Experiment5A-24-1,59.945,1.0.0.105,1,-764369534,Professional,2.0.10.353,2.0.10.353,10/17/2018,10/17/2018 16:24,12:24:39,2.0.10.248,3,2,1,3,,,,,,,,TrainingProc,BlockList,42,2,Distractor2.bmp,2,0,,0,1,422586,500,,0,0,red,500,2,500,1,horizontal,red,Distractor2.bmp,blue,Distractor1.bmp,cyan,Distractor1.bmp,purple,Distractor1.bmp,yellow,Distractor2.bmp,lime,Target2.bmp,,,,TrialProc,,TrainingTrialList,1,2,-999999,0,423086,0,2,162,423248,Target2.bmp,lime,2,,,,6,4,90
