ExperimentName,Subject,Session,Clock.Information,DataFile.Basename,Display.RefreshRate,ExperimentVersion,Group,RandomSeed,RuntimeCapabilities,RuntimeVersion,RuntimeVersionExpected,SessionDate,SessionStartDateTimeUtc,SessionTime,StudioVersion,Block,BlockList,BlockList.Cycle,BlockList.Sample,PostTestQ1.RESP,PostTestQ1CJ.RESP,PostTestQ2.RESP,PostTestQ2CJ.RESP,PostTestQ3.RESP,PostTestQ3CJ.RESP,PostTestSlide.RESP,Procedure[Block],Running[Block],Trial,CorrectResponse,Distractor,DistractorList,Fixation.ACC,Fixation.CRESP,Fixation.DurationError,Fixation.OnsetDelay,Fixation.OnsetTime,Fixation.OnsetToOnsetTime,Fixation.RESP,Fixation.RT,Fixation.RTTime,ItemColor,Jitter,JitterList,JitterTime,Lime0List,Orientation,Pos1Color,Pos1Item,Pos2Color,Pos2Item,Pos3Color,Pos3Item,Pos4Color,Pos4Item,Pos5Color,Pos5Item,Pos6Color,Pos6Item,PracticeTrialList,PracticeTrialList.Cycle,PracticeTrialList.Sample,Procedure[Trial],Red0List,Running[Trial],Stimulus.ACC,Stimulus.CRESP,Stimulus.DurationError,Stimulus.OnsetDelay,Stimulus.OnsetTime,Stimulus.OnsetToOnsetTime,Stimulus.RESP,Stimulus.RT,Stimulus.RTTime,Target,TargetColor,TargetList,TestTrialList,TestTrialList.Cycle,TestTrialList.Sample,TrainingTrialList,TrainingTrialList.Cycle,TrainingTrialList.Sample
KW_Experiment5A,37,1,"<?xml version=""1.0""?>\n<Clock xmlns:dt=""urn:schemas-microsoft-com:datatypes""><Description dt:dt=""string"">E-Prime Primary Realtime Clock</Description><StartTime><Timestamp dt:dt=""int"">0</Timestamp><DateUtc dt:dt=""string"">2018-10-24T16:12:06Z</DateUtc></StartTime><FrequencyChanges><FrequencyChange><Frequency dt:dt=""r8"">3215273</Frequency><Timestamp dt:dt=""r8"">1288211474649</Timestamp><Current dt:dt=""r8"">0</Current><DateUtc dt:dt=""string"">2018-10-24T16:12:06Z</DateUtc></FrequencyChange></FrequencyChanges></Clock>\n",KW_Experiment5A-37-1,59.946,1.0.0.105,2,-278088075,Professional,2.0.10.353,2.0.10.353,10/24/2018,10/24/2018 16:12,12:12:06,2.0.10.248,1,1,1,1,,,,,,,,PracticeProc,BlockList,1,2,Distractor1.bmp,1,0,,0,100,834396,600,,0,0,lime,600,3,600,,horizontal,blue,Distractor1.bmp,yellow,Distractor1.bmp,cyan,Distractor1.bmp,purple,Distractor2.bmp,lime,Distractor2.bmp,red,Target2.bmp,6,1,1,TrialProc,6,PracticeTrialList,0,2,-999999,0,834996,0,1,1044,836040,Target2.bmp,red,2,,,,,,
KW_Experiment5A,37,1,"<?xml version=""1.0""?>\n<Clock xmlns:dt=""urn:schemas-microsoft-com:datatypes""><Description dt:dt=""string"">E-Prime Primary Realtime Clock</Description><StartTime><Timestamp dt:dt=""int"">0</Timestamp><DateUtc dt:dt=""string"">2018-10-24T16:12:06Z</DateUtc></StartTime><FrequencyChanges><FrequencyChange><Frequency dt:dt=""r8"">3215273</Frequency><Timestamp dt:dt=""r8"">1288211474649</Timestamp><Current dt:dt=""r8"">0</Current><DateUtc dt:dt=""string"">2018-10-24T16:12:06Z</DateUtc></FrequencyChange></FrequencyChanges></Clock>\n",KW_Experiment5A-37-1,59.946,1.0.0.105,2,-278088075,Professional,2.0.10.353,2.0.10.353,10/24/2018,10/24/2018 16:12,12:12:06,2.0.10.248,1,1,1,1,,,,,,,,PracticeProc,BlockList,2,1,Distractor1.bmp,1,0,,0,1,837065,600,,0,0,purple,600,3,600,5,vertical,lime,Target1.bmp,red,Distractor1.bmp,yellow,Distractor1.bmp,cyan,Distractor1.bmp,blue,Distractor1.bmp,purple,Distractor2.bmp,1,1,2,TrialProc,,PracticeTrialList,0,1,-999999,0,837665,0,2,3847,841512,Target1.bmp,lime,1,,,,,,
KW_Experiment5A,37,1,"<?xml version=""1.0""?>\n<Clock xmlns:dt=""urn:schemas-microsoft-com:datatypes""><Description dt:dt=""string"">E-Prime Primary Realtime Clock</Description><StartTime><Timestamp dt:dt=""int"">0</Timestamp><DateUtc dt:dt=""string"">2018-10-24T16:12:06Z</DateUtc></StartTime><FrequencyChanges><FrequencyChange><Frequency dt:dt=""r8"">3215273</Frequency><Timestamp dt:dt=""r8"">1288211474649</Timestamp><Current dt:dt=""r8"">0</Current><DateUtc dt:dt=""string"">2018-10-24T16:12:06Z</DateUtc></FrequencyChange></FrequencyChanges></Clock>\n",KW_Experiment5A-37-1,59.946,1.0.0.105,2,-278088075,Professional,2.0.10.353,2.0.10.353,10/24/2018,10/24/2018 16:12,12:12:06,2.0.10.248,1,1,1,1,,,,,,,,PracticeProc,BlockList,3,1,Distractor2.bmp,2,0,,1,0,842536,601,,0,0,lime,600,3,600,,vertical,cyan,Distractor1.bmp,yellow,Distractor1.bmp,lime,Distractor1.bmp,red,Target1.bmp,blue,Distractor2.bmp,purple,Distractor2.bmp,4,1,3,TrialProc,6,PracticeTrialList,1,1,-999999,1,843137,0,1,3607,846744,Target1.bmp,red,1,,,,,,
KW_Experiment5A,37,1,"<?xml version=""1.0""?>\n<Clock xmlns:dt=""urn:schemas-microsoft-com:datatypes""><Description dt:dt=""string"">E-Prime Primary Realtime Clock</Description><StartTime><Timestamp dt:dt=""int"">0</Timestamp><DateUtc dt:dt=""string"">2018-10-24T16:12:06Z</DateUtc></StartTime><FrequencyChanges><FrequencyChange><Frequency dt:dt=""r8"">3215273</Frequency><Timestamp dt:dt=""r8"">1288211474649</Timestamp><Current dt:dt=""r8"">0</Current><DateUtc dt:dt=""string"">2018-10-24T16:12:06Z</DateUtc></FrequencyChange></FrequencyChanges></Clock>\n",KW_Experiment5A-37-1,59.946,1.0.0.105,2,-278088075,Professional,2.0.10.353,2.0.10.353,10/24/2018,10/24/2018 16:12,12:12:06,2.0.10.248,1,1,1,1,,,,,,,,PracticeProc,BlockList,4,1,Distractor2.bmp,2,0,,0,1,847758,400,,0,0,blue,400,1,400,3,vertical,purple,Distractor1.bmp,blue,Distractor1.bmp,lime,Target1.bmp,cyan,Distractor2.bmp,yellow,Distractor2.bmp,red,Distractor1.bmp,3,1,4,TrialProc,,PracticeTrialList,0,1,-999999,0,848158,0,2,1162,849320,Target1.bmp,lime,1,,,,,,
KW_Experiment5A,37,1,"<?xml version=""1.0""?>\n<Clock xmlns:dt=""urn:schemas-microsoft-com:datatypes""><Description dt:dt=""string"">E-Prime Primary Realtime Clock</Description><StartTime><Timestamp dt:dt=""int"">0</Timestamp><DateUtc dt:dt=""string"">2018-10-24T16:12:06Z</DateUtc></StartTime><FrequencyChanges><FrequencyChange><Frequency dt:dt=""r8"">3215273</Frequency><Timestamp dt:dt=""r8"">1288211474649</Timestamp><Current dt:dt=""r8"">0</Current><DateUtc dt:dt=""string"">2018-10-24T16:12:06Z</DateUtc></FrequencyChange></FrequencyChanges></Clock>\n",KW_Experiment5A-37-1,59.946,1.0.0.105,2,-278088075,Professional,2.0.10.353,2.0.10.353,10/24/2018,10/24/2018 16:12,12:12:06,2.0.10.248,1,1,1,1,,,,,,,,PracticeProc,BlockList,5,2,Distractor1.bmp,1,0,,0,1,850344,400,,0,0,red,400,1,400,1,horizontal,blue,Distractor2.bmp,yellow,Distractor2.bmp,cyan,Distractor2.bmp,red,Distractor2.bmp,lime,Target2.bmp,purple,Distractor1.bmp,5,1,5,TrialProc,,PracticeTrialList,1,2,-999999,0,850744,0,2,1656,852400,Target2.bmp,lime,2,,,,,,
KW_Experiment5A,37,1,"<?xml version=""1.0""?>\n<Clock xmlns:dt=""urn:schemas-microsoft-com:datatypes""><Description dt:dt=""string"">E-Prime Primary Realtime Clock</Description><StartTime><Timestamp dt:dt=""int"">0</Timestamp><DateUtc dt:dt=""string"">2018-10-24T16:12:06Z</DateUtc></StartTime><FrequencyChanges><FrequencyChange><Frequency dt:dt=""r8"">3215273</Frequency><Timestamp dt:dt=""r8"">1288211474649</Timestamp><Current dt:dt=""r8"">0</Current><DateUtc dt:dt=""string"">2018-10-24T16:12:06Z</DateUtc></FrequencyChange></FrequencyChanges></Clock>\n",KW_Experiment5A-37-1,59.946,1.0.0.105,2,-278088075,Professional,2.0.10.353,2.0.10.353,10/24/2018,10/24/2018 16:12,12:12:06,2.0.10.248,1,1,1,1,,,,,,,,PracticeProc,BlockList,6,1,Distractor1.bmp,1,0,,0,1,853413,400,,0,0,yellow,400,1,400,,vertical,yellow,Distractor2.bmp,red,Target1.bmp,cyan,Distractor1.bmp,lime,Distractor2.bmp,blue,Distractor1.bmp,purple,Distractor1.bmp,2,1,6,TrialProc,2,PracticeTrialList,1,1,-999999,0,853813,0,1,1667,855480,Target1.bmp,red,1,,,,,,
KW_Experiment5A,37,1,"<?xml version=""1.0""?>\n<Clock xmlns:dt=""urn:schemas-microsoft-com:datatypes""><Description dt:dt=""string"">E-Prime Primary Realtime Clock</Description><StartTime><Timestamp dt:dt=""int"">0</Timestamp><DateUtc dt:dt=""string"">2018-10-24T16:12:06Z</DateUtc></StartTime><FrequencyChanges><FrequencyChange><Frequency dt:dt=""r8"">3215273</Frequency><Timestamp dt:dt=""r8"">1288211474649</Timestamp><Current dt:dt=""r8"">0</Current><DateUtc dt:dt=""string"">2018-10-24T16:12:06Z</DateUtc></FrequencyChange></FrequencyChanges></Clock>\n",KW_Experiment5A-37-1,59.946,1.0.0.105,2,-278088075,Professional,2.0.10.353,2.0.10.353,10/24/2018,10/24/2018 16:12,12:12:06,2.0.10.248,2,2,1,2,,,,,,,,TrainingProc,BlockList,1,1,Distractor1.bmp,1,0,,0,35,871963,501,,0,0,cyan,500,2,500,,vertical,cyan,Distractor1.bmp,yellow,Distractor2.bmp,purple,Distractor1.bmp,lime,Distractor1.bmp,blue,Distractor1.bmp,red,Target1.bmp,,,,TrialProc,4,TrainingTrialList,1,1,-999999,1,872464,0,1,560,873024,Target1.bmp,red,1,,,,12,2,1
KW_Experiment5A,37,1,"<?xml version=""1.0""?>\n<Clock xmlns:dt=""urn:schemas-microsoft-com:datatypes""><Description dt:dt=""string"">E-Prime Primary Realtime Clock</Description><StartTime><Timestamp dt:dt=""int"">0</Timestamp><DateUtc dt:dt=""string"">2018-10-24T16:12:06Z</DateUtc></StartTime><FrequencyChanges><FrequencyChange><Frequency dt:dt=""r8"">3215273</Frequency><Timestamp dt:dt=""r8"">1288211474649</Timestamp><Current dt:dt=""r8"">0</Current><DateUtc dt:dt=""string"">2018-10-24T16:12:06Z</DateUtc></FrequencyChange></FrequencyChanges></Clock>\n",KW_Experiment5A-37-1,59.946,1.0.0.105,2,-278088075,Professional,2.0.10.353,2.0.10.353,10/24/2018,10/24/2018 16:12,12:12:06,2.0.10.248,2,2,1,2,,,,,,,,TrainingProc,BlockList,2,1,Distractor2.bmp,2,0,,0,1,874049,500,,0,0,purple,500,2,500,,vertical,purple,Distractor1.bmp,yellow,Distractor1.bmp,red,Target1.bmp,cyan,Distractor2.bmp,blue,Distractor2.bmp,lime,Distractor2.bmp,,,,TrialProc,5,TrainingTrialList,0,1,-999999,0,874549,0,2,426,874975,Target1.bmp,red,1,,,,9,2,2
KW_Experiment5A,37,1,"<?xml version=""1.0""?>\n<Clock xmlns:dt=""urn:schemas-microsoft-com:datatypes""><Description dt:dt=""string"">E-Prime Primary Realtime Clock</Description><StartTime><Timestamp dt:dt=""int"">0</Timestamp><DateUtc dt:dt=""string"">2018-10-24T16:12:06Z</DateUtc></StartTime><FrequencyChanges><FrequencyChange><Frequency dt:dt=""r8"">3215273</Frequency><Timestamp dt:dt=""r8"">1288211474649</Timestamp><Current dt:dt=""r8"">0</Current><DateUtc dt:dt=""string"">2018-10-24T16:12:06Z</DateUtc></FrequencyChange></FrequencyChanges></Clock>\n",KW_Experiment5A-37-1,59.946,1.0.0.105,2,-278088075,Professional,2.0.10.353,2.0.10.353,10/24/2018,10/24/2018 16:12,12:12:06,2.0.10.248,2,2,1,2,,,,,,,,TrainingProc,BlockList,3,2,Distractor2.bmp,2,0,,0,1,876000,601,,0,0,purple,600,3,600,5,horizontal,purple,Distractor2.bmp,lime,Target2.bmp,blue,Distractor2.bmp,yellow,Distractor2.bmp,cyan,Distractor1.bmp,red,Distractor2.bmp,,,,TrialProc,,TrainingTrialList,0,2,-999999,1,876601,0,1,374,876975,Target2.bmp,lime,2,,,,2,2,3
KW_Experiment5A,37,1,"<?xml version=""1.0""?>\n<Clock xmlns:dt=""urn:schemas-microsoft-com:datatypes""><Description dt:dt=""string"">E-Prime Primary Realtime Clock</Description><StartTime><Timestamp dt:dt=""int"">0</Timestamp><DateUtc dt:dt=""string"">2018-10-24T16:12:06Z</DateUtc></StartTime><FrequencyChanges><FrequencyChange><Frequency dt:dt=""r8"">3215273</Frequency><Timestamp dt:dt=""r8"">1288211474649</Timestamp><Current dt:dt=""r8"">0</Current><DateUtc dt:dt=""string"">2018-10-24T16:12:06Z</DateUtc></FrequencyChange></FrequencyChanges></Clock>\n",KW_Experiment5A-37-1,59.946,1.0.0.105,2,-278088075,Professional,2.0.10.353,2.0.10.353,10/24/2018,10/24/2018 16:12,12:12:06,2.0.10.248,2,2,1,2,,,,,,,,TrainingProc,BlockList,4,2,Distractor2.bmp,2,0,,0,1,878002,501,,0,0,purple,500,2,500,,horizontal,purple,Distractor1.bmp,cyan,Distractor2.bmp,yellow,Distractor1.bmp,red,Target2.bmp,blue,Distractor2.bmp,lime,Distractor2.bmp,,,,TrialProc,5,TrainingTrialList,1,2,-999999,1,878503,0,2,712,879215,Target2.bmp,red,2,,,,10,2,4
KW_Experiment5A,37,1,"<?xml version=""1.0""?>\n<Clock xmlns:dt=""urn:schemas-microsoft-com:datatypes""><Description dt:dt=""string"">E-Prime Primary Realtime Clock</Description><StartTime><Timestamp dt:dt=""int"">0</Timestamp><DateUtc dt:dt=""string"">2018-10-24T16:12:06Z</DateUtc></StartTime><FrequencyChanges><FrequencyChange><Frequency dt:dt=""r8"">3215273</Frequency><Timestamp dt:dt=""r8"">1288211474649</Timestamp><Current dt:dt=""r8"">0</Current><DateUtc dt:dt=""string"">2018-10-24T16:12:06Z</DateUtc></FrequencyChange></FrequencyChanges></Clock>\n",KW_Experiment5A-37-1,59.946,1.0.0.105,2,-278088075,Professional,2.0.10.353,2.0.10.353,10/24/2018,10/24/2018 16:12,12:12:06,2.0.10.248,2,2,1,2,,,,,,,,TrainingProc,BlockList,5,1,Distractor2.bmp,2,0,,0,1,880238,400,,0,0,blue,400,1,400,,vertical,blue,Distractor2.bmp,red,Target1.bmp,cyan,Distractor2.bmp,purple,Distractor2.bmp,lime,Distractor1.bmp,yellow,Distractor1.bmp,,,,TrialProc,3,TrainingTrialList,0,1,-999999,0,880638,0,2,649,881287,Target1.bmp,red,1,,,,8,2,5
KW_Experiment5A,37,1,"<?xml version=""1.0""?>\n<Clock xmlns:dt=""urn:schemas-microsoft-com:datatypes""><Description dt:dt=""string"">E-Prime Primary Realtime Clock</Description><StartTime><Timestamp dt:dt=""int"">0</Timestamp><DateUtc dt:dt=""string"">2018-10-24T16:12:06Z</DateUtc></StartTime><FrequencyChanges><FrequencyChange><Frequency dt:dt=""r8"">3215273</Frequency><Timestamp dt:dt=""r8"">1288211474649</Timestamp><Current dt:dt=""r8"">0</Current><DateUtc dt:dt=""string"">2018-10-24T16:12:06Z</DateUtc></FrequencyChange></FrequencyChanges></Clock>\n",KW_Experiment5A-37-1,59.946,1.0.0.105,2,-278088075,Professional,2.0.10.353,2.0.10.353,10/24/2018,10/24/2018 16:12,12:12:06,2.0.10.248,2,2,1,2,,,,,,,,TrainingProc,BlockList,6,1,Distractor2.bmp,2,0,,0,1,882306,401,,0,0,lime,400,1,400,,vertical,lime,Distractor1.bmp,red,Target1.bmp,yellow,Distractor2.bmp,cyan,Distractor1.bmp,blue,Distractor1.bmp,purple,Distractor1.bmp,,,,TrialProc,6,TrainingTrialList,0,1,-999999,1,882707,0,2,596,883303,Target1.bmp,red,1,,,,8,2,6
KW_Experiment5A,37,1,"<?xml version=""1.0""?>\n<Clock xmlns:dt=""urn:schemas-microsoft-com:datatypes""><Description dt:dt=""string"">E-Prime Primary Realtime Clock</Description><StartTime><Timestamp dt:dt=""int"">0</Timestamp><DateUtc dt:dt=""string"">2018-10-24T16:12:06Z</DateUtc></StartTime><FrequencyChanges><FrequencyChange><Frequency dt:dt=""r8"">3215273</Frequency><Timestamp dt:dt=""r8"">1288211474649</Timestamp><Current dt:dt=""r8"">0</Current><DateUtc dt:dt=""string"">2018-10-24T16:12:06Z</DateUtc></FrequencyChange></FrequencyChanges></Clock>\n",KW_Experiment5A-37-1,59.946,1.0.0.105,2,-278088075,Professional,2.0.10.353,2.0.10.353,10/24/2018,10/24/2018 16:12,12:12:06,2.0.10.248,2,2,1,2,,,,,,,,TrainingProc,BlockList,7,2,Distractor2.bmp,2,0,,0,1,884325,600,,0,0,red,600,3,600,1,horizontal,red,Distractor1.bmp,cyan,Distractor1.bmp,lime,Target2.bmp,purple,Distractor2.bmp,yellow,Distractor2.bmp,blue,Distractor1.bmp,,,,TrialProc,,TrainingTrialList,1,2,-999999,0,884925,0,2,738,885663,Target2.bmp,lime,2,,,,3,2,7
KW_Experiment5A,37,1,"<?xml version=""1.0""?>\n<Clock xmlns:dt=""urn:schemas-microsoft-com:datatypes""><Description dt:dt=""string"">E-Prime Primary Realtime Clock</Description><StartTime><Timestamp dt:dt=""int"">0</Timestamp><DateUtc dt:dt=""string"">2018-10-24T16:12:06Z</DateUtc></StartTime><FrequencyChanges><FrequencyChange><Frequency dt:dt=""r8"">3215273</Frequency><Timestamp dt:dt=""r8"">1288211474649</Timestamp><Current dt:dt=""r8"">0</Current><DateUtc dt:dt=""string"">2018-10-24T16:12:06Z</DateUtc></FrequencyChange></FrequencyChanges></Clock>\n",KW_Experiment5A-37-1,59.946,1.0.0.105,2,-278088075,Professional,2.0.10.353,2.0.10.353,10/24/2018,10/24/2018 16:12,12:12:06,2.0.10.248,2,2,1,2,,,,,,,,TrainingProc,BlockList,8,2,Distractor1.bmp,1,0,,0,1,886677,500,,0,0,cyan,500,2,500,,horizontal,cyan,Distractor2.bmp,blue,Distractor2.bmp,lime,Distractor2.bmp,red,Target2.bmp,purple,Distractor1.bmp,yellow,Distractor2.bmp,,,,TrialProc,4,TrainingTrialList,0,2,-999999,0,887177,0,1,726,887903,Target2.bmp,red,2,,,,10,2,8
KW_Experiment5A,37,1,"<?xml version=""1.0""?>\n<Clock xmlns:dt=""urn:schemas-microsoft-com:datatypes""><Description dt:dt=""string"">E-Prime Primary Realtime Clock</Description><StartTime><Timestamp dt:dt=""int"">0</Timestamp><DateUtc dt:dt=""string"">2018-10-24T16:12:06Z</DateUtc></StartTime><FrequencyChanges><FrequencyChange><Frequency dt:dt=""r8"">3215273</Frequency><Timestamp dt:dt=""r8"">1288211474649</Timestamp><Current dt:dt=""r8"">0</Current><DateUtc dt:dt=""string"">2018-10-24T16:12:06Z</DateUtc></FrequencyChange></FrequencyChanges></Clock>\n",KW_Experiment5A-37-1,59.946,1.0.0.105,2,-278088075,Professional,2.0.10.353,2.0.10.353,10/24/2018,10/24/2018 16:12,12:12:06,2.0.10.248,2,2,1,2,,,,,,,,TrainingProc,BlockList,9,1,Distractor2.bmp,2,0,,0,1,888929,600,,0,0,blue,600,3,600,3,vertical,blue,Distractor2.bmp,cyan,Distractor2.bmp,yellow,Distractor2.bmp,red,Distractor1.bmp,purple,Distractor1.bmp,lime,Target1.bmp,,,,TrialProc,,TrainingTrialList,0,1,-999999,0,889529,0,2,886,890415,Target1.bmp,lime,1,,,,6,2,9
KW_Experiment5A,37,1,"<?xml version=""1.0""?>\n<Clock xmlns:dt=""urn:schemas-microsoft-com:datatypes""><Description dt:dt=""string"">E-Prime Primary Realtime Clock</Description><StartTime><Timestamp dt:dt=""int"">0</Timestamp><DateUtc dt:dt=""string"">2018-10-24T16:12:06Z</DateUtc></StartTime><FrequencyChanges><FrequencyChange><Frequency dt:dt=""r8"">3215273</Frequency><Timestamp dt:dt=""r8"">1288211474649</Timestamp><Current dt:dt=""r8"">0</Current><DateUtc dt:dt=""string"">2018-10-24T16:12:06Z</DateUtc></FrequencyChange></FrequencyChanges></Clock>\n",KW_Experiment5A-37-1,59.946,1.0.0.105,2,-278088075,Professional,2.0.10.353,2.0.10.353,10/24/2018,10/24/2018 16:12,12:12:06,2.0.10.248,2,2,1,2,,,,,,,,TrainingProc,BlockList,10,1,Distractor2.bmp,2,0,,0,1,891431,501,,0,0,yellow,500,2,500,,vertical,yellow,Distractor2.bmp,lime,Distractor1.bmp,red,Target1.bmp,cyan,Distractor2.bmp,blue,Distractor1.bmp,purple,Distractor2.bmp,,,,TrialProc,2,TrainingTrialList,1,1,-999999,1,891932,0,1,547,892479,Target1.bmp,red,1,,,,9,2,10
KW_Experiment5A,37,1,"<?xml version=""1.0""?>\n<Clock xmlns:dt=""urn:schemas-microsoft-com:datatypes""><Description dt:dt=""string"">E-Prime Primary Realtime Clock</Description><StartTime><Timestamp dt:dt=""int"">0</Timestamp><DateUtc dt:dt=""string"">2018-10-24T16:12:06Z</DateUtc></StartTime><FrequencyChanges><FrequencyChange><Frequency dt:dt=""r8"">3215273</Frequency><Timestamp dt:dt=""r8"">1288211474649</Timestamp><Current dt:dt=""r8"">0</Current><DateUtc dt:dt=""string"">2018-10-24T16:12:06Z</DateUtc></FrequencyChange></FrequencyChanges></Clock>\n",KW_Experiment5A-37-1,59.946,1.0.0.105,2,-278088075,Professional,2.0.10.353,2.0.10.353,10/24/2018,10/24/2018 16:12,12:12:06,2.0.10.248,2,2,1,2,,,,,,,,TrainingProc,BlockList,11,1,Distractor2.bmp,2,0,,0,1,893500,400,,0,0,cyan,400,1,400,,vertical,red,Target1.bmp,blue,Distractor2.bmp,yellow,Distractor1.bmp,lime,Distractor2.bmp,purple,Distractor1.bmp,cyan,Distractor1.bmp,,,,TrialProc,4,TrainingTrialList,1,1,-999999,0,893900,0,1,611,894511,Target1.bmp,red,1,,,,7,2,11
KW_Experiment5A,37,1,"<?xml version=""1.0""?>\n<Clock xmlns:dt=""urn:schemas-microsoft-com:datatypes""><Description dt:dt=""string"">E-Prime Primary Realtime Clock</Description><StartTime><Timestamp dt:dt=""int"">0</Timestamp><DateUtc dt:dt=""string"">2018-10-24T16:12:06Z</DateUtc></StartTime><FrequencyChanges><FrequencyChange><Frequency dt:dt=""r8"">3215273</Frequency><Timestamp dt:dt=""r8"">1288211474649</Timestamp><Current dt:dt=""r8"">0</Current><DateUtc dt:dt=""string"">2018-10-24T16:12:06Z</DateUtc></FrequencyChange></FrequencyChanges></Clock>\n",KW_Experiment5A-37-1,59.946,1.0.0.105,2,-278088075,Professional,2.0.10.353,2.0.10.353,10/24/2018,10/24/2018 16:12,12:12:06,2.0.10.248,2,2,1,2,,,,,,,,TrainingProc,BlockList,12,1,Distractor2.bmp,2,0,,0,1,895535,400,,0,0,blue,400,1,400,,vertical,blue,Distractor2.bmp,lime,Distractor2.bmp,purple,Distractor2.bmp,yellow,Distractor2.bmp,cyan,Distractor2.bmp,red,Target1.bmp,,,,TrialProc,3,TrainingTrialList,1,1,-999999,0,895935,0,1,592,896527,Target1.bmp,red,1,,,,12,2,12
KW_Experiment5A,37,1,"<?xml version=""1.0""?>\n<Clock xmlns:dt=""urn:schemas-microsoft-com:datatypes""><Description dt:dt=""string"">E-Prime Primary Realtime Clock</Description><StartTime><Timestamp dt:dt=""int"">0</Timestamp><DateUtc dt:dt=""string"">2018-10-24T16:12:06Z</DateUtc></StartTime><FrequencyChanges><FrequencyChange><Frequency dt:dt=""r8"">3215273</Frequency><Timestamp dt:dt=""r8"">1288211474649</Timestamp><Current dt:dt=""r8"">0</Current><DateUtc dt:dt=""string"">2018-10-24T16:12:06Z</DateUtc></FrequencyChange></FrequencyChanges></Clock>\n",KW_Experiment5A-37-1,59.946,1.0.0.105,2,-278088075,Professional,2.0.10.353,2.0.10.353,10/24/2018,10/24/2018 16:12,12:12:06,2.0.10.248,2,2,1,2,,,,,,,,TrainingProc,BlockList,13,1,Distractor1.bmp,1,0,,0,1,897537,500,,0,0,purple,500,2,500,5,vertical,lime,Target1.bmp,purple,Distractor1.bmp,red,Distractor1.bmp,yellow,Distractor1.bmp,blue,Distractor1.bmp,cyan,Distractor2.bmp,,,,TrialProc,,TrainingTrialList,0,1,-999999,0,898037,0,2,610,898647,Target1.bmp,lime,1,,,,1,2,13
KW_Experiment5A,37,1,"<?xml version=""1.0""?>\n<Clock xmlns:dt=""urn:schemas-microsoft-com:datatypes""><Description dt:dt=""string"">E-Prime Primary Realtime Clock</Description><StartTime><Timestamp dt:dt=""int"">0</Timestamp><DateUtc dt:dt=""string"">2018-10-24T16:12:06Z</DateUtc></StartTime><FrequencyChanges><FrequencyChange><Frequency dt:dt=""r8"">3215273</Frequency><Timestamp dt:dt=""r8"">1288211474649</Timestamp><Current dt:dt=""r8"">0</Current><DateUtc dt:dt=""string"">2018-10-24T16:12:06Z</DateUtc></FrequencyChange></FrequencyChanges></Clock>\n",KW_Experiment5A-37-1,59.946,1.0.0.105,2,-278088075,Professional,2.0.10.353,2.0.10.353,10/24/2018,10/24/2018 16:12,12:12:06,2.0.10.248,2,2,1,2,,,,,,,,TrainingProc,BlockList,14,1,Distractor1.bmp,1,0,,0,1,899672,601,,0,0,blue,600,3,600,,vertical,red,Target1.bmp,purple,Distractor1.bmp,lime,Distractor2.bmp,cyan,Distractor1.bmp,yellow,Distractor2.bmp,blue,Distractor1.bmp,,,,TrialProc,3,TrainingTrialList,1,1,-999999,1,900273,0,1,582,900855,Target1.bmp,red,1,,,,7,2,14
KW_Experiment5A,37,1,"<?xml version=""1.0""?>\n<Clock xmlns:dt=""urn:schemas-microsoft-com:datatypes""><Description dt:dt=""string"">E-Prime Primary Realtime Clock</Description><StartTime><Timestamp dt:dt=""int"">0</Timestamp><DateUtc dt:dt=""string"">2018-10-24T16:12:06Z</DateUtc></StartTime><FrequencyChanges><FrequencyChange><Frequency dt:dt=""r8"">3215273</Frequency><Timestamp dt:dt=""r8"">1288211474649</Timestamp><Current dt:dt=""r8"">0</Current><DateUtc dt:dt=""string"">2018-10-24T16:12:06Z</DateUtc></FrequencyChange></FrequencyChanges></Clock>\n",KW_Experiment5A-37-1,59.946,1.0.0.105,2,-278088075,Professional,2.0.10.353,2.0.10.353,10/24/2018,10/24/2018 16:12,12:12:06,2.0.10.248,2,2,1,2,,,,,,,,TrainingProc,BlockList,15,2,Distractor2.bmp,2,0,,0,1,901874,601,,0,0,blue,600,3,600,3,horizontal,blue,Distractor2.bmp,cyan,Distractor2.bmp,red,Distractor1.bmp,lime,Target2.bmp,yellow,Distractor2.bmp,purple,Distractor1.bmp,,,,TrialProc,,TrainingTrialList,1,2,-999999,1,902475,0,2,372,902847,Target2.bmp,lime,2,,,,4,2,15
KW_Experiment5A,37,1,"<?xml version=""1.0""?>\n<Clock xmlns:dt=""urn:schemas-microsoft-com:datatypes""><Description dt:dt=""string"">E-Prime Primary Realtime Clock</Description><StartTime><Timestamp dt:dt=""int"">0</Timestamp><DateUtc dt:dt=""string"">2018-10-24T16:12:06Z</DateUtc></StartTime><FrequencyChanges><FrequencyChange><Frequency dt:dt=""r8"">3215273</Frequency><Timestamp dt:dt=""r8"">1288211474649</Timestamp><Current dt:dt=""r8"">0</Current><DateUtc dt:dt=""string"">2018-10-24T16:12:06Z</DateUtc></FrequencyChange></FrequencyChanges></Clock>\n",KW_Experiment5A-37-1,59.946,1.0.0.105,2,-278088075,Professional,2.0.10.353,2.0.10.353,10/24/2018,10/24/2018 16:12,12:12:06,2.0.10.248,2,2,1,2,,,,,,,,TrainingProc,BlockList,16,2,Distractor1.bmp,1,0,,0,1,903859,601,,0,0,lime,600,3,600,,horizontal,lime,Distractor2.bmp,purple,Distractor1.bmp,blue,Distractor1.bmp,yellow,Distractor1.bmp,red,Target2.bmp,cyan,Distractor1.bmp,,,,TrialProc,6,TrainingTrialList,1,2,-999999,1,904460,0,2,683,905143,Target2.bmp,red,2,,,,11,2,16
KW_Experiment5A,37,1,"<?xml version=""1.0""?>\n<Clock xmlns:dt=""urn:schemas-microsoft-com:datatypes""><Description dt:dt=""string"">E-Prime Primary Realtime Clock</Description><StartTime><Timestamp dt:dt=""int"">0</Timestamp><DateUtc dt:dt=""string"">2018-10-24T16:12:06Z</DateUtc></StartTime><FrequencyChanges><FrequencyChange><Frequency dt:dt=""r8"">3215273</Frequency><Timestamp dt:dt=""r8"">1288211474649</Timestamp><Current dt:dt=""r8"">0</Current><DateUtc dt:dt=""string"">2018-10-24T16:12:06Z</DateUtc></FrequencyChange></FrequencyChanges></Clock>\n",KW_Experiment5A-37-1,59.946,1.0.0.105,2,-278088075,Professional,2.0.10.353,2.0.10.353,10/24/2018,10/24/2018 16:12,12:12:06,2.0.10.248,2,2,1,2,,,,,,,,TrainingProc,BlockList,17,1,Distractor2.bmp,2,0,,0,1,906161,501,,0,0,purple,500,2,500,,vertical,purple,Distractor1.bmp,red,Target1.bmp,lime,Distractor2.bmp,yellow,Distractor2.bmp,blue,Distractor1.bmp,cyan,Distractor1.bmp,,,,TrialProc,5,TrainingTrialList,1,1,-999999,1,906662,0,1,465,907127,Target1.bmp,red,1,,,,8,2,17
KW_Experiment5A,37,1,"<?xml version=""1.0""?>\n<Clock xmlns:dt=""urn:schemas-microsoft-com:datatypes""><Description dt:dt=""string"">E-Prime Primary Realtime Clock</Description><StartTime><Timestamp dt:dt=""int"">0</Timestamp><DateUtc dt:dt=""string"">2018-10-24T16:12:06Z</DateUtc></StartTime><FrequencyChanges><FrequencyChange><Frequency dt:dt=""r8"">3215273</Frequency><Timestamp dt:dt=""r8"">1288211474649</Timestamp><Current dt:dt=""r8"">0</Current><DateUtc dt:dt=""string"">2018-10-24T16:12:06Z</DateUtc></FrequencyChange></FrequencyChanges></Clock>\n",KW_Experiment5A-37-1,59.946,1.0.0.105,2,-278088075,Professional,2.0.10.353,2.0.10.353,10/24/2018,10/24/2018 16:12,12:12:06,2.0.10.248,2,2,1,2,,,,,,,,TrainingProc,BlockList,18,1,Distractor1.bmp,1,0,,1,0,908146,601,,0,0,cyan,600,3,600,,vertical,cyan,Distractor1.bmp,blue,Distractor1.bmp,lime,Distractor2.bmp,yellow,Distractor2.bmp,purple,Distractor1.bmp,red,Target1.bmp,,,,TrialProc,4,TrainingTrialList,0,1,-999999,1,908747,0,2,484,909231,Target1.bmp,red,1,,,,12,2,18
KW_Experiment5A,37,1,"<?xml version=""1.0""?>\n<Clock xmlns:dt=""urn:schemas-microsoft-com:datatypes""><Description dt:dt=""string"">E-Prime Primary Realtime Clock</Description><StartTime><Timestamp dt:dt=""int"">0</Timestamp><DateUtc dt:dt=""string"">2018-10-24T16:12:06Z</DateUtc></StartTime><FrequencyChanges><FrequencyChange><Frequency dt:dt=""r8"">3215273</Frequency><Timestamp dt:dt=""r8"">1288211474649</Timestamp><Current dt:dt=""r8"">0</Current><DateUtc dt:dt=""string"">2018-10-24T16:12:06Z</DateUtc></FrequencyChange></FrequencyChanges></Clock>\n",KW_Experiment5A-37-1,59.946,1.0.0.105,2,-278088075,Professional,2.0.10.353,2.0.10.353,10/24/2018,10/24/2018 16:12,12:12:06,2.0.10.248,2,2,1,2,,,,,,,,TrainingProc,BlockList,19,2,Distractor1.bmp,1,0,,0,1,910248,401,,0,0,purple,400,1,400,,horizontal,purple,Distractor2.bmp,cyan,Distractor1.bmp,red,Target2.bmp,yellow,Distractor1.bmp,blue,Distractor1.bmp,lime,Distractor2.bmp,,,,TrialProc,5,TrainingTrialList,1,2,-999999,1,910649,0,2,622,911271,Target2.bmp,red,2,,,,9,2,19
KW_Experiment5A,37,1,"<?xml version=""1.0""?>\n<Clock xmlns:dt=""urn:schemas-microsoft-com:datatypes""><Description dt:dt=""string"">E-Prime Primary Realtime Clock</Description><StartTime><Timestamp dt:dt=""int"">0</Timestamp><DateUtc dt:dt=""string"">2018-10-24T16:12:06Z</DateUtc></StartTime><FrequencyChanges><FrequencyChange><Frequency dt:dt=""r8"">3215273</Frequency><Timestamp dt:dt=""r8"">1288211474649</Timestamp><Current dt:dt=""r8"">0</Current><DateUtc dt:dt=""string"">2018-10-24T16:12:06Z</DateUtc></FrequencyChange></FrequencyChanges></Clock>\n",KW_Experiment5A-37-1,59.946,1.0.0.105,2,-278088075,Professional,2.0.10.353,2.0.10.353,10/24/2018,10/24/2018 16:12,12:12:06,2.0.10.248,2,2,1,2,,,,,,,,TrainingProc,BlockList,20,2,Distractor2.bmp,2,0,,0,1,912284,400,,0,0,yellow,400,1,400,,horizontal,red,Target2.bmp,lime,Distractor2.bmp,purple,Distractor1.bmp,blue,Distractor1.bmp,cyan,Distractor1.bmp,yellow,Distractor1.bmp,,,,TrialProc,2,TrainingTrialList,1,2,-999999,0,912684,0,2,571,913255,Target2.bmp,red,2,,,,7,2,20
KW_Experiment5A,37,1,"<?xml version=""1.0""?>\n<Clock xmlns:dt=""urn:schemas-microsoft-com:datatypes""><Description dt:dt=""string"">E-Prime Primary Realtime Clock</Description><StartTime><Timestamp dt:dt=""int"">0</Timestamp><DateUtc dt:dt=""string"">2018-10-24T16:12:06Z</DateUtc></StartTime><FrequencyChanges><FrequencyChange><Frequency dt:dt=""r8"">3215273</Frequency><Timestamp dt:dt=""r8"">1288211474649</Timestamp><Current dt:dt=""r8"">0</Current><DateUtc dt:dt=""string"">2018-10-24T16:12:06Z</DateUtc></FrequencyChange></FrequencyChanges></Clock>\n",KW_Experiment5A-37-1,59.946,1.0.0.105,2,-278088075,Professional,2.0.10.353,2.0.10.353,10/24/2018,10/24/2018 16:12,12:12:06,2.0.10.248,2,2,1,2,,,,,,,,TrainingProc,BlockList,21,1,Distractor2.bmp,2,0,,0,1,914269,400,,0,0,purple,400,1,400,,vertical,purple,Distractor1.bmp,blue,Distractor2.bmp,yellow,Distractor1.bmp,red,Target1.bmp,lime,Distractor2.bmp,cyan,Distractor1.bmp,,,,TrialProc,5,TrainingTrialList,1,1,-999999,0,914669,0,1,442,915111,Target1.bmp,red,1,,,,10,2,21
KW_Experiment5A,37,1,"<?xml version=""1.0""?>\n<Clock xmlns:dt=""urn:schemas-microsoft-com:datatypes""><Description dt:dt=""string"">E-Prime Primary Realtime Clock</Description><StartTime><Timestamp dt:dt=""int"">0</Timestamp><DateUtc dt:dt=""string"">2018-10-24T16:12:06Z</DateUtc></StartTime><FrequencyChanges><FrequencyChange><Frequency dt:dt=""r8"">3215273</Frequency><Timestamp dt:dt=""r8"">1288211474649</Timestamp><Current dt:dt=""r8"">0</Current><DateUtc dt:dt=""string"">2018-10-24T16:12:06Z</DateUtc></FrequencyChange></FrequencyChanges></Clock>\n",KW_Experiment5A-37-1,59.946,1.0.0.105,2,-278088075,Professional,2.0.10.353,2.0.10.353,10/24/2018,10/24/2018 16:12,12:12:06,2.0.10.248,2,2,1,2,,,,,,,,TrainingProc,BlockList,22,2,Distractor1.bmp,1,0,,0,1,916120,401,,0,0,yellow,400,1,400,,horizontal,yellow,Distractor2.bmp,blue,Distractor1.bmp,cyan,Distractor1.bmp,purple,Distractor1.bmp,red,Target2.bmp,lime,Distractor1.bmp,,,,TrialProc,2,TrainingTrialList,0,2,-999999,1,916521,0,1,422,916943,Target2.bmp,red,2,,,,11,2,22
KW_Experiment5A,37,1,"<?xml version=""1.0""?>\n<Clock xmlns:dt=""urn:schemas-microsoft-com:datatypes""><Description dt:dt=""string"">E-Prime Primary Realtime Clock</Description><StartTime><Timestamp dt:dt=""int"">0</Timestamp><DateUtc dt:dt=""string"">2018-10-24T16:12:06Z</DateUtc></StartTime><FrequencyChanges><FrequencyChange><Frequency dt:dt=""r8"">3215273</Frequency><Timestamp dt:dt=""r8"">1288211474649</Timestamp><Current dt:dt=""r8"">0</Current><DateUtc dt:dt=""string"">2018-10-24T16:12:06Z</DateUtc></FrequencyChange></FrequencyChanges></Clock>\n",KW_Experiment5A-37-1,59.946,1.0.0.105,2,-278088075,Professional,2.0.10.353,2.0.10.353,10/24/2018,10/24/2018 16:12,12:12:06,2.0.10.248,2,2,1,2,,,,,,,,TrainingProc,BlockList,23,2,Distractor2.bmp,2,0,,1,0,917955,501,,0,0,yellow,500,2,500,2,horizontal,yellow,Distractor2.bmp,purple,Distractor1.bmp,blue,Distractor1.bmp,cyan,Distractor2.bmp,lime,Target2.bmp,red,Distractor2.bmp,,,,TrialProc,,TrainingTrialList,1,2,-999999,1,918456,0,2,495,918951,Target2.bmp,lime,2,,,,5,2,23
KW_Experiment5A,37,1,"<?xml version=""1.0""?>\n<Clock xmlns:dt=""urn:schemas-microsoft-com:datatypes""><Description dt:dt=""string"">E-Prime Primary Realtime Clock</Description><StartTime><Timestamp dt:dt=""int"">0</Timestamp><DateUtc dt:dt=""string"">2018-10-24T16:12:06Z</DateUtc></StartTime><FrequencyChanges><FrequencyChange><Frequency dt:dt=""r8"">3215273</Frequency><Timestamp dt:dt=""r8"">1288211474649</Timestamp><Current dt:dt=""r8"">0</Current><DateUtc dt:dt=""string"">2018-10-24T16:12:06Z</DateUtc></FrequencyChange></FrequencyChanges></Clock>\n",KW_Experiment5A-37-1,59.946,1.0.0.105,2,-278088075,Professional,2.0.10.353,2.0.10.353,10/24/2018,10/24/2018 16:12,12:12:06,2.0.10.248,2,2,1,2,,,,,,,,TrainingProc,BlockList,24,2,Distractor2.bmp,2,0,,0,1,919974,400,,0,0,cyan,400,1,400,,horizontal,cyan,Distractor2.bmp,lime,Distractor2.bmp,yellow,Distractor2.bmp,blue,Distractor2.bmp,red,Target2.bmp,purple,Distractor2.bmp,,,,TrialProc,4,TrainingTrialList,1,2,-999999,0,920374,0,2,593,920967,Target2.bmp,red,2,,,,11,2,24
KW_Experiment5A,37,1,"<?xml version=""1.0""?>\n<Clock xmlns:dt=""urn:schemas-microsoft-com:datatypes""><Description dt:dt=""string"">E-Prime Primary Realtime Clock</Description><StartTime><Timestamp dt:dt=""int"">0</Timestamp><DateUtc dt:dt=""string"">2018-10-24T16:12:06Z</DateUtc></StartTime><FrequencyChanges><FrequencyChange><Frequency dt:dt=""r8"">3215273</Frequency><Timestamp dt:dt=""r8"">1288211474649</Timestamp><Current dt:dt=""r8"">0</Current><DateUtc dt:dt=""string"">2018-10-24T16:12:06Z</DateUtc></FrequencyChange></FrequencyChanges></Clock>\n",KW_Experiment5A-37-1,59.946,1.0.0.105,2,-278088075,Professional,2.0.10.353,2.0.10.353,10/24/2018,10/24/2018 16:12,12:12:06,2.0.10.248,2,2,1,2,,,,,,,,TrainingProc,BlockList,25,2,Distractor2.bmp,2,0,,0,1,921976,600,,0,0,cyan,600,3,600,,horizontal,cyan,Distractor2.bmp,lime,Distractor1.bmp,purple,Distractor2.bmp,yellow,Distractor1.bmp,blue,Distractor1.bmp,red,Target2.bmp,,,,TrialProc,4,TrainingTrialList,1,2,-999999,0,922576,0,2,519,923095,Target2.bmp,red,2,,,,12,3,25
KW_Experiment5A,37,1,"<?xml version=""1.0""?>\n<Clock xmlns:dt=""urn:schemas-microsoft-com:datatypes""><Description dt:dt=""string"">E-Prime Primary Realtime Clock</Description><StartTime><Timestamp dt:dt=""int"">0</Timestamp><DateUtc dt:dt=""string"">2018-10-24T16:12:06Z</DateUtc></StartTime><FrequencyChanges><FrequencyChange><Frequency dt:dt=""r8"">3215273</Frequency><Timestamp dt:dt=""r8"">1288211474649</Timestamp><Current dt:dt=""r8"">0</Current><DateUtc dt:dt=""string"">2018-10-24T16:12:06Z</DateUtc></FrequencyChange></FrequencyChanges></Clock>\n",KW_Experiment5A-37-1,59.946,1.0.0.105,2,-278088075,Professional,2.0.10.353,2.0.10.353,10/24/2018,10/24/2018 16:12,12:12:06,2.0.10.248,2,2,1,2,,,,,,,,TrainingProc,BlockList,26,2,Distractor2.bmp,2,0,,0,1,924111,500,,0,0,yellow,500,2,500,,horizontal,yellow,Distractor1.bmp,red,Target2.bmp,lime,Distractor2.bmp,purple,Distractor1.bmp,blue,Distractor2.bmp,cyan,Distractor1.bmp,,,,TrialProc,2,TrainingTrialList,1,2,-999999,0,924611,0,2,508,925119,Target2.bmp,red,2,,,,8,3,26
KW_Experiment5A,37,1,"<?xml version=""1.0""?>\n<Clock xmlns:dt=""urn:schemas-microsoft-com:datatypes""><Description dt:dt=""string"">E-Prime Primary Realtime Clock</Description><StartTime><Timestamp dt:dt=""int"">0</Timestamp><DateUtc dt:dt=""string"">2018-10-24T16:12:06Z</DateUtc></StartTime><FrequencyChanges><FrequencyChange><Frequency dt:dt=""r8"">3215273</Frequency><Timestamp dt:dt=""r8"">1288211474649</Timestamp><Current dt:dt=""r8"">0</Current><DateUtc dt:dt=""string"">2018-10-24T16:12:06Z</DateUtc></FrequencyChange></FrequencyChanges></Clock>\n",KW_Experiment5A-37-1,59.946,1.0.0.105,2,-278088075,Professional,2.0.10.353,2.0.10.353,10/24/2018,10/24/2018 16:12,12:12:06,2.0.10.248,2,2,1,2,,,,,,,,TrainingProc,BlockList,27,2,Distractor2.bmp,2,0,,0,1,926130,600,,0,0,lime,600,3,600,,horizontal,red,Target2.bmp,yellow,Distractor2.bmp,cyan,Distractor2.bmp,blue,Distractor2.bmp,purple,Distractor1.bmp,lime,Distractor1.bmp,,,,TrialProc,6,TrainingTrialList,1,2,-999999,0,926730,0,2,445,927175,Target2.bmp,red,2,,,,7,3,27
KW_Experiment5A,37,1,"<?xml version=""1.0""?>\n<Clock xmlns:dt=""urn:schemas-microsoft-com:datatypes""><Description dt:dt=""string"">E-Prime Primary Realtime Clock</Description><StartTime><Timestamp dt:dt=""int"">0</Timestamp><DateUtc dt:dt=""string"">2018-10-24T16:12:06Z</DateUtc></StartTime><FrequencyChanges><FrequencyChange><Frequency dt:dt=""r8"">3215273</Frequency><Timestamp dt:dt=""r8"">1288211474649</Timestamp><Current dt:dt=""r8"">0</Current><DateUtc dt:dt=""string"">2018-10-24T16:12:06Z</DateUtc></FrequencyChange></FrequencyChanges></Clock>\n",KW_Experiment5A-37-1,59.946,1.0.0.105,2,-278088075,Professional,2.0.10.353,2.0.10.353,10/24/2018,10/24/2018 16:12,12:12:06,2.0.10.248,2,2,1,2,,,,,,,,TrainingProc,BlockList,28,1,Distractor1.bmp,1,0,,0,1,928198,601,,0,0,lime,600,3,600,,vertical,lime,Distractor1.bmp,yellow,Distractor2.bmp,blue,Distractor2.bmp,cyan,Distractor2.bmp,red,Target1.bmp,purple,Distractor1.bmp,,,,TrialProc,6,TrainingTrialList,1,1,-999999,1,928799,0,1,552,929351,Target1.bmp,red,1,,,,11,3,28
KW_Experiment5A,37,1,"<?xml version=""1.0""?>\n<Clock xmlns:dt=""urn:schemas-microsoft-com:datatypes""><Description dt:dt=""string"">E-Prime Primary Realtime Clock</Description><StartTime><Timestamp dt:dt=""int"">0</Timestamp><DateUtc dt:dt=""string"">2018-10-24T16:12:06Z</DateUtc></StartTime><FrequencyChanges><FrequencyChange><Frequency dt:dt=""r8"">3215273</Frequency><Timestamp dt:dt=""r8"">1288211474649</Timestamp><Current dt:dt=""r8"">0</Current><DateUtc dt:dt=""string"">2018-10-24T16:12:06Z</DateUtc></FrequencyChange></FrequencyChanges></Clock>\n",KW_Experiment5A-37-1,59.946,1.0.0.105,2,-278088075,Professional,2.0.10.353,2.0.10.353,10/24/2018,10/24/2018 16:12,12:12:06,2.0.10.248,2,2,1,2,,,,,,,,TrainingProc,BlockList,29,1,Distractor1.bmp,1,0,,0,1,930367,600,,0,0,yellow,600,3,600,2,vertical,yellow,Distractor1.bmp,blue,Distractor2.bmp,red,Distractor1.bmp,lime,Target1.bmp,cyan,Distractor1.bmp,purple,Distractor2.bmp,,,,TrialProc,,TrainingTrialList,0,1,-999999,0,930967,0,2,736,931703,Target1.bmp,lime,1,,,,4,3,29
KW_Experiment5A,37,1,"<?xml version=""1.0""?>\n<Clock xmlns:dt=""urn:schemas-microsoft-com:datatypes""><Description dt:dt=""string"">E-Prime Primary Realtime Clock</Description><StartTime><Timestamp dt:dt=""int"">0</Timestamp><DateUtc dt:dt=""string"">2018-10-24T16:12:06Z</DateUtc></StartTime><FrequencyChanges><FrequencyChange><Frequency dt:dt=""r8"">3215273</Frequency><Timestamp dt:dt=""r8"">1288211474649</Timestamp><Current dt:dt=""r8"">0</Current><DateUtc dt:dt=""string"">2018-10-24T16:12:06Z</DateUtc></FrequencyChange></FrequencyChanges></Clock>\n",KW_Experiment5A-37-1,59.946,1.0.0.105,2,-278088075,Professional,2.0.10.353,2.0.10.353,10/24/2018,10/24/2018 16:12,12:12:06,2.0.10.248,2,2,1,2,,,,,,,,TrainingProc,BlockList,30,1,Distractor2.bmp,2,0,,0,1,932719,400,,0,0,lime,400,1,400,,vertical,lime,Distractor1.bmp,purple,Distractor1.bmp,cyan,Distractor2.bmp,blue,Distractor1.bmp,red,Target1.bmp,yellow,Distractor2.bmp,,,,TrialProc,6,TrainingTrialList,1,1,-999999,0,933119,0,1,471,933590,Target1.bmp,red,1,,,,11,3,30
KW_Experiment5A,37,1,"<?xml version=""1.0""?>\n<Clock xmlns:dt=""urn:schemas-microsoft-com:datatypes""><Description dt:dt=""string"">E-Prime Primary Realtime Clock</Description><StartTime><Timestamp dt:dt=""int"">0</Timestamp><DateUtc dt:dt=""string"">2018-10-24T16:12:06Z</DateUtc></StartTime><FrequencyChanges><FrequencyChange><Frequency dt:dt=""r8"">3215273</Frequency><Timestamp dt:dt=""r8"">1288211474649</Timestamp><Current dt:dt=""r8"">0</Current><DateUtc dt:dt=""string"">2018-10-24T16:12:06Z</DateUtc></FrequencyChange></FrequencyChanges></Clock>\n",KW_Experiment5A-37-1,59.946,1.0.0.105,2,-278088075,Professional,2.0.10.353,2.0.10.353,10/24/2018,10/24/2018 16:12,12:12:06,2.0.10.248,2,2,1,2,,,,,,,,TrainingProc,BlockList,31,1,Distractor1.bmp,1,0,,0,1,934604,600,,0,0,purple,600,3,600,,vertical,red,Target1.bmp,lime,Distractor1.bmp,yellow,Distractor1.bmp,cyan,Distractor1.bmp,blue,Distractor1.bmp,purple,Distractor2.bmp,,,,TrialProc,5,TrainingTrialList,1,1,-999999,0,935204,0,1,442,935646,Target1.bmp,red,1,,,,7,3,31
KW_Experiment5A,37,1,"<?xml version=""1.0""?>\n<Clock xmlns:dt=""urn:schemas-microsoft-com:datatypes""><Description dt:dt=""string"">E-Prime Primary Realtime Clock</Description><StartTime><Timestamp dt:dt=""int"">0</Timestamp><DateUtc dt:dt=""string"">2018-10-24T16:12:06Z</DateUtc></StartTime><FrequencyChanges><FrequencyChange><Frequency dt:dt=""r8"">3215273</Frequency><Timestamp dt:dt=""r8"">1288211474649</Timestamp><Current dt:dt=""r8"">0</Current><DateUtc dt:dt=""string"">2018-10-24T16:12:06Z</DateUtc></FrequencyChange></FrequencyChanges></Clock>\n",KW_Experiment5A-37-1,59.946,1.0.0.105,2,-278088075,Professional,2.0.10.353,2.0.10.353,10/24/2018,10/24/2018 16:12,12:12:06,2.0.10.248,2,2,1,2,,,,,,,,TrainingProc,BlockList,32,2,Distractor2.bmp,2,0,,0,1,936656,600,,0,0,red,600,3,600,1,horizontal,red,Distractor2.bmp,blue,Distractor2.bmp,lime,Target2.bmp,cyan,Distractor2.bmp,purple,Distractor1.bmp,yellow,Distractor2.bmp,,,,TrialProc,,TrainingTrialList,0,2,-999999,0,937256,0,1,470,937726,Target2.bmp,lime,2,,,,3,3,32
KW_Experiment5A,37,1,"<?xml version=""1.0""?>\n<Clock xmlns:dt=""urn:schemas-microsoft-com:datatypes""><Description dt:dt=""string"">E-Prime Primary Realtime Clock</Description><StartTime><Timestamp dt:dt=""int"">0</Timestamp><DateUtc dt:dt=""string"">2018-10-24T16:12:06Z</DateUtc></StartTime><FrequencyChanges><FrequencyChange><Frequency dt:dt=""r8"">3215273</Frequency><Timestamp dt:dt=""r8"">1288211474649</Timestamp><Current dt:dt=""r8"">0</Current><DateUtc dt:dt=""string"">2018-10-24T16:12:06Z</DateUtc></FrequencyChange></FrequencyChanges></Clock>\n",KW_Experiment5A-37-1,59.946,1.0.0.105,2,-278088075,Professional,2.0.10.353,2.0.10.353,10/24/2018,10/24/2018 16:12,12:12:06,2.0.10.248,2,2,1,2,,,,,,,,TrainingProc,BlockList,33,1,Distractor2.bmp,2,0,,0,1,938741,601,,0,0,yellow,600,3,600,,vertical,yellow,Distractor1.bmp,blue,Distractor2.bmp,red,Target1.bmp,cyan,Distractor2.bmp,lime,Distractor1.bmp,purple,Distractor1.bmp,,,,TrialProc,2,TrainingTrialList,0,1,-999999,1,939342,0,2,512,939854,Target1.bmp,red,1,,,,9,3,33
KW_Experiment5A,37,1,"<?xml version=""1.0""?>\n<Clock xmlns:dt=""urn:schemas-microsoft-com:datatypes""><Description dt:dt=""string"">E-Prime Primary Realtime Clock</Description><StartTime><Timestamp dt:dt=""int"">0</Timestamp><DateUtc dt:dt=""string"">2018-10-24T16:12:06Z</DateUtc></StartTime><FrequencyChanges><FrequencyChange><Frequency dt:dt=""r8"">3215273</Frequency><Timestamp dt:dt=""r8"">1288211474649</Timestamp><Current dt:dt=""r8"">0</Current><DateUtc dt:dt=""string"">2018-10-24T16:12:06Z</DateUtc></FrequencyChange></FrequencyChanges></Clock>\n",KW_Experiment5A-37-1,59.946,1.0.0.105,2,-278088075,Professional,2.0.10.353,2.0.10.353,10/24/2018,10/24/2018 16:12,12:12:06,2.0.10.248,2,2,1,2,,,,,,,,TrainingProc,BlockList,34,2,Distractor1.bmp,1,0,,0,1,940876,501,,0,0,blue,500,2,500,,horizontal,blue,Distractor1.bmp,lime,Distractor1.bmp,yellow,Distractor1.bmp,purple,Distractor1.bmp,cyan,Distractor1.bmp,red,Target2.bmp,,,,TrialProc,3,TrainingTrialList,1,2,-999999,1,941377,0,2,525,941902,Target2.bmp,red,2,,,,12,3,34
KW_Experiment5A,37,1,"<?xml version=""1.0""?>\n<Clock xmlns:dt=""urn:schemas-microsoft-com:datatypes""><Description dt:dt=""string"">E-Prime Primary Realtime Clock</Description><StartTime><Timestamp dt:dt=""int"">0</Timestamp><DateUtc dt:dt=""string"">2018-10-24T16:12:06Z</DateUtc></StartTime><FrequencyChanges><FrequencyChange><Frequency dt:dt=""r8"">3215273</Frequency><Timestamp dt:dt=""r8"">1288211474649</Timestamp><Current dt:dt=""r8"">0</Current><DateUtc dt:dt=""string"">2018-10-24T16:12:06Z</DateUtc></FrequencyChange></FrequencyChanges></Clock>\n",KW_Experiment5A-37-1,59.946,1.0.0.105,2,-278088075,Professional,2.0.10.353,2.0.10.353,10/24/2018,10/24/2018 16:12,12:12:06,2.0.10.248,2,2,1,2,,,,,,,,TrainingProc,BlockList,35,2,Distractor1.bmp,1,0,,0,1,942912,500,,0,0,purple,500,2,500,5,horizontal,purple,Distractor1.bmp,yellow,Distractor2.bmp,cyan,Distractor1.bmp,red,Distractor2.bmp,lime,Target2.bmp,blue,Distractor1.bmp,,,,TrialProc,,TrainingTrialList,1,2,-999999,0,943412,0,2,602,944014,Target2.bmp,lime,2,,,,5,3,35
KW_Experiment5A,37,1,"<?xml version=""1.0""?>\n<Clock xmlns:dt=""urn:schemas-microsoft-com:datatypes""><Description dt:dt=""string"">E-Prime Primary Realtime Clock</Description><StartTime><Timestamp dt:dt=""int"">0</Timestamp><DateUtc dt:dt=""string"">2018-10-24T16:12:06Z</DateUtc></StartTime><FrequencyChanges><FrequencyChange><Frequency dt:dt=""r8"">3215273</Frequency><Timestamp dt:dt=""r8"">1288211474649</Timestamp><Current dt:dt=""r8"">0</Current><DateUtc dt:dt=""string"">2018-10-24T16:12:06Z</DateUtc></FrequencyChange></FrequencyChanges></Clock>\n",KW_Experiment5A-37-1,59.946,1.0.0.105,2,-278088075,Professional,2.0.10.353,2.0.10.353,10/24/2018,10/24/2018 16:12,12:12:06,2.0.10.248,2,2,1,2,,,,,,,,TrainingProc,BlockList,36,2,Distractor1.bmp,1,0,,0,1,945030,601,,0,0,purple,600,3,600,5,horizontal,purple,Distractor1.bmp,cyan,Distractor2.bmp,red,Distractor1.bmp,yellow,Distractor2.bmp,blue,Distractor1.bmp,lime,Target2.bmp,,,,TrialProc,,TrainingTrialList,1,2,-999999,1,945631,0,2,527,946158,Target2.bmp,lime,2,,,,6,3,36
KW_Experiment5A,37,1,"<?xml version=""1.0""?>\n<Clock xmlns:dt=""urn:schemas-microsoft-com:datatypes""><Description dt:dt=""string"">E-Prime Primary Realtime Clock</Description><StartTime><Timestamp dt:dt=""int"">0</Timestamp><DateUtc dt:dt=""string"">2018-10-24T16:12:06Z</DateUtc></StartTime><FrequencyChanges><FrequencyChange><Frequency dt:dt=""r8"">3215273</Frequency><Timestamp dt:dt=""r8"">1288211474649</Timestamp><Current dt:dt=""r8"">0</Current><DateUtc dt:dt=""string"">2018-10-24T16:12:06Z</DateUtc></FrequencyChange></FrequencyChanges></Clock>\n",KW_Experiment5A-37-1,59.946,1.0.0.105,2,-278088075,Professional,2.0.10.353,2.0.10.353,10/24/2018,10/24/2018 16:12,12:12:06,2.0.10.248,2,2,1,2,,,,,,,,TrainingProc,BlockList,37,2,Distractor2.bmp,2,0,,0,1,947182,601,,0,0,cyan,600,3,600,4,horizontal,cyan,Distractor2.bmp,lime,Target2.bmp,blue,Distractor2.bmp,yellow,Distractor2.bmp,purple,Distractor1.bmp,red,Distractor1.bmp,,,,TrialProc,,TrainingTrialList,1,2,-999999,1,947783,0,2,535,948318,Target2.bmp,lime,2,,,,2,3,37
KW_Experiment5A,37,1,"<?xml version=""1.0""?>\n<Clock xmlns:dt=""urn:schemas-microsoft-com:datatypes""><Description dt:dt=""string"">E-Prime Primary Realtime Clock</Description><StartTime><Timestamp dt:dt=""int"">0</Timestamp><DateUtc dt:dt=""string"">2018-10-24T16:12:06Z</DateUtc></StartTime><FrequencyChanges><FrequencyChange><Frequency dt:dt=""r8"">3215273</Frequency><Timestamp dt:dt=""r8"">1288211474649</Timestamp><Current dt:dt=""r8"">0</Current><DateUtc dt:dt=""string"">2018-10-24T16:12:06Z</DateUtc></FrequencyChange></FrequencyChanges></Clock>\n",KW_Experiment5A-37-1,59.946,1.0.0.105,2,-278088075,Professional,2.0.10.353,2.0.10.353,10/24/2018,10/24/2018 16:12,12:12:06,2.0.10.248,2,2,1,2,,,,,,,,TrainingProc,BlockList,38,1,Distractor1.bmp,1,0,,0,1,949334,501,,0,0,purple,500,2,500,,vertical,purple,Distractor2.bmp,blue,Distractor2.bmp,yellow,Distractor2.bmp,lime,Distractor1.bmp,red,Target1.bmp,cyan,Distractor1.bmp,,,,TrialProc,5,TrainingTrialList,1,1,-999999,1,949835,0,1,467,950302,Target1.bmp,red,1,,,,11,3,38
KW_Experiment5A,37,1,"<?xml version=""1.0""?>\n<Clock xmlns:dt=""urn:schemas-microsoft-com:datatypes""><Description dt:dt=""string"">E-Prime Primary Realtime Clock</Description><StartTime><Timestamp dt:dt=""int"">0</Timestamp><DateUtc dt:dt=""string"">2018-10-24T16:12:06Z</DateUtc></StartTime><FrequencyChanges><FrequencyChange><Frequency dt:dt=""r8"">3215273</Frequency><Timestamp dt:dt=""r8"">1288211474649</Timestamp><Current dt:dt=""r8"">0</Current><DateUtc dt:dt=""string"">2018-10-24T16:12:06Z</DateUtc></FrequencyChange></FrequencyChanges></Clock>\n",KW_Experiment5A-37-1,59.946,1.0.0.105,2,-278088075,Professional,2.0.10.353,2.0.10.353,10/24/2018,10/24/2018 16:12,12:12:06,2.0.10.248,2,2,1,2,,,,,,,,TrainingProc,BlockList,39,1,Distractor1.bmp,1,0,,0,1,951319,601,,0,0,lime,600,3,600,,vertical,red,Target1.bmp,blue,Distractor1.bmp,cyan,Distractor1.bmp,yellow,Distractor2.bmp,purple,Distractor1.bmp,lime,Distractor1.bmp,,,,TrialProc,6,TrainingTrialList,1,1,-999999,1,951920,0,1,742,952662,Target1.bmp,red,1,,,,7,3,39
KW_Experiment5A,37,1,"<?xml version=""1.0""?>\n<Clock xmlns:dt=""urn:schemas-microsoft-com:datatypes""><Description dt:dt=""string"">E-Prime Primary Realtime Clock</Description><StartTime><Timestamp dt:dt=""int"">0</Timestamp><DateUtc dt:dt=""string"">2018-10-24T16:12:06Z</DateUtc></StartTime><FrequencyChanges><FrequencyChange><Frequency dt:dt=""r8"">3215273</Frequency><Timestamp dt:dt=""r8"">1288211474649</Timestamp><Current dt:dt=""r8"">0</Current><DateUtc dt:dt=""string"">2018-10-24T16:12:06Z</DateUtc></FrequencyChange></FrequencyChanges></Clock>\n",KW_Experiment5A-37-1,59.946,1.0.0.105,2,-278088075,Professional,2.0.10.353,2.0.10.353,10/24/2018,10/24/2018 16:12,12:12:06,2.0.10.248,2,2,1,2,,,,,,,,TrainingProc,BlockList,40,2,Distractor2.bmp,2,0,,1,0,953671,501,,0,0,cyan,500,2,500,,horizontal,cyan,Distractor2.bmp,red,Target2.bmp,blue,Distractor2.bmp,lime,Distractor1.bmp,yellow,Distractor1.bmp,purple,Distractor1.bmp,,,,TrialProc,4,TrainingTrialList,1,2,-999999,1,954172,0,2,562,954734,Target2.bmp,red,2,,,,8,3,40
KW_Experiment5A,37,1,"<?xml version=""1.0""?>\n<Clock xmlns:dt=""urn:schemas-microsoft-com:datatypes""><Description dt:dt=""string"">E-Prime Primary Realtime Clock</Description><StartTime><Timestamp dt:dt=""int"">0</Timestamp><DateUtc dt:dt=""string"">2018-10-24T16:12:06Z</DateUtc></StartTime><FrequencyChanges><FrequencyChange><Frequency dt:dt=""r8"">3215273</Frequency><Timestamp dt:dt=""r8"">1288211474649</Timestamp><Current dt:dt=""r8"">0</Current><DateUtc dt:dt=""string"">2018-10-24T16:12:06Z</DateUtc></FrequencyChange></FrequencyChanges></Clock>\n",KW_Experiment5A-37-1,59.946,1.0.0.105,2,-278088075,Professional,2.0.10.353,2.0.10.353,10/24/2018,10/24/2018 16:12,12:12:06,2.0.10.248,2,2,1,2,,,,,,,,TrainingProc,BlockList,41,2,Distractor1.bmp,1,0,,0,1,955757,400,,0,0,blue,400,1,400,,horizontal,blue,Distractor2.bmp,red,Target2.bmp,lime,Distractor1.bmp,cyan,Distractor2.bmp,purple,Distractor1.bmp,yellow,Distractor1.bmp,,,,TrialProc,3,TrainingTrialList,1,2,-999999,0,956157,0,2,617,956774,Target2.bmp,red,2,,,,8,3,41
KW_Experiment5A,37,1,"<?xml version=""1.0""?>\n<Clock xmlns:dt=""urn:schemas-microsoft-com:datatypes""><Description dt:dt=""string"">E-Prime Primary Realtime Clock</Description><StartTime><Timestamp dt:dt=""int"">0</Timestamp><DateUtc dt:dt=""string"">2018-10-24T16:12:06Z</DateUtc></StartTime><FrequencyChanges><FrequencyChange><Frequency dt:dt=""r8"">3215273</Frequency><Timestamp dt:dt=""r8"">1288211474649</Timestamp><Current dt:dt=""r8"">0</Current><DateUtc dt:dt=""string"">2018-10-24T16:12:06Z</DateUtc></FrequencyChange></FrequencyChanges></Clock>\n",KW_Experiment5A-37-1,59.946,1.0.0.105,2,-278088075,Professional,2.0.10.353,2.0.10.353,10/24/2018,10/24/2018 16:12,12:12:06,2.0.10.248,2,2,1,2,,,,,,,,TrainingProc,BlockList,42,1,Distractor2.bmp,2,0,,0,1,957792,500,,0,0,blue,500,2,500,,vertical,blue,Distractor2.bmp,purple,Distractor2.bmp,yellow,Distractor1.bmp,red,Target1.bmp,lime,Distractor2.bmp,cyan,Distractor1.bmp,,,,TrialProc,3,TrainingTrialList,1,1,-999999,0,958292,0,1,546,958838,Target1.bmp,red,1,,,,10,3,42
KW_Experiment5A,37,1,"<?xml version=""1.0""?>\n<Clock xmlns:dt=""urn:schemas-microsoft-com:datatypes""><Description dt:dt=""string"">E-Prime Primary Realtime Clock</Description><StartTime><Timestamp dt:dt=""int"">0</Timestamp><DateUtc dt:dt=""string"">2018-10-24T16:12:06Z</DateUtc></StartTime><FrequencyChanges><FrequencyChange><Frequency dt:dt=""r8"">3215273</Frequency><Timestamp dt:dt=""r8"">1288211474649</Timestamp><Current dt:dt=""r8"">0</Current><DateUtc dt:dt=""string"">2018-10-24T16:12:06Z</DateUtc></FrequencyChange></FrequencyChanges></Clock>\n",KW_Experiment5A-37-1,59.946,1.0.0.105,2,-278088075,Professional,2.0.10.353,2.0.10.353,10/24/2018,10/24/2018 16:12,12:12:06,2.0.10.248,2,2,1,2,,,,,,,,TrainingProc,BlockList,43,2,Distractor1.bmp,1,0,,0,1,959860,501,,0,0,lime,500,2,500,,horizontal,lime,Distractor2.bmp,yellow,Distractor2.bmp,red,Target2.bmp,blue,Distractor1.bmp,cyan,Distractor2.bmp,purple,Distractor2.bmp,,,,TrialProc,6,TrainingTrialList,1,2,-999999,1,960361,0,2,573,960934,Target2.bmp,red,2,,,,9,3,43
KW_Experiment5A,37,1,"<?xml version=""1.0""?>\n<Clock xmlns:dt=""urn:schemas-microsoft-com:datatypes""><Description dt:dt=""string"">E-Prime Primary Realtime Clock</Description><StartTime><Timestamp dt:dt=""int"">0</Timestamp><DateUtc dt:dt=""string"">2018-10-24T16:12:06Z</DateUtc></StartTime><FrequencyChanges><FrequencyChange><Frequency dt:dt=""r8"">3215273</Frequency><Timestamp dt:dt=""r8"">1288211474649</Timestamp><Current dt:dt=""r8"">0</Current><DateUtc dt:dt=""string"">2018-10-24T16:12:06Z</DateUtc></FrequencyChange></FrequencyChanges></Clock>\n",KW_Experiment5A-37-1,59.946,1.0.0.105,2,-278088075,Professional,2.0.10.353,2.0.10.353,10/24/2018,10/24/2018 16:12,12:12:06,2.0.10.248,2,2,1,2,,,,,,,,TrainingProc,BlockList,44,2,Distractor2.bmp,2,0,,0,1,961946,400,,0,0,lime,400,1,400,,horizontal,lime,Distractor2.bmp,yellow,Distractor2.bmp,blue,Distractor2.bmp,cyan,Distractor2.bmp,purple,Distractor1.bmp,red,Target2.bmp,,,,TrialProc,6,TrainingTrialList,0,2,-999999,0,962346,0,1,628,962974,Target2.bmp,red,2,,,,12,3,44
KW_Experiment5A,37,1,"<?xml version=""1.0""?>\n<Clock xmlns:dt=""urn:schemas-microsoft-com:datatypes""><Description dt:dt=""string"">E-Prime Primary Realtime Clock</Description><StartTime><Timestamp dt:dt=""int"">0</Timestamp><DateUtc dt:dt=""string"">2018-10-24T16:12:06Z</DateUtc></StartTime><FrequencyChanges><FrequencyChange><Frequency dt:dt=""r8"">3215273</Frequency><Timestamp dt:dt=""r8"">1288211474649</Timestamp><Current dt:dt=""r8"">0</Current><DateUtc dt:dt=""string"">2018-10-24T16:12:06Z</DateUtc></FrequencyChange></FrequencyChanges></Clock>\n",KW_Experiment5A-37-1,59.946,1.0.0.105,2,-278088075,Professional,2.0.10.353,2.0.10.353,10/24/2018,10/24/2018 16:12,12:12:06,2.0.10.248,2,2,1,2,,,,,,,,TrainingProc,BlockList,45,2,Distractor1.bmp,1,0,,0,1,963998,400,,0,0,cyan,400,1,400,,horizontal,cyan,Distractor2.bmp,yellow,Distractor1.bmp,purple,Distractor1.bmp,red,Target2.bmp,lime,Distractor1.bmp,blue,Distractor1.bmp,,,,TrialProc,4,TrainingTrialList,1,2,-999999,0,964398,0,2,728,965126,Target2.bmp,red,2,,,,10,3,45
KW_Experiment5A,37,1,"<?xml version=""1.0""?>\n<Clock xmlns:dt=""urn:schemas-microsoft-com:datatypes""><Description dt:dt=""string"">E-Prime Primary Realtime Clock</Description><StartTime><Timestamp dt:dt=""int"">0</Timestamp><DateUtc dt:dt=""string"">2018-10-24T16:12:06Z</DateUtc></StartTime><FrequencyChanges><FrequencyChange><Frequency dt:dt=""r8"">3215273</Frequency><Timestamp dt:dt=""r8"">1288211474649</Timestamp><Current dt:dt=""r8"">0</Current><DateUtc dt:dt=""string"">2018-10-24T16:12:06Z</DateUtc></FrequencyChange></FrequencyChanges></Clock>\n",KW_Experiment5A-37-1,59.946,1.0.0.105,2,-278088075,Professional,2.0.10.353,2.0.10.353,10/24/2018,10/24/2018 16:12,12:12:06,2.0.10.248,2,2,1,2,,,,,,,,TrainingProc,BlockList,46,2,Distractor1.bmp,1,0,,0,1,966150,400,,0,0,blue,400,1,400,,horizontal,blue,Distractor2.bmp,yellow,Distractor1.bmp,red,Target2.bmp,cyan,Distractor1.bmp,lime,Distractor2.bmp,purple,Distractor1.bmp,,,,TrialProc,3,TrainingTrialList,1,2,-999999,0,966550,0,2,496,967046,Target2.bmp,red,2,,,,9,3,46
KW_Experiment5A,37,1,"<?xml version=""1.0""?>\n<Clock xmlns:dt=""urn:schemas-microsoft-com:datatypes""><Description dt:dt=""string"">E-Prime Primary Realtime Clock</Description><StartTime><Timestamp dt:dt=""int"">0</Timestamp><DateUtc dt:dt=""string"">2018-10-24T16:12:06Z</DateUtc></StartTime><FrequencyChanges><FrequencyChange><Frequency dt:dt=""r8"">3215273</Frequency><Timestamp dt:dt=""r8"">1288211474649</Timestamp><Current dt:dt=""r8"">0</Current><DateUtc dt:dt=""string"">2018-10-24T16:12:06Z</DateUtc></FrequencyChange></FrequencyChanges></Clock>\n",KW_Experiment5A-37-1,59.946,1.0.0.105,2,-278088075,Professional,2.0.10.353,2.0.10.353,10/24/2018,10/24/2018 16:12,12:12:06,2.0.10.248,2,2,1,2,,,,,,,,TrainingProc,BlockList,47,1,Distractor1.bmp,1,0,,0,1,968068,400,,0,0,purple,400,1,400,5,vertical,lime,Target1.bmp,purple,Distractor1.bmp,red,Distractor2.bmp,yellow,Distractor1.bmp,cyan,Distractor2.bmp,blue,Distractor2.bmp,,,,TrialProc,,TrainingTrialList,0,1,-999999,0,968468,0,2,562,969030,Target1.bmp,lime,1,,,,1,3,47
KW_Experiment5A,37,1,"<?xml version=""1.0""?>\n<Clock xmlns:dt=""urn:schemas-microsoft-com:datatypes""><Description dt:dt=""string"">E-Prime Primary Realtime Clock</Description><StartTime><Timestamp dt:dt=""int"">0</Timestamp><DateUtc dt:dt=""string"">2018-10-24T16:12:06Z</DateUtc></StartTime><FrequencyChanges><FrequencyChange><Frequency dt:dt=""r8"">3215273</Frequency><Timestamp dt:dt=""r8"">1288211474649</Timestamp><Current dt:dt=""r8"">0</Current><DateUtc dt:dt=""string"">2018-10-24T16:12:06Z</DateUtc></FrequencyChange></FrequencyChanges></Clock>\n",KW_Experiment5A-37-1,59.946,1.0.0.105,2,-278088075,Professional,2.0.10.353,2.0.10.353,10/24/2018,10/24/2018 16:12,12:12:06,2.0.10.248,2,2,1,2,,,,,,,,TrainingProc,BlockList,48,1,Distractor1.bmp,1,0,,0,1,970053,501,,0,0,purple,500,2,500,,vertical,purple,Distractor1.bmp,yellow,Distractor2.bmp,blue,Distractor1.bmp,red,Target1.bmp,cyan,Distractor1.bmp,lime,Distractor2.bmp,,,,TrialProc,5,TrainingTrialList,1,1,-999999,1,970554,0,1,572,971126,Target1.bmp,red,1,,,,10,3,48
KW_Experiment5A,37,1,"<?xml version=""1.0""?>\n<Clock xmlns:dt=""urn:schemas-microsoft-com:datatypes""><Description dt:dt=""string"">E-Prime Primary Realtime Clock</Description><StartTime><Timestamp dt:dt=""int"">0</Timestamp><DateUtc dt:dt=""string"">2018-10-24T16:12:06Z</DateUtc></StartTime><FrequencyChanges><FrequencyChange><Frequency dt:dt=""r8"">3215273</Frequency><Timestamp dt:dt=""r8"">1288211474649</Timestamp><Current dt:dt=""r8"">0</Current><DateUtc dt:dt=""string"">2018-10-24T16:12:06Z</DateUtc></FrequencyChange></FrequencyChanges></Clock>\n",KW_Experiment5A-37-1,59.946,1.0.0.105,2,-278088075,Professional,2.0.10.353,2.0.10.353,10/24/2018,10/24/2018 16:12,12:12:06,2.0.10.248,3,2,1,3,,,,,,,,TrainingProc,BlockList,1,1,Distractor2.bmp,2,0,,1,33,983615,601,,0,0,cyan,600,3,600,,vertical,cyan,Distractor2.bmp,purple,Distractor2.bmp,lime,Distractor1.bmp,red,Target1.bmp,yellow,Distractor2.bmp,blue,Distractor2.bmp,,,,TrialProc,4,TrainingTrialList,1,1,-999999,1,984216,0,1,477,984693,Target1.bmp,red,1,,,,10,4,49
KW_Experiment5A,37,1,"<?xml version=""1.0""?>\n<Clock xmlns:dt=""urn:schemas-microsoft-com:datatypes""><Description dt:dt=""string"">E-Prime Primary Realtime Clock</Description><StartTime><Timestamp dt:dt=""int"">0</Timestamp><DateUtc dt:dt=""string"">2018-10-24T16:12:06Z</DateUtc></StartTime><FrequencyChanges><FrequencyChange><Frequency dt:dt=""r8"">3215273</Frequency><Timestamp dt:dt=""r8"">1288211474649</Timestamp><Current dt:dt=""r8"">0</Current><DateUtc dt:dt=""string"">2018-10-24T16:12:06Z</DateUtc></FrequencyChange></FrequencyChanges></Clock>\n",KW_Experiment5A-37-1,59.946,1.0.0.105,2,-278088075,Professional,2.0.10.353,2.0.10.353,10/24/2018,10/24/2018 16:12,12:12:06,2.0.10.248,3,2,1,3,,,,,,,,TrainingProc,BlockList,2,2,Distractor1.bmp,1,0,,0,1,985717,401,,0,0,cyan,400,1,400,,horizontal,cyan,Distractor1.bmp,yellow,Distractor2.bmp,lime,Distractor1.bmp,purple,Distractor1.bmp,blue,Distractor1.bmp,red,Target2.bmp,,,,TrialProc,4,TrainingTrialList,1,2,-999999,1,986118,0,2,503,986621,Target2.bmp,red,2,,,,12,4,50
KW_Experiment5A,37,1,"<?xml version=""1.0""?>\n<Clock xmlns:dt=""urn:schemas-microsoft-com:datatypes""><Description dt:dt=""string"">E-Prime Primary Realtime Clock</Description><StartTime><Timestamp dt:dt=""int"">0</Timestamp><DateUtc dt:dt=""string"">2018-10-24T16:12:06Z</DateUtc></StartTime><FrequencyChanges><FrequencyChange><Frequency dt:dt=""r8"">3215273</Frequency><Timestamp dt:dt=""r8"">1288211474649</Timestamp><Current dt:dt=""r8"">0</Current><DateUtc dt:dt=""string"">2018-10-24T16:12:06Z</DateUtc></FrequencyChange></FrequencyChanges></Clock>\n",KW_Experiment5A-37-1,59.946,1.0.0.105,2,-278088075,Professional,2.0.10.353,2.0.10.353,10/24/2018,10/24/2018 16:12,12:12:06,2.0.10.248,3,2,1,3,,,,,,,,TrainingProc,BlockList,3,1,Distractor2.bmp,2,0,,0,1,987636,500,,0,0,purple,500,2,500,5,vertical,purple,Distractor1.bmp,blue,Distractor1.bmp,red,Distractor2.bmp,lime,Target1.bmp,yellow,Distractor2.bmp,cyan,Distractor1.bmp,,,,TrialProc,,TrainingTrialList,0,1,-999999,0,988136,0,2,453,988589,Target1.bmp,lime,1,,,,4,4,51
KW_Experiment5A,37,1,"<?xml version=""1.0""?>\n<Clock xmlns:dt=""urn:schemas-microsoft-com:datatypes""><Description dt:dt=""string"">E-Prime Primary Realtime Clock</Description><StartTime><Timestamp dt:dt=""int"">0</Timestamp><DateUtc dt:dt=""string"">2018-10-24T16:12:06Z</DateUtc></StartTime><FrequencyChanges><FrequencyChange><Frequency dt:dt=""r8"">3215273</Frequency><Timestamp dt:dt=""r8"">1288211474649</Timestamp><Current dt:dt=""r8"">0</Current><DateUtc dt:dt=""string"">2018-10-24T16:12:06Z</DateUtc></FrequencyChange></FrequencyChanges></Clock>\n",KW_Experiment5A-37-1,59.946,1.0.0.105,2,-278088075,Professional,2.0.10.353,2.0.10.353,10/24/2018,10/24/2018 16:12,12:12:06,2.0.10.248,3,2,1,3,,,,,,,,TrainingProc,BlockList,4,2,Distractor1.bmp,1,0,,0,1,989604,501,,0,0,purple,500,2,500,5,horizontal,purple,Distractor2.bmp,cyan,Distractor1.bmp,red,Distractor1.bmp,blue,Distractor2.bmp,lime,Target2.bmp,yellow,Distractor1.bmp,,,,TrialProc,,TrainingTrialList,1,2,-999999,1,990105,0,2,452,990557,Target2.bmp,lime,2,,,,5,4,52
KW_Experiment5A,37,1,"<?xml version=""1.0""?>\n<Clock xmlns:dt=""urn:schemas-microsoft-com:datatypes""><Description dt:dt=""string"">E-Prime Primary Realtime Clock</Description><StartTime><Timestamp dt:dt=""int"">0</Timestamp><DateUtc dt:dt=""string"">2018-10-24T16:12:06Z</DateUtc></StartTime><FrequencyChanges><FrequencyChange><Frequency dt:dt=""r8"">3215273</Frequency><Timestamp dt:dt=""r8"">1288211474649</Timestamp><Current dt:dt=""r8"">0</Current><DateUtc dt:dt=""string"">2018-10-24T16:12:06Z</DateUtc></FrequencyChange></FrequencyChanges></Clock>\n",KW_Experiment5A-37-1,59.946,1.0.0.105,2,-278088075,Professional,2.0.10.353,2.0.10.353,10/24/2018,10/24/2018 16:12,12:12:06,2.0.10.248,3,2,1,3,,,,,,,,TrainingProc,BlockList,5,1,Distractor1.bmp,1,0,,0,1,991573,500,,0,0,lime,500,2,500,,vertical,lime,Distractor1.bmp,purple,Distractor2.bmp,red,Target1.bmp,yellow,Distractor1.bmp,blue,Distractor1.bmp,cyan,Distractor1.bmp,,,,TrialProc,6,TrainingTrialList,0,1,-999999,0,992073,0,2,428,992501,Target1.bmp,red,1,,,,9,4,53
KW_Experiment5A,37,1,"<?xml version=""1.0""?>\n<Clock xmlns:dt=""urn:schemas-microsoft-com:datatypes""><Description dt:dt=""string"">E-Prime Primary Realtime Clock</Description><StartTime><Timestamp dt:dt=""int"">0</Timestamp><DateUtc dt:dt=""string"">2018-10-24T16:12:06Z</DateUtc></StartTime><FrequencyChanges><FrequencyChange><Frequency dt:dt=""r8"">3215273</Frequency><Timestamp dt:dt=""r8"">1288211474649</Timestamp><Current dt:dt=""r8"">0</Current><DateUtc dt:dt=""string"">2018-10-24T16:12:06Z</DateUtc></FrequencyChange></FrequencyChanges></Clock>\n",KW_Experiment5A-37-1,59.946,1.0.0.105,2,-278088075,Professional,2.0.10.353,2.0.10.353,10/24/2018,10/24/2018 16:12,12:12:06,2.0.10.248,3,2,1,3,,,,,,,,TrainingProc,BlockList,6,1,Distractor2.bmp,2,0,,0,1,993525,500,,0,0,cyan,500,2,500,,vertical,cyan,Distractor2.bmp,blue,Distractor2.bmp,lime,Distractor2.bmp,purple,Distractor1.bmp,yellow,Distractor2.bmp,red,Target1.bmp,,,,TrialProc,4,TrainingTrialList,1,1,-999999,0,994025,0,1,556,994581,Target1.bmp,red,1,,,,12,4,54
KW_Experiment5A,37,1,"<?xml version=""1.0""?>\n<Clock xmlns:dt=""urn:schemas-microsoft-com:datatypes""><Description dt:dt=""string"">E-Prime Primary Realtime Clock</Description><StartTime><Timestamp dt:dt=""int"">0</Timestamp><DateUtc dt:dt=""string"">2018-10-24T16:12:06Z</DateUtc></StartTime><FrequencyChanges><FrequencyChange><Frequency dt:dt=""r8"">3215273</Frequency><Timestamp dt:dt=""r8"">1288211474649</Timestamp><Current dt:dt=""r8"">0</Current><DateUtc dt:dt=""string"">2018-10-24T16:12:06Z</DateUtc></FrequencyChange></FrequencyChanges></Clock>\n",KW_Experiment5A-37-1,59.946,1.0.0.105,2,-278088075,Professional,2.0.10.353,2.0.10.353,10/24/2018,10/24/2018 16:12,12:12:06,2.0.10.248,3,2,1,3,,,,,,,,TrainingProc,BlockList,7,1,Distractor2.bmp,2,0,,0,1,995593,400,,0,0,blue,400,1,400,,vertical,blue,Distractor1.bmp,lime,Distractor1.bmp,yellow,Distractor1.bmp,cyan,Distractor1.bmp,red,Target1.bmp,purple,Distractor2.bmp,,,,TrialProc,3,TrainingTrialList,1,1,-999999,0,995993,0,1,476,996469,Target1.bmp,red,1,,,,11,4,55
KW_Experiment5A,37,1,"<?xml version=""1.0""?>\n<Clock xmlns:dt=""urn:schemas-microsoft-com:datatypes""><Description dt:dt=""string"">E-Prime Primary Realtime Clock</Description><StartTime><Timestamp dt:dt=""int"">0</Timestamp><DateUtc dt:dt=""string"">2018-10-24T16:12:06Z</DateUtc></StartTime><FrequencyChanges><FrequencyChange><Frequency dt:dt=""r8"">3215273</Frequency><Timestamp dt:dt=""r8"">1288211474649</Timestamp><Current dt:dt=""r8"">0</Current><DateUtc dt:dt=""string"">2018-10-24T16:12:06Z</DateUtc></FrequencyChange></FrequencyChanges></Clock>\n",KW_Experiment5A-37-1,59.946,1.0.0.105,2,-278088075,Professional,2.0.10.353,2.0.10.353,10/24/2018,10/24/2018 16:12,12:12:06,2.0.10.248,3,2,1,3,,,,,,,,TrainingProc,BlockList,8,2,Distractor1.bmp,1,0,,0,1,997495,500,,0,0,lime,500,2,500,,horizontal,lime,Distractor2.bmp,cyan,Distractor2.bmp,blue,Distractor2.bmp,yellow,Distractor1.bmp,red,Target2.bmp,purple,Distractor1.bmp,,,,TrialProc,6,TrainingTrialList,1,2,-999999,0,997995,0,2,522,998517,Target2.bmp,red,2,,,,11,4,56
KW_Experiment5A,37,1,"<?xml version=""1.0""?>\n<Clock xmlns:dt=""urn:schemas-microsoft-com:datatypes""><Description dt:dt=""string"">E-Prime Primary Realtime Clock</Description><StartTime><Timestamp dt:dt=""int"">0</Timestamp><DateUtc dt:dt=""string"">2018-10-24T16:12:06Z</DateUtc></StartTime><FrequencyChanges><FrequencyChange><Frequency dt:dt=""r8"">3215273</Frequency><Timestamp dt:dt=""r8"">1288211474649</Timestamp><Current dt:dt=""r8"">0</Current><DateUtc dt:dt=""string"">2018-10-24T16:12:06Z</DateUtc></FrequencyChange></FrequencyChanges></Clock>\n",KW_Experiment5A-37-1,59.946,1.0.0.105,2,-278088075,Professional,2.0.10.353,2.0.10.353,10/24/2018,10/24/2018 16:12,12:12:06,2.0.10.248,3,2,1,3,,,,,,,,TrainingProc,BlockList,9,2,Distractor1.bmp,1,0,,0,1,999530,601,,0,0,lime,600,3,600,,horizontal,lime,Distractor1.bmp,purple,Distractor1.bmp,red,Target2.bmp,yellow,Distractor1.bmp,cyan,Distractor1.bmp,blue,Distractor1.bmp,,,,TrialProc,6,TrainingTrialList,1,2,-999999,1,1000131,0,2,794,1000925,Target2.bmp,red,2,,,,9,4,57
KW_Experiment5A,37,1,"<?xml version=""1.0""?>\n<Clock xmlns:dt=""urn:schemas-microsoft-com:datatypes""><Description dt:dt=""string"">E-Prime Primary Realtime Clock</Description><StartTime><Timestamp dt:dt=""int"">0</Timestamp><DateUtc dt:dt=""string"">2018-10-24T16:12:06Z</DateUtc></StartTime><FrequencyChanges><FrequencyChange><Frequency dt:dt=""r8"">3215273</Frequency><Timestamp dt:dt=""r8"">1288211474649</Timestamp><Current dt:dt=""r8"">0</Current><DateUtc dt:dt=""string"">2018-10-24T16:12:06Z</DateUtc></FrequencyChange></FrequencyChanges></Clock>\n",KW_Experiment5A-37-1,59.946,1.0.0.105,2,-278088075,Professional,2.0.10.353,2.0.10.353,10/24/2018,10/24/2018 16:12,12:12:06,2.0.10.248,3,2,1,3,,,,,,,,TrainingProc,BlockList,10,2,Distractor2.bmp,2,0,,0,1,1001949,400,,0,0,lime,400,1,400,,horizontal,lime,Distractor1.bmp,cyan,Distractor1.bmp,blue,Distractor1.bmp,red,Target2.bmp,purple,Distractor2.bmp,yellow,Distractor2.bmp,,,,TrialProc,6,TrainingTrialList,1,2,-999999,0,1002349,0,2,504,1002853,Target2.bmp,red,2,,,,10,4,58
KW_Experiment5A,37,1,"<?xml version=""1.0""?>\n<Clock xmlns:dt=""urn:schemas-microsoft-com:datatypes""><Description dt:dt=""string"">E-Prime Primary Realtime Clock</Description><StartTime><Timestamp dt:dt=""int"">0</Timestamp><DateUtc dt:dt=""string"">2018-10-24T16:12:06Z</DateUtc></StartTime><FrequencyChanges><FrequencyChange><Frequency dt:dt=""r8"">3215273</Frequency><Timestamp dt:dt=""r8"">1288211474649</Timestamp><Current dt:dt=""r8"">0</Current><DateUtc dt:dt=""string"">2018-10-24T16:12:06Z</DateUtc></FrequencyChange></FrequencyChanges></Clock>\n",KW_Experiment5A-37-1,59.946,1.0.0.105,2,-278088075,Professional,2.0.10.353,2.0.10.353,10/24/2018,10/24/2018 16:12,12:12:06,2.0.10.248,3,2,1,3,,,,,,,,TrainingProc,BlockList,11,1,Distractor2.bmp,2,0,,0,1,1003867,601,,0,0,cyan,600,3,600,4,vertical,cyan,Distractor2.bmp,lime,Target1.bmp,red,Distractor2.bmp,blue,Distractor1.bmp,yellow,Distractor2.bmp,purple,Distractor2.bmp,,,,TrialProc,,TrainingTrialList,0,1,-999999,1,1004468,0,2,529,1004997,Target1.bmp,lime,1,,,,2,4,59
KW_Experiment5A,37,1,"<?xml version=""1.0""?>\n<Clock xmlns:dt=""urn:schemas-microsoft-com:datatypes""><Description dt:dt=""string"">E-Prime Primary Realtime Clock</Description><StartTime><Timestamp dt:dt=""int"">0</Timestamp><DateUtc dt:dt=""string"">2018-10-24T16:12:06Z</DateUtc></StartTime><FrequencyChanges><FrequencyChange><Frequency dt:dt=""r8"">3215273</Frequency><Timestamp dt:dt=""r8"">1288211474649</Timestamp><Current dt:dt=""r8"">0</Current><DateUtc dt:dt=""string"">2018-10-24T16:12:06Z</DateUtc></FrequencyChange></FrequencyChanges></Clock>\n",KW_Experiment5A-37-1,59.946,1.0.0.105,2,-278088075,Professional,2.0.10.353,2.0.10.353,10/24/2018,10/24/2018 16:12,12:12:06,2.0.10.248,3,2,1,3,,,,,,,,TrainingProc,BlockList,12,2,Distractor2.bmp,2,0,,0,1,1006019,601,,0,0,cyan,600,3,600,4,horizontal,cyan,Distractor2.bmp,purple,Distractor2.bmp,blue,Distractor1.bmp,red,Distractor1.bmp,yellow,Distractor2.bmp,lime,Target2.bmp,,,,TrialProc,,TrainingTrialList,1,2,-999999,1,1006620,0,2,641,1007261,Target2.bmp,lime,2,,,,6,4,60
KW_Experiment5A,37,1,"<?xml version=""1.0""?>\n<Clock xmlns:dt=""urn:schemas-microsoft-com:datatypes""><Description dt:dt=""string"">E-Prime Primary Realtime Clock</Description><StartTime><Timestamp dt:dt=""int"">0</Timestamp><DateUtc dt:dt=""string"">2018-10-24T16:12:06Z</DateUtc></StartTime><FrequencyChanges><FrequencyChange><Frequency dt:dt=""r8"">3215273</Frequency><Timestamp dt:dt=""r8"">1288211474649</Timestamp><Current dt:dt=""r8"">0</Current><DateUtc dt:dt=""string"">2018-10-24T16:12:06Z</DateUtc></FrequencyChange></FrequencyChanges></Clock>\n",KW_Experiment5A-37-1,59.946,1.0.0.105,2,-278088075,Professional,2.0.10.353,2.0.10.353,10/24/2018,10/24/2018 16:12,12:12:06,2.0.10.248,3,2,1,3,,,,,,,,TrainingProc,BlockList,13,1,Distractor1.bmp,1,0,,0,1,1008271,501,,0,0,yellow,500,2,500,,vertical,yellow,Distractor2.bmp,red,Target1.bmp,purple,Distractor1.bmp,lime,Distractor2.bmp,cyan,Distractor2.bmp,blue,Distractor2.bmp,,,,TrialProc,2,TrainingTrialList,1,1,-999999,1,1008772,0,1,521,1009293,Target1.bmp,red,1,,,,8,4,61
KW_Experiment5A,37,1,"<?xml version=""1.0""?>\n<Clock xmlns:dt=""urn:schemas-microsoft-com:datatypes""><Description dt:dt=""string"">E-Prime Primary Realtime Clock</Description><StartTime><Timestamp dt:dt=""int"">0</Timestamp><DateUtc dt:dt=""string"">2018-10-24T16:12:06Z</DateUtc></StartTime><FrequencyChanges><FrequencyChange><Frequency dt:dt=""r8"">3215273</Frequency><Timestamp dt:dt=""r8"">1288211474649</Timestamp><Current dt:dt=""r8"">0</Current><DateUtc dt:dt=""string"">2018-10-24T16:12:06Z</DateUtc></FrequencyChange></FrequencyChanges></Clock>\n",KW_Experiment5A-37-1,59.946,1.0.0.105,2,-278088075,Professional,2.0.10.353,2.0.10.353,10/24/2018,10/24/2018 16:12,12:12:06,2.0.10.248,3,2,1,3,,,,,,,,TrainingProc,BlockList,14,2,Distractor1.bmp,1,0,,0,1,1010307,600,,0,0,yellow,600,3,600,,horizontal,yellow,Distractor2.bmp,purple,Distractor2.bmp,cyan,Distractor2.bmp,red,Target2.bmp,lime,Distractor1.bmp,blue,Distractor2.bmp,,,,TrialProc,2,TrainingTrialList,1,2,-999999,0,1010907,0,2,738,1011645,Target2.bmp,red,2,,,,10,4,62
KW_Experiment5A,37,1,"<?xml version=""1.0""?>\n<Clock xmlns:dt=""urn:schemas-microsoft-com:datatypes""><Description dt:dt=""string"">E-Prime Primary Realtime Clock</Description><StartTime><Timestamp dt:dt=""int"">0</Timestamp><DateUtc dt:dt=""string"">2018-10-24T16:12:06Z</DateUtc></StartTime><FrequencyChanges><FrequencyChange><Frequency dt:dt=""r8"">3215273</Frequency><Timestamp dt:dt=""r8"">1288211474649</Timestamp><Current dt:dt=""r8"">0</Current><DateUtc dt:dt=""string"">2018-10-24T16:12:06Z</DateUtc></FrequencyChange></FrequencyChanges></Clock>\n",KW_Experiment5A-37-1,59.946,1.0.0.105,2,-278088075,Professional,2.0.10.353,2.0.10.353,10/24/2018,10/24/2018 16:12,12:12:06,2.0.10.248,3,2,1,3,,,,,,,,TrainingProc,BlockList,15,2,Distractor2.bmp,2,0,,0,1,1012659,500,,0,0,blue,500,2,500,,horizontal,blue,Distractor2.bmp,yellow,Distractor1.bmp,cyan,Distractor1.bmp,lime,Distractor1.bmp,red,Target2.bmp,purple,Distractor2.bmp,,,,TrialProc,3,TrainingTrialList,1,2,-999999,0,1013159,0,2,814,1013973,Target2.bmp,red,2,,,,11,4,63
KW_Experiment5A,37,1,"<?xml version=""1.0""?>\n<Clock xmlns:dt=""urn:schemas-microsoft-com:datatypes""><Description dt:dt=""string"">E-Prime Primary Realtime Clock</Description><StartTime><Timestamp dt:dt=""int"">0</Timestamp><DateUtc dt:dt=""string"">2018-10-24T16:12:06Z</DateUtc></StartTime><FrequencyChanges><FrequencyChange><Frequency dt:dt=""r8"">3215273</Frequency><Timestamp dt:dt=""r8"">1288211474649</Timestamp><Current dt:dt=""r8"">0</Current><DateUtc dt:dt=""string"">2018-10-24T16:12:06Z</DateUtc></FrequencyChange></FrequencyChanges></Clock>\n",KW_Experiment5A-37-1,59.946,1.0.0.105,2,-278088075,Professional,2.0.10.353,2.0.10.353,10/24/2018,10/24/2018 16:12,12:12:06,2.0.10.248,3,2,1,3,,,,,,,,TrainingProc,BlockList,16,1,Distractor2.bmp,2,0,,0,1,1014994,401,,0,0,purple,400,1,400,5,vertical,purple,Distractor1.bmp,red,Distractor1.bmp,lime,Target1.bmp,blue,Distractor2.bmp,yellow,Distractor2.bmp,cyan,Distractor2.bmp,,,,TrialProc,,TrainingTrialList,1,1,-999999,1,1015395,0,1,586,1015981,Target1.bmp,lime,1,,,,3,4,64
KW_Experiment5A,37,1,"<?xml version=""1.0""?>\n<Clock xmlns:dt=""urn:schemas-microsoft-com:datatypes""><Description dt:dt=""string"">E-Prime Primary Realtime Clock</Description><StartTime><Timestamp dt:dt=""int"">0</Timestamp><DateUtc dt:dt=""string"">2018-10-24T16:12:06Z</DateUtc></StartTime><FrequencyChanges><FrequencyChange><Frequency dt:dt=""r8"">3215273</Frequency><Timestamp dt:dt=""r8"">1288211474649</Timestamp><Current dt:dt=""r8"">0</Current><DateUtc dt:dt=""string"">2018-10-24T16:12:06Z</DateUtc></FrequencyChange></FrequencyChanges></Clock>\n",KW_Experiment5A-37-1,59.946,1.0.0.105,2,-278088075,Professional,2.0.10.353,2.0.10.353,10/24/2018,10/24/2018 16:12,12:12:06,2.0.10.248,3,2,1,3,,,,,,,,TrainingProc,BlockList,17,2,Distractor1.bmp,1,0,,0,1,1016996,400,,0,0,cyan,400,1,400,,horizontal,cyan,Distractor1.bmp,blue,Distractor1.bmp,red,Target2.bmp,purple,Distractor1.bmp,lime,Distractor2.bmp,yellow,Distractor1.bmp,,,,TrialProc,4,TrainingTrialList,1,2,-999999,0,1017396,0,2,689,1018085,Target2.bmp,red,2,,,,9,4,65
KW_Experiment5A,37,1,"<?xml version=""1.0""?>\n<Clock xmlns:dt=""urn:schemas-microsoft-com:datatypes""><Description dt:dt=""string"">E-Prime Primary Realtime Clock</Description><StartTime><Timestamp dt:dt=""int"">0</Timestamp><DateUtc dt:dt=""string"">2018-10-24T16:12:06Z</DateUtc></StartTime><FrequencyChanges><FrequencyChange><Frequency dt:dt=""r8"">3215273</Frequency><Timestamp dt:dt=""r8"">1288211474649</Timestamp><Current dt:dt=""r8"">0</Current><DateUtc dt:dt=""string"">2018-10-24T16:12:06Z</DateUtc></FrequencyChange></FrequencyChanges></Clock>\n",KW_Experiment5A-37-1,59.946,1.0.0.105,2,-278088075,Professional,2.0.10.353,2.0.10.353,10/24/2018,10/24/2018 16:12,12:12:06,2.0.10.248,3,2,1,3,,,,,,,,TrainingProc,BlockList,18,2,Distractor2.bmp,2,0,,0,1,1019098,500,,0,0,cyan,500,2,500,,horizontal,cyan,Distractor2.bmp,yellow,Distractor1.bmp,purple,Distractor2.bmp,lime,Distractor2.bmp,blue,Distractor1.bmp,red,Target2.bmp,,,,TrialProc,4,TrainingTrialList,1,2,-999999,0,1019598,0,2,623,1020221,Target2.bmp,red,2,,,,12,4,66
KW_Experiment5A,37,1,"<?xml version=""1.0""?>\n<Clock xmlns:dt=""urn:schemas-microsoft-com:datatypes""><Description dt:dt=""string"">E-Prime Primary Realtime Clock</Description><StartTime><Timestamp dt:dt=""int"">0</Timestamp><DateUtc dt:dt=""string"">2018-10-24T16:12:06Z</DateUtc></StartTime><FrequencyChanges><FrequencyChange><Frequency dt:dt=""r8"">3215273</Frequency><Timestamp dt:dt=""r8"">1288211474649</Timestamp><Current dt:dt=""r8"">0</Current><DateUtc dt:dt=""string"">2018-10-24T16:12:06Z</DateUtc></FrequencyChange></FrequencyChanges></Clock>\n",KW_Experiment5A-37-1,59.946,1.0.0.105,2,-278088075,Professional,2.0.10.353,2.0.10.353,10/24/2018,10/24/2018 16:12,12:12:06,2.0.10.248,3,2,1,3,,,,,,,,TrainingProc,BlockList,19,2,Distractor2.bmp,2,0,,0,1,1021233,401,,0,0,purple,400,1,400,5,horizontal,lime,Target2.bmp,purple,Distractor2.bmp,red,Distractor1.bmp,cyan,Distractor2.bmp,yellow,Distractor1.bmp,blue,Distractor2.bmp,,,,TrialProc,,TrainingTrialList,1,2,-999999,1,1021634,0,2,587,1022221,Target2.bmp,lime,2,,,,1,4,67
KW_Experiment5A,37,1,"<?xml version=""1.0""?>\n<Clock xmlns:dt=""urn:schemas-microsoft-com:datatypes""><Description dt:dt=""string"">E-Prime Primary Realtime Clock</Description><StartTime><Timestamp dt:dt=""int"">0</Timestamp><DateUtc dt:dt=""string"">2018-10-24T16:12:06Z</DateUtc></StartTime><FrequencyChanges><FrequencyChange><Frequency dt:dt=""r8"">3215273</Frequency><Timestamp dt:dt=""r8"">1288211474649</Timestamp><Current dt:dt=""r8"">0</Current><DateUtc dt:dt=""string"">2018-10-24T16:12:06Z</DateUtc></FrequencyChange></FrequencyChanges></Clock>\n",KW_Experiment5A-37-1,59.946,1.0.0.105,2,-278088075,Professional,2.0.10.353,2.0.10.353,10/24/2018,10/24/2018 16:12,12:12:06,2.0.10.248,3,2,1,3,,,,,,,,TrainingProc,BlockList,20,1,Distractor1.bmp,1,0,,0,1,1023235,601,,0,0,blue,600,3,600,,vertical,blue,Distractor1.bmp,red,Target1.bmp,lime,Distractor1.bmp,purple,Distractor2.bmp,yellow,Distractor2.bmp,cyan,Distractor1.bmp,,,,TrialProc,3,TrainingTrialList,0,1,-999999,1,1023836,0,2,529,1024365,Target1.bmp,red,1,,,,8,4,68
KW_Experiment5A,37,1,"<?xml version=""1.0""?>\n<Clock xmlns:dt=""urn:schemas-microsoft-com:datatypes""><Description dt:dt=""string"">E-Prime Primary Realtime Clock</Description><StartTime><Timestamp dt:dt=""int"">0</Timestamp><DateUtc dt:dt=""string"">2018-10-24T16:12:06Z</DateUtc></StartTime><FrequencyChanges><FrequencyChange><Frequency dt:dt=""r8"">3215273</Frequency><Timestamp dt:dt=""r8"">1288211474649</Timestamp><Current dt:dt=""r8"">0</Current><DateUtc dt:dt=""string"">2018-10-24T16:12:06Z</DateUtc></FrequencyChange></FrequencyChanges></Clock>\n",KW_Experiment5A-37-1,59.946,1.0.0.105,2,-278088075,Professional,2.0.10.353,2.0.10.353,10/24/2018,10/24/2018 16:12,12:12:06,2.0.10.248,3,2,1,3,,,,,,,,TrainingProc,BlockList,21,2,Distractor2.bmp,2,0,,0,1,1025387,400,,0,0,yellow,400,1,400,,horizontal,yellow,Distractor2.bmp,red,Target2.bmp,blue,Distractor2.bmp,lime,Distractor2.bmp,cyan,Distractor2.bmp,purple,Distractor1.bmp,,,,TrialProc,2,TrainingTrialList,1,2,-999999,0,1025787,0,2,634,1026421,Target2.bmp,red,2,,,,8,4,69
KW_Experiment5A,37,1,"<?xml version=""1.0""?>\n<Clock xmlns:dt=""urn:schemas-microsoft-com:datatypes""><Description dt:dt=""string"">E-Prime Primary Realtime Clock</Description><StartTime><Timestamp dt:dt=""int"">0</Timestamp><DateUtc dt:dt=""string"">2018-10-24T16:12:06Z</DateUtc></StartTime><FrequencyChanges><FrequencyChange><Frequency dt:dt=""r8"">3215273</Frequency><Timestamp dt:dt=""r8"">1288211474649</Timestamp><Current dt:dt=""r8"">0</Current><DateUtc dt:dt=""string"">2018-10-24T16:12:06Z</DateUtc></FrequencyChange></FrequencyChanges></Clock>\n",KW_Experiment5A-37-1,59.946,1.0.0.105,2,-278088075,Professional,2.0.10.353,2.0.10.353,10/24/2018,10/24/2018 16:12,12:12:06,2.0.10.248,3,2,1,3,,,,,,,,TrainingProc,BlockList,22,2,Distractor2.bmp,2,0,,0,1,1027439,400,,0,0,cyan,400,1,400,,horizontal,red,Target2.bmp,lime,Distractor2.bmp,purple,Distractor1.bmp,yellow,Distractor1.bmp,blue,Distractor2.bmp,cyan,Distractor2.bmp,,,,TrialProc,4,TrainingTrialList,1,2,-999999,0,1027839,0,2,534,1028373,Target2.bmp,red,2,,,,7,4,70
KW_Experiment5A,37,1,"<?xml version=""1.0""?>\n<Clock xmlns:dt=""urn:schemas-microsoft-com:datatypes""><Description dt:dt=""string"">E-Prime Primary Realtime Clock</Description><StartTime><Timestamp dt:dt=""int"">0</Timestamp><DateUtc dt:dt=""string"">2018-10-24T16:12:06Z</DateUtc></StartTime><FrequencyChanges><FrequencyChange><Frequency dt:dt=""r8"">3215273</Frequency><Timestamp dt:dt=""r8"">1288211474649</Timestamp><Current dt:dt=""r8"">0</Current><DateUtc dt:dt=""string"">2018-10-24T16:12:06Z</DateUtc></FrequencyChange></FrequencyChanges></Clock>\n",KW_Experiment5A-37-1,59.946,1.0.0.105,2,-278088075,Professional,2.0.10.353,2.0.10.353,10/24/2018,10/24/2018 16:12,12:12:06,2.0.10.248,3,2,1,3,,,,,,,,TrainingProc,BlockList,23,1,Distractor1.bmp,1,0,,0,1,1029391,600,,0,0,blue,600,3,600,,vertical,red,Target1.bmp,yellow,Distractor1.bmp,lime,Distractor2.bmp,cyan,Distractor1.bmp,purple,Distractor1.bmp,blue,Distractor2.bmp,,,,TrialProc,3,TrainingTrialList,0,1,-999999,0,1029991,0,2,574,1030565,Target1.bmp,red,1,,,,7,4,71
KW_Experiment5A,37,1,"<?xml version=""1.0""?>\n<Clock xmlns:dt=""urn:schemas-microsoft-com:datatypes""><Description dt:dt=""string"">E-Prime Primary Realtime Clock</Description><StartTime><Timestamp dt:dt=""int"">0</Timestamp><DateUtc dt:dt=""string"">2018-10-24T16:12:06Z</DateUtc></StartTime><FrequencyChanges><FrequencyChange><Frequency dt:dt=""r8"">3215273</Frequency><Timestamp dt:dt=""r8"">1288211474649</Timestamp><Current dt:dt=""r8"">0</Current><DateUtc dt:dt=""string"">2018-10-24T16:12:06Z</DateUtc></FrequencyChange></FrequencyChanges></Clock>\n",KW_Experiment5A-37-1,59.946,1.0.0.105,2,-278088075,Professional,2.0.10.353,2.0.10.353,10/24/2018,10/24/2018 16:12,12:12:06,2.0.10.248,3,2,1,3,,,,,,,,TrainingProc,BlockList,24,2,Distractor1.bmp,1,0,,0,1,1031576,500,,0,0,cyan,500,2,500,,horizontal,red,Target2.bmp,purple,Distractor1.bmp,yellow,Distractor2.bmp,lime,Distractor2.bmp,blue,Distractor1.bmp,cyan,Distractor1.bmp,,,,TrialProc,4,TrainingTrialList,0,2,-999999,0,1032076,0,1,681,1032757,Target2.bmp,red,2,,,,7,4,72
KW_Experiment5A,37,1,"<?xml version=""1.0""?>\n<Clock xmlns:dt=""urn:schemas-microsoft-com:datatypes""><Description dt:dt=""string"">E-Prime Primary Realtime Clock</Description><StartTime><Timestamp dt:dt=""int"">0</Timestamp><DateUtc dt:dt=""string"">2018-10-24T16:12:06Z</DateUtc></StartTime><FrequencyChanges><FrequencyChange><Frequency dt:dt=""r8"">3215273</Frequency><Timestamp dt:dt=""r8"">1288211474649</Timestamp><Current dt:dt=""r8"">0</Current><DateUtc dt:dt=""string"">2018-10-24T16:12:06Z</DateUtc></FrequencyChange></FrequencyChanges></Clock>\n",KW_Experiment5A-37-1,59.946,1.0.0.105,2,-278088075,Professional,2.0.10.353,2.0.10.353,10/24/2018,10/24/2018 16:12,12:12:06,2.0.10.248,3,2,1,3,,,,,,,,TrainingProc,BlockList,25,2,Distractor2.bmp,2,0,,0,1,1033778,601,,0,0,purple,600,3,600,,horizontal,red,Target2.bmp,cyan,Distractor2.bmp,lime,Distractor1.bmp,blue,Distractor1.bmp,yellow,Distractor1.bmp,purple,Distractor2.bmp,,,,TrialProc,5,TrainingTrialList,1,2,-999999,1,1034379,0,2,466,1034845,Target2.bmp,red,2,,,,7,5,73
KW_Experiment5A,37,1,"<?xml version=""1.0""?>\n<Clock xmlns:dt=""urn:schemas-microsoft-com:datatypes""><Description dt:dt=""string"">E-Prime Primary Realtime Clock</Description><StartTime><Timestamp dt:dt=""int"">0</Timestamp><DateUtc dt:dt=""string"">2018-10-24T16:12:06Z</DateUtc></StartTime><FrequencyChanges><FrequencyChange><Frequency dt:dt=""r8"">3215273</Frequency><Timestamp dt:dt=""r8"">1288211474649</Timestamp><Current dt:dt=""r8"">0</Current><DateUtc dt:dt=""string"">2018-10-24T16:12:06Z</DateUtc></FrequencyChange></FrequencyChanges></Clock>\n",KW_Experiment5A-37-1,59.946,1.0.0.105,2,-278088075,Professional,2.0.10.353,2.0.10.353,10/24/2018,10/24/2018 16:12,12:12:06,2.0.10.248,3,2,1,3,,,,,,,,TrainingProc,BlockList,26,2,Distractor1.bmp,1,0,,0,1,1035863,401,,0,0,purple,400,1,400,,horizontal,purple,Distractor2.bmp,lime,Distractor1.bmp,cyan,Distractor2.bmp,red,Target2.bmp,blue,Distractor1.bmp,yellow,Distractor1.bmp,,,,TrialProc,5,TrainingTrialList,1,2,-999999,1,1036264,0,2,756,1037020,Target2.bmp,red,2,,,,10,5,74
KW_Experiment5A,37,1,"<?xml version=""1.0""?>\n<Clock xmlns:dt=""urn:schemas-microsoft-com:datatypes""><Description dt:dt=""string"">E-Prime Primary Realtime Clock</Description><StartTime><Timestamp dt:dt=""int"">0</Timestamp><DateUtc dt:dt=""string"">2018-10-24T16:12:06Z</DateUtc></StartTime><FrequencyChanges><FrequencyChange><Frequency dt:dt=""r8"">3215273</Frequency><Timestamp dt:dt=""r8"">1288211474649</Timestamp><Current dt:dt=""r8"">0</Current><DateUtc dt:dt=""string"">2018-10-24T16:12:06Z</DateUtc></FrequencyChange></FrequencyChanges></Clock>\n",KW_Experiment5A-37-1,59.946,1.0.0.105,2,-278088075,Professional,2.0.10.353,2.0.10.353,10/24/2018,10/24/2018 16:12,12:12:06,2.0.10.248,3,2,1,3,,,,,,,,TrainingProc,BlockList,27,1,Distractor2.bmp,2,0,,0,1,1038032,500,,0,0,blue,500,2,500,3,vertical,blue,Distractor2.bmp,yellow,Distractor1.bmp,purple,Distractor1.bmp,cyan,Distractor1.bmp,lime,Target1.bmp,red,Distractor2.bmp,,,,TrialProc,,TrainingTrialList,1,1,-999999,0,1038532,0,1,472,1039004,Target1.bmp,lime,1,,,,5,5,75
KW_Experiment5A,37,1,"<?xml version=""1.0""?>\n<Clock xmlns:dt=""urn:schemas-microsoft-com:datatypes""><Description dt:dt=""string"">E-Prime Primary Realtime Clock</Description><StartTime><Timestamp dt:dt=""int"">0</Timestamp><DateUtc dt:dt=""string"">2018-10-24T16:12:06Z</DateUtc></StartTime><FrequencyChanges><FrequencyChange><Frequency dt:dt=""r8"">3215273</Frequency><Timestamp dt:dt=""r8"">1288211474649</Timestamp><Current dt:dt=""r8"">0</Current><DateUtc dt:dt=""string"">2018-10-24T16:12:06Z</DateUtc></FrequencyChange></FrequencyChanges></Clock>\n",KW_Experiment5A-37-1,59.946,1.0.0.105,2,-278088075,Professional,2.0.10.353,2.0.10.353,10/24/2018,10/24/2018 16:12,12:12:06,2.0.10.248,3,2,1,3,,,,,,,,TrainingProc,BlockList,28,1,Distractor2.bmp,2,0,,0,1,1040017,601,,0,0,cyan,600,3,600,,vertical,cyan,Distractor2.bmp,lime,Distractor1.bmp,blue,Distractor2.bmp,purple,Distractor2.bmp,yellow,Distractor1.bmp,red,Target1.bmp,,,,TrialProc,4,TrainingTrialList,1,1,-999999,1,1040618,0,1,474,1041092,Target1.bmp,red,1,,,,12,5,76
KW_Experiment5A,37,1,"<?xml version=""1.0""?>\n<Clock xmlns:dt=""urn:schemas-microsoft-com:datatypes""><Description dt:dt=""string"">E-Prime Primary Realtime Clock</Description><StartTime><Timestamp dt:dt=""int"">0</Timestamp><DateUtc dt:dt=""string"">2018-10-24T16:12:06Z</DateUtc></StartTime><FrequencyChanges><FrequencyChange><Frequency dt:dt=""r8"">3215273</Frequency><Timestamp dt:dt=""r8"">1288211474649</Timestamp><Current dt:dt=""r8"">0</Current><DateUtc dt:dt=""string"">2018-10-24T16:12:06Z</DateUtc></FrequencyChange></FrequencyChanges></Clock>\n",KW_Experiment5A-37-1,59.946,1.0.0.105,2,-278088075,Professional,2.0.10.353,2.0.10.353,10/24/2018,10/24/2018 16:12,12:12:06,2.0.10.248,3,2,1,3,,,,,,,,TrainingProc,BlockList,29,1,Distractor2.bmp,2,0,,0,1,1042102,501,,0,0,lime,500,2,500,,vertical,lime,Distractor1.bmp,yellow,Distractor1.bmp,cyan,Distractor1.bmp,red,Target1.bmp,purple,Distractor2.bmp,blue,Distractor1.bmp,,,,TrialProc,6,TrainingTrialList,1,1,-999999,1,1042603,0,1,521,1043124,Target1.bmp,red,1,,,,10,5,77
KW_Experiment5A,37,1,"<?xml version=""1.0""?>\n<Clock xmlns:dt=""urn:schemas-microsoft-com:datatypes""><Description dt:dt=""string"">E-Prime Primary Realtime Clock</Description><StartTime><Timestamp dt:dt=""int"">0</Timestamp><DateUtc dt:dt=""string"">2018-10-24T16:12:06Z</DateUtc></StartTime><FrequencyChanges><FrequencyChange><Frequency dt:dt=""r8"">3215273</Frequency><Timestamp dt:dt=""r8"">1288211474649</Timestamp><Current dt:dt=""r8"">0</Current><DateUtc dt:dt=""string"">2018-10-24T16:12:06Z</DateUtc></FrequencyChange></FrequencyChanges></Clock>\n",KW_Experiment5A-37-1,59.946,1.0.0.105,2,-278088075,Professional,2.0.10.353,2.0.10.353,10/24/2018,10/24/2018 16:12,12:12:06,2.0.10.248,3,2,1,3,,,,,,,,TrainingProc,BlockList,30,1,Distractor1.bmp,1,0,,1,0,1044137,401,,0,0,yellow,400,1,400,,vertical,yellow,Distractor1.bmp,blue,Distractor2.bmp,red,Target1.bmp,purple,Distractor1.bmp,cyan,Distractor1.bmp,lime,Distractor1.bmp,,,,TrialProc,2,TrainingTrialList,1,1,-999999,1,1044538,0,1,498,1045036,Target1.bmp,red,1,,,,9,5,78
KW_Experiment5A,37,1,"<?xml version=""1.0""?>\n<Clock xmlns:dt=""urn:schemas-microsoft-com:datatypes""><Description dt:dt=""string"">E-Prime Primary Realtime Clock</Description><StartTime><Timestamp dt:dt=""int"">0</Timestamp><DateUtc dt:dt=""string"">2018-10-24T16:12:06Z</DateUtc></StartTime><FrequencyChanges><FrequencyChange><Frequency dt:dt=""r8"">3215273</Frequency><Timestamp dt:dt=""r8"">1288211474649</Timestamp><Current dt:dt=""r8"">0</Current><DateUtc dt:dt=""string"">2018-10-24T16:12:06Z</DateUtc></FrequencyChange></FrequencyChanges></Clock>\n",KW_Experiment5A-37-1,59.946,1.0.0.105,2,-278088075,Professional,2.0.10.353,2.0.10.353,10/24/2018,10/24/2018 16:12,12:12:06,2.0.10.248,3,2,1,3,,,,,,,,TrainingProc,BlockList,31,2,Distractor2.bmp,2,0,,0,1,1046056,600,,0,0,yellow,600,3,600,,horizontal,yellow,Distractor1.bmp,purple,Distractor1.bmp,cyan,Distractor2.bmp,blue,Distractor2.bmp,red,Target2.bmp,lime,Distractor2.bmp,,,,TrialProc,2,TrainingTrialList,1,2,-999999,0,1046656,0,2,508,1047164,Target2.bmp,red,2,,,,11,5,79
KW_Experiment5A,37,1,"<?xml version=""1.0""?>\n<Clock xmlns:dt=""urn:schemas-microsoft-com:datatypes""><Description dt:dt=""string"">E-Prime Primary Realtime Clock</Description><StartTime><Timestamp dt:dt=""int"">0</Timestamp><DateUtc dt:dt=""string"">2018-10-24T16:12:06Z</DateUtc></StartTime><FrequencyChanges><FrequencyChange><Frequency dt:dt=""r8"">3215273</Frequency><Timestamp dt:dt=""r8"">1288211474649</Timestamp><Current dt:dt=""r8"">0</Current><DateUtc dt:dt=""string"">2018-10-24T16:12:06Z</DateUtc></FrequencyChange></FrequencyChanges></Clock>\n",KW_Experiment5A-37-1,59.946,1.0.0.105,2,-278088075,Professional,2.0.10.353,2.0.10.353,10/24/2018,10/24/2018 16:12,12:12:06,2.0.10.248,3,2,1,3,,,,,,,,TrainingProc,BlockList,32,1,Distractor1.bmp,1,0,,0,1,1048175,400,,0,0,blue,400,1,400,3,vertical,blue,Distractor2.bmp,purple,Distractor2.bmp,yellow,Distractor1.bmp,lime,Target1.bmp,cyan,Distractor1.bmp,red,Distractor1.bmp,,,,TrialProc,,TrainingTrialList,1,1,-999999,0,1048575,0,1,493,1049068,Target1.bmp,lime,1,,,,4,5,80
KW_Experiment5A,37,1,"<?xml version=""1.0""?>\n<Clock xmlns:dt=""urn:schemas-microsoft-com:datatypes""><Description dt:dt=""string"">E-Prime Primary Realtime Clock</Description><StartTime><Timestamp dt:dt=""int"">0</Timestamp><DateUtc dt:dt=""string"">2018-10-24T16:12:06Z</DateUtc></StartTime><FrequencyChanges><FrequencyChange><Frequency dt:dt=""r8"">3215273</Frequency><Timestamp dt:dt=""r8"">1288211474649</Timestamp><Current dt:dt=""r8"">0</Current><DateUtc dt:dt=""string"">2018-10-24T16:12:06Z</DateUtc></FrequencyChange></FrequencyChanges></Clock>\n",KW_Experiment5A-37-1,59.946,1.0.0.105,2,-278088075,Professional,2.0.10.353,2.0.10.353,10/24/2018,10/24/2018 16:12,12:12:06,2.0.10.248,3,2,1,3,,,,,,,,TrainingProc,BlockList,33,2,Distractor2.bmp,2,0,,0,1,1050093,400,,0,0,blue,400,1,400,3,horizontal,blue,Distractor2.bmp,cyan,Distractor2.bmp,lime,Target2.bmp,red,Distractor2.bmp,yellow,Distractor1.bmp,purple,Distractor1.bmp,,,,TrialProc,,TrainingTrialList,1,2,-999999,0,1050493,0,2,495,1050988,Target2.bmp,lime,2,,,,3,5,81
KW_Experiment5A,37,1,"<?xml version=""1.0""?>\n<Clock xmlns:dt=""urn:schemas-microsoft-com:datatypes""><Description dt:dt=""string"">E-Prime Primary Realtime Clock</Description><StartTime><Timestamp dt:dt=""int"">0</Timestamp><DateUtc dt:dt=""string"">2018-10-24T16:12:06Z</DateUtc></StartTime><FrequencyChanges><FrequencyChange><Frequency dt:dt=""r8"">3215273</Frequency><Timestamp dt:dt=""r8"">1288211474649</Timestamp><Current dt:dt=""r8"">0</Current><DateUtc dt:dt=""string"">2018-10-24T16:12:06Z</DateUtc></FrequencyChange></FrequencyChanges></Clock>\n",KW_Experiment5A-37-1,59.946,1.0.0.105,2,-278088075,Professional,2.0.10.353,2.0.10.353,10/24/2018,10/24/2018 16:12,12:12:06,2.0.10.248,3,2,1,3,,,,,,,,TrainingProc,BlockList,34,1,Distractor2.bmp,2,0,,0,1,1052011,401,,0,0,lime,400,1,400,,vertical,lime,Distractor1.bmp,red,Target1.bmp,purple,Distractor2.bmp,cyan,Distractor2.bmp,blue,Distractor2.bmp,yellow,Distractor1.bmp,,,,TrialProc,6,TrainingTrialList,0,1,-999999,1,1052412,0,2,744,1053156,Target1.bmp,red,1,,,,8,5,82
KW_Experiment5A,37,1,"<?xml version=""1.0""?>\n<Clock xmlns:dt=""urn:schemas-microsoft-com:datatypes""><Description dt:dt=""string"">E-Prime Primary Realtime Clock</Description><StartTime><Timestamp dt:dt=""int"">0</Timestamp><DateUtc dt:dt=""string"">2018-10-24T16:12:06Z</DateUtc></StartTime><FrequencyChanges><FrequencyChange><Frequency dt:dt=""r8"">3215273</Frequency><Timestamp dt:dt=""r8"">1288211474649</Timestamp><Current dt:dt=""r8"">0</Current><DateUtc dt:dt=""string"">2018-10-24T16:12:06Z</DateUtc></FrequencyChange></FrequencyChanges></Clock>\n",KW_Experiment5A-37-1,59.946,1.0.0.105,2,-278088075,Professional,2.0.10.353,2.0.10.353,10/24/2018,10/24/2018 16:12,12:12:06,2.0.10.248,3,2,1,3,,,,,,,,TrainingProc,BlockList,35,1,Distractor1.bmp,1,0,,0,1,1054180,601,,0,0,blue,600,3,600,,vertical,blue,Distractor1.bmp,purple,Distractor2.bmp,yellow,Distractor2.bmp,red,Target1.bmp,cyan,Distractor1.bmp,lime,Distractor1.bmp,,,,TrialProc,3,TrainingTrialList,1,1,-999999,1,1054781,0,1,431,1055212,Target1.bmp,red,1,,,,10,5,83
KW_Experiment5A,37,1,"<?xml version=""1.0""?>\n<Clock xmlns:dt=""urn:schemas-microsoft-com:datatypes""><Description dt:dt=""string"">E-Prime Primary Realtime Clock</Description><StartTime><Timestamp dt:dt=""int"">0</Timestamp><DateUtc dt:dt=""string"">2018-10-24T16:12:06Z</DateUtc></StartTime><FrequencyChanges><FrequencyChange><Frequency dt:dt=""r8"">3215273</Frequency><Timestamp dt:dt=""r8"">1288211474649</Timestamp><Current dt:dt=""r8"">0</Current><DateUtc dt:dt=""string"">2018-10-24T16:12:06Z</DateUtc></FrequencyChange></FrequencyChanges></Clock>\n",KW_Experiment5A-37-1,59.946,1.0.0.105,2,-278088075,Professional,2.0.10.353,2.0.10.353,10/24/2018,10/24/2018 16:12,12:12:06,2.0.10.248,3,2,1,3,,,,,,,,TrainingProc,BlockList,36,2,Distractor1.bmp,1,0,,0,1,1056232,400,,0,0,purple,400,1,400,5,horizontal,lime,Target2.bmp,purple,Distractor1.bmp,cyan,Distractor2.bmp,blue,Distractor1.bmp,red,Distractor2.bmp,yellow,Distractor1.bmp,,,,TrialProc,,TrainingTrialList,0,2,-999999,0,1056632,0,1,444,1057076,Target2.bmp,lime,2,,,,1,5,84
KW_Experiment5A,37,1,"<?xml version=""1.0""?>\n<Clock xmlns:dt=""urn:schemas-microsoft-com:datatypes""><Description dt:dt=""string"">E-Prime Primary Realtime Clock</Description><StartTime><Timestamp dt:dt=""int"">0</Timestamp><DateUtc dt:dt=""string"">2018-10-24T16:12:06Z</DateUtc></StartTime><FrequencyChanges><FrequencyChange><Frequency dt:dt=""r8"">3215273</Frequency><Timestamp dt:dt=""r8"">1288211474649</Timestamp><Current dt:dt=""r8"">0</Current><DateUtc dt:dt=""string"">2018-10-24T16:12:06Z</DateUtc></FrequencyChange></FrequencyChanges></Clock>\n",KW_Experiment5A-37-1,59.946,1.0.0.105,2,-278088075,Professional,2.0.10.353,2.0.10.353,10/24/2018,10/24/2018 16:12,12:12:06,2.0.10.248,3,2,1,3,,,,,,,,TrainingProc,BlockList,37,2,Distractor2.bmp,2,0,,0,1,1058100,501,,0,0,purple,500,2,500,,horizontal,purple,Distractor1.bmp,red,Target2.bmp,yellow,Distractor2.bmp,blue,Distractor2.bmp,cyan,Distractor1.bmp,lime,Distractor2.bmp,,,,TrialProc,5,TrainingTrialList,1,2,-999999,1,1058601,0,2,435,1059036,Target2.bmp,red,2,,,,8,5,85
KW_Experiment5A,37,1,"<?xml version=""1.0""?>\n<Clock xmlns:dt=""urn:schemas-microsoft-com:datatypes""><Description dt:dt=""string"">E-Prime Primary Realtime Clock</Description><StartTime><Timestamp dt:dt=""int"">0</Timestamp><DateUtc dt:dt=""string"">2018-10-24T16:12:06Z</DateUtc></StartTime><FrequencyChanges><FrequencyChange><Frequency dt:dt=""r8"">3215273</Frequency><Timestamp dt:dt=""r8"">1288211474649</Timestamp><Current dt:dt=""r8"">0</Current><DateUtc dt:dt=""string"">2018-10-24T16:12:06Z</DateUtc></FrequencyChange></FrequencyChanges></Clock>\n",KW_Experiment5A-37-1,59.946,1.0.0.105,2,-278088075,Professional,2.0.10.353,2.0.10.353,10/24/2018,10/24/2018 16:12,12:12:06,2.0.10.248,3,2,1,3,,,,,,,,TrainingProc,BlockList,38,1,Distractor1.bmp,1,0,,0,1,1060052,601,,0,0,blue,600,3,600,,vertical,blue,Distractor2.bmp,red,Target1.bmp,purple,Distractor1.bmp,lime,Distractor1.bmp,cyan,Distractor2.bmp,yellow,Distractor2.bmp,,,,TrialProc,3,TrainingTrialList,0,1,-999999,1,1060653,0,2,415,1061068,Target1.bmp,red,1,,,,8,5,86
KW_Experiment5A,37,1,"<?xml version=""1.0""?>\n<Clock xmlns:dt=""urn:schemas-microsoft-com:datatypes""><Description dt:dt=""string"">E-Prime Primary Realtime Clock</Description><StartTime><Timestamp dt:dt=""int"">0</Timestamp><DateUtc dt:dt=""string"">2018-10-24T16:12:06Z</DateUtc></StartTime><FrequencyChanges><FrequencyChange><Frequency dt:dt=""r8"">3215273</Frequency><Timestamp dt:dt=""r8"">1288211474649</Timestamp><Current dt:dt=""r8"">0</Current><DateUtc dt:dt=""string"">2018-10-24T16:12:06Z</DateUtc></FrequencyChange></FrequencyChanges></Clock>\n",KW_Experiment5A-37-1,59.946,1.0.0.105,2,-278088075,Professional,2.0.10.353,2.0.10.353,10/24/2018,10/24/2018 16:12,12:12:06,2.0.10.248,3,2,1,3,,,,,,,,TrainingProc,BlockList,39,2,Distractor1.bmp,1,0,,0,1,1062087,501,,0,0,cyan,500,2,500,,horizontal,cyan,Distractor2.bmp,purple,Distractor2.bmp,lime,Distractor1.bmp,blue,Distractor2.bmp,red,Target2.bmp,yellow,Distractor1.bmp,,,,TrialProc,4,TrainingTrialList,0,2,-999999,1,1062588,0,1,552,1063140,Target2.bmp,red,2,,,,11,5,87
KW_Experiment5A,37,1,"<?xml version=""1.0""?>\n<Clock xmlns:dt=""urn:schemas-microsoft-com:datatypes""><Description dt:dt=""string"">E-Prime Primary Realtime Clock</Description><StartTime><Timestamp dt:dt=""int"">0</Timestamp><DateUtc dt:dt=""string"">2018-10-24T16:12:06Z</DateUtc></StartTime><FrequencyChanges><FrequencyChange><Frequency dt:dt=""r8"">3215273</Frequency><Timestamp dt:dt=""r8"">1288211474649</Timestamp><Current dt:dt=""r8"">0</Current><DateUtc dt:dt=""string"">2018-10-24T16:12:06Z</DateUtc></FrequencyChange></FrequencyChanges></Clock>\n",KW_Experiment5A-37-1,59.946,1.0.0.105,2,-278088075,Professional,2.0.10.353,2.0.10.353,10/24/2018,10/24/2018 16:12,12:12:06,2.0.10.248,3,2,1,3,,,,,,,,TrainingProc,BlockList,40,1,Distractor2.bmp,2,0,,0,1,1064156,400,,0,0,red,400,1,400,1,vertical,red,Distractor2.bmp,lime,Target1.bmp,blue,Distractor2.bmp,cyan,Distractor1.bmp,purple,Distractor2.bmp,yellow,Distractor2.bmp,,,,TrialProc,,TrainingTrialList,0,1,-999999,0,1064556,0,2,672,1065228,Target1.bmp,lime,1,,,,2,5,88
KW_Experiment5A,37,1,"<?xml version=""1.0""?>\n<Clock xmlns:dt=""urn:schemas-microsoft-com:datatypes""><Description dt:dt=""string"">E-Prime Primary Realtime Clock</Description><StartTime><Timestamp dt:dt=""int"">0</Timestamp><DateUtc dt:dt=""string"">2018-10-24T16:12:06Z</DateUtc></StartTime><FrequencyChanges><FrequencyChange><Frequency dt:dt=""r8"">3215273</Frequency><Timestamp dt:dt=""r8"">1288211474649</Timestamp><Current dt:dt=""r8"">0</Current><DateUtc dt:dt=""string"">2018-10-24T16:12:06Z</DateUtc></FrequencyChange></FrequencyChanges></Clock>\n",KW_Experiment5A-37-1,59.946,1.0.0.105,2,-278088075,Professional,2.0.10.353,2.0.10.353,10/24/2018,10/24/2018 16:12,12:12:06,2.0.10.248,3,2,1,3,,,,,,,,TrainingProc,BlockList,41,2,Distractor2.bmp,2,0,,0,1,1066241,400,,0,0,blue,400,1,400,,horizontal,blue,Distractor1.bmp,purple,Distractor2.bmp,red,Target2.bmp,cyan,Distractor2.bmp,lime,Distractor1.bmp,yellow,Distractor1.bmp,,,,TrialProc,3,TrainingTrialList,0,2,-999999,0,1066641,0,1,659,1067300,Target2.bmp,red,2,,,,9,5,89
KW_Experiment5A,37,1,"<?xml version=""1.0""?>\n<Clock xmlns:dt=""urn:schemas-microsoft-com:datatypes""><Description dt:dt=""string"">E-Prime Primary Realtime Clock</Description><StartTime><Timestamp dt:dt=""int"">0</Timestamp><DateUtc dt:dt=""string"">2018-10-24T16:12:06Z</DateUtc></StartTime><FrequencyChanges><FrequencyChange><Frequency dt:dt=""r8"">3215273</Frequency><Timestamp dt:dt=""r8"">1288211474649</Timestamp><Current dt:dt=""r8"">0</Current><DateUtc dt:dt=""string"">2018-10-24T16:12:06Z</DateUtc></FrequencyChange></FrequencyChanges></Clock>\n",KW_Experiment5A-37-1,59.946,1.0.0.105,2,-278088075,Professional,2.0.10.353,2.0.10.353,10/24/2018,10/24/2018 16:12,12:12:06,2.0.10.248,3,2,1,3,,,,,,,,TrainingProc,BlockList,42,1,Distractor2.bmp,2,0,,0,1,1068326,401,,0,0,red,400,1,400,1,vertical,red,Distractor2.bmp,blue,Distractor2.bmp,yellow,Distractor2.bmp,cyan,Distractor2.bmp,purple,Distractor1.bmp,lime,Target1.bmp,,,,TrialProc,,TrainingTrialList,0,1,-999999,1,1068727,0,2,613,1069340,Target1.bmp,lime,1,,,,6,5,90
