ExperimentName,Subject,Session,Clock.Information,DataFile.Basename,Display.RefreshRate,ExperimentVersion,Group,RandomSeed,RuntimeCapabilities,RuntimeVersion,RuntimeVersionExpected,SessionDate,SessionStartDateTimeUtc,SessionTime,StudioVersion,Block,BlockList,BlockList.Cycle,BlockList.Sample,PostTestQ1.RESP,PostTestQ1CJ.RESP,PostTestQ2.RESP,PostTestQ2CJ.RESP,PostTestQ3.RESP,PostTestQ3CJ.RESP,PostTestSlide.RESP,Procedure[Block],Running[Block],Trial,CorrectResponse,Distractor,DistractorList,Fixation.ACC,Fixation.CRESP,Fixation.DurationError,Fixation.OnsetDelay,Fixation.OnsetTime,Fixation.OnsetToOnsetTime,Fixation.RESP,Fixation.RT,Fixation.RTTime,ItemColor,Jitter,JitterList,JitterTime,Lime0List,Orientation,Pos1Color,Pos1Item,Pos2Color,Pos2Item,Pos3Color,Pos3Item,Pos4Color,Pos4Item,Pos5Color,Pos5Item,Pos6Color,Pos6Item,PracticeTrialList,PracticeTrialList.Cycle,PracticeTrialList.Sample,Procedure[Trial],Red0List,Running[Trial],Stimulus.ACC,Stimulus.CRESP,Stimulus.DurationError,Stimulus.OnsetDelay,Stimulus.OnsetTime,Stimulus.OnsetToOnsetTime,Stimulus.RESP,Stimulus.RT,Stimulus.RTTime,Target,TargetColor,TargetList,TestTrialList,TestTrialList.Cycle,TestTrialList.Sample,TrainingTrialList,TrainingTrialList.Cycle,TrainingTrialList.Sample
KW_Experiment5A,29,1,"<?xml version=""1.0""?>\n<Clock xmlns:dt=""urn:schemas-microsoft-com:datatypes""><Description dt:dt=""string"">E-Prime Primary Realtime Clock</Description><StartTime><Timestamp dt:dt=""int"">0</Timestamp><DateUtc dt:dt=""string"">2018-10-18T18:52:51Z</DateUtc></StartTime><FrequencyChanges><FrequencyChange><Frequency dt:dt=""r8"">3215292</Frequency><Timestamp dt:dt=""r8"">6147541858779</Timestamp><Current dt:dt=""r8"">0</Current><DateUtc dt:dt=""string"">2018-10-18T18:52:51Z</DateUtc></FrequencyChange></FrequencyChanges></Clock>\n",KW_Experiment5A-29-1,59.946,1.0.0.105,2,1444304324,Professional,2.0.10.353,2.0.10.353,10/18/2018,10/18/2018 18:52,14:52:52,2.0.10.248,1,1,1,1,,,,,,,,PracticeProc,BlockList,1,1,Distractor2.bmp,2,0,,0,98,201735,501,,0,0,yellow,500,2,500,2,vertical,blue,Distractor1.bmp,cyan,Distractor2.bmp,red,Distractor2.bmp,yellow,Distractor1.bmp,lime,Target1.bmp,purple,Distractor2.bmp,5,1,1,TrialProc,,PracticeTrialList,1,1,-999999,1,202236,0,1,5393,207629,Target1.bmp,lime,1,,,,,,
KW_Experiment5A,29,1,"<?xml version=""1.0""?>\n<Clock xmlns:dt=""urn:schemas-microsoft-com:datatypes""><Description dt:dt=""string"">E-Prime Primary Realtime Clock</Description><StartTime><Timestamp dt:dt=""int"">0</Timestamp><DateUtc dt:dt=""string"">2018-10-18T18:52:51Z</DateUtc></StartTime><FrequencyChanges><FrequencyChange><Frequency dt:dt=""r8"">3215292</Frequency><Timestamp dt:dt=""r8"">6147541858779</Timestamp><Current dt:dt=""r8"">0</Current><DateUtc dt:dt=""string"">2018-10-18T18:52:51Z</DateUtc></FrequencyChange></FrequencyChanges></Clock>\n",KW_Experiment5A-29-1,59.946,1.0.0.105,2,1444304324,Professional,2.0.10.353,2.0.10.353,10/18/2018,10/18/2018 18:52,14:52:52,2.0.10.248,1,1,1,1,,,,,,,,PracticeProc,BlockList,2,2,Distractor2.bmp,2,0,,0,1,208642,400,,0,0,blue,400,1,400,3,horizontal,yellow,Distractor2.bmp,blue,Distractor2.bmp,lime,Target2.bmp,purple,Distractor2.bmp,red,Distractor2.bmp,cyan,Distractor2.bmp,3,1,2,TrialProc,,PracticeTrialList,1,2,-999999,0,209042,0,2,2291,211333,Target2.bmp,lime,2,,,,,,
KW_Experiment5A,29,1,"<?xml version=""1.0""?>\n<Clock xmlns:dt=""urn:schemas-microsoft-com:datatypes""><Description dt:dt=""string"">E-Prime Primary Realtime Clock</Description><StartTime><Timestamp dt:dt=""int"">0</Timestamp><DateUtc dt:dt=""string"">2018-10-18T18:52:51Z</DateUtc></StartTime><FrequencyChanges><FrequencyChange><Frequency dt:dt=""r8"">3215292</Frequency><Timestamp dt:dt=""r8"">6147541858779</Timestamp><Current dt:dt=""r8"">0</Current><DateUtc dt:dt=""string"">2018-10-18T18:52:51Z</DateUtc></FrequencyChange></FrequencyChanges></Clock>\n",KW_Experiment5A-29-1,59.946,1.0.0.105,2,1444304324,Professional,2.0.10.353,2.0.10.353,10/18/2018,10/18/2018 18:52,14:52:52,2.0.10.248,1,1,1,1,,,,,,,,PracticeProc,BlockList,3,2,Distractor2.bmp,2,0,,0,1,212345,600,,0,0,purple,600,3,600,,horizontal,purple,Distractor2.bmp,red,Target2.bmp,blue,Distractor2.bmp,lime,Distractor2.bmp,cyan,Distractor2.bmp,yellow,Distractor1.bmp,2,1,3,TrialProc,5,PracticeTrialList,1,2,-999999,0,212945,0,2,1332,214277,Target2.bmp,red,2,,,,,,
KW_Experiment5A,29,1,"<?xml version=""1.0""?>\n<Clock xmlns:dt=""urn:schemas-microsoft-com:datatypes""><Description dt:dt=""string"">E-Prime Primary Realtime Clock</Description><StartTime><Timestamp dt:dt=""int"">0</Timestamp><DateUtc dt:dt=""string"">2018-10-18T18:52:51Z</DateUtc></StartTime><FrequencyChanges><FrequencyChange><Frequency dt:dt=""r8"">3215292</Frequency><Timestamp dt:dt=""r8"">6147541858779</Timestamp><Current dt:dt=""r8"">0</Current><DateUtc dt:dt=""string"">2018-10-18T18:52:51Z</DateUtc></FrequencyChange></FrequencyChanges></Clock>\n",KW_Experiment5A-29-1,59.946,1.0.0.105,2,1444304324,Professional,2.0.10.353,2.0.10.353,10/18/2018,10/18/2018 18:52,14:52:52,2.0.10.248,1,1,1,1,,,,,,,,PracticeProc,BlockList,4,2,Distractor2.bmp,2,0,,0,1,215298,600,,0,0,lime,600,3,600,,horizontal,purple,Distractor2.bmp,blue,Distractor1.bmp,lime,Distractor1.bmp,red,Target2.bmp,yellow,Distractor2.bmp,cyan,Distractor1.bmp,4,1,4,TrialProc,6,PracticeTrialList,1,2,-999999,0,215898,0,2,1723,217621,Target2.bmp,red,2,,,,,,
KW_Experiment5A,29,1,"<?xml version=""1.0""?>\n<Clock xmlns:dt=""urn:schemas-microsoft-com:datatypes""><Description dt:dt=""string"">E-Prime Primary Realtime Clock</Description><StartTime><Timestamp dt:dt=""int"">0</Timestamp><DateUtc dt:dt=""string"">2018-10-18T18:52:51Z</DateUtc></StartTime><FrequencyChanges><FrequencyChange><Frequency dt:dt=""r8"">3215292</Frequency><Timestamp dt:dt=""r8"">6147541858779</Timestamp><Current dt:dt=""r8"">0</Current><DateUtc dt:dt=""string"">2018-10-18T18:52:51Z</DateUtc></FrequencyChange></FrequencyChanges></Clock>\n",KW_Experiment5A-29-1,59.946,1.0.0.105,2,1444304324,Professional,2.0.10.353,2.0.10.353,10/18/2018,10/18/2018 18:52,14:52:52,2.0.10.248,1,1,1,1,,,,,,,,PracticeProc,BlockList,5,1,Distractor1.bmp,1,0,,0,1,218634,600,,0,0,red,600,3,600,1,vertical,lime,Target1.bmp,cyan,Distractor1.bmp,yellow,Distractor2.bmp,blue,Distractor2.bmp,purple,Distractor2.bmp,red,Distractor2.bmp,1,1,5,TrialProc,,PracticeTrialList,1,1,-999999,0,219234,0,1,1290,220524,Target1.bmp,lime,1,,,,,,
KW_Experiment5A,29,1,"<?xml version=""1.0""?>\n<Clock xmlns:dt=""urn:schemas-microsoft-com:datatypes""><Description dt:dt=""string"">E-Prime Primary Realtime Clock</Description><StartTime><Timestamp dt:dt=""int"">0</Timestamp><DateUtc dt:dt=""string"">2018-10-18T18:52:51Z</DateUtc></StartTime><FrequencyChanges><FrequencyChange><Frequency dt:dt=""r8"">3215292</Frequency><Timestamp dt:dt=""r8"">6147541858779</Timestamp><Current dt:dt=""r8"">0</Current><DateUtc dt:dt=""string"">2018-10-18T18:52:51Z</DateUtc></FrequencyChange></FrequencyChanges></Clock>\n",KW_Experiment5A-29-1,59.946,1.0.0.105,2,1444304324,Professional,2.0.10.353,2.0.10.353,10/18/2018,10/18/2018 18:52,14:52:52,2.0.10.248,1,1,1,1,,,,,,,,PracticeProc,BlockList,6,1,Distractor2.bmp,2,0,,0,1,221537,500,,0,0,yellow,500,2,500,,vertical,cyan,Distractor2.bmp,lime,Distractor2.bmp,purple,Distractor2.bmp,blue,Distractor2.bmp,yellow,Distractor2.bmp,red,Target1.bmp,6,1,6,TrialProc,2,PracticeTrialList,1,1,-999999,0,222037,0,1,1407,223444,Target1.bmp,red,1,,,,,,
KW_Experiment5A,29,1,"<?xml version=""1.0""?>\n<Clock xmlns:dt=""urn:schemas-microsoft-com:datatypes""><Description dt:dt=""string"">E-Prime Primary Realtime Clock</Description><StartTime><Timestamp dt:dt=""int"">0</Timestamp><DateUtc dt:dt=""string"">2018-10-18T18:52:51Z</DateUtc></StartTime><FrequencyChanges><FrequencyChange><Frequency dt:dt=""r8"">3215292</Frequency><Timestamp dt:dt=""r8"">6147541858779</Timestamp><Current dt:dt=""r8"">0</Current><DateUtc dt:dt=""string"">2018-10-18T18:52:51Z</DateUtc></FrequencyChange></FrequencyChanges></Clock>\n",KW_Experiment5A-29-1,59.946,1.0.0.105,2,1444304324,Professional,2.0.10.353,2.0.10.353,10/18/2018,10/18/2018 18:52,14:52:52,2.0.10.248,2,2,1,2,,,,,,,,TrainingProc,BlockList,1,1,Distractor2.bmp,2,0,,0,36,242456,600,,0,0,blue,600,3,600,,vertical,blue,Distractor2.bmp,purple,Distractor1.bmp,lime,Distractor2.bmp,yellow,Distractor2.bmp,cyan,Distractor1.bmp,red,Target1.bmp,,,,TrialProc,3,TrainingTrialList,1,1,-999999,0,243056,0,1,2084,245140,Target1.bmp,red,1,,,,12,2,1
KW_Experiment5A,29,1,"<?xml version=""1.0""?>\n<Clock xmlns:dt=""urn:schemas-microsoft-com:datatypes""><Description dt:dt=""string"">E-Prime Primary Realtime Clock</Description><StartTime><Timestamp dt:dt=""int"">0</Timestamp><DateUtc dt:dt=""string"">2018-10-18T18:52:51Z</DateUtc></StartTime><FrequencyChanges><FrequencyChange><Frequency dt:dt=""r8"">3215292</Frequency><Timestamp dt:dt=""r8"">6147541858779</Timestamp><Current dt:dt=""r8"">0</Current><DateUtc dt:dt=""string"">2018-10-18T18:52:51Z</DateUtc></FrequencyChange></FrequencyChanges></Clock>\n",KW_Experiment5A-29-1,59.946,1.0.0.105,2,1444304324,Professional,2.0.10.353,2.0.10.353,10/18/2018,10/18/2018 18:52,14:52:52,2.0.10.248,2,2,1,2,,,,,,,,TrainingProc,BlockList,2,2,Distractor2.bmp,2,0,,0,1,246159,500,,0,0,purple,500,2,500,,horizontal,purple,Distractor1.bmp,lime,Distractor1.bmp,yellow,Distractor1.bmp,red,Target2.bmp,blue,Distractor2.bmp,cyan,Distractor1.bmp,,,,TrialProc,5,TrainingTrialList,1,2,-999999,0,246659,0,2,1481,248140,Target2.bmp,red,2,,,,10,2,2
KW_Experiment5A,29,1,"<?xml version=""1.0""?>\n<Clock xmlns:dt=""urn:schemas-microsoft-com:datatypes""><Description dt:dt=""string"">E-Prime Primary Realtime Clock</Description><StartTime><Timestamp dt:dt=""int"">0</Timestamp><DateUtc dt:dt=""string"">2018-10-18T18:52:51Z</DateUtc></StartTime><FrequencyChanges><FrequencyChange><Frequency dt:dt=""r8"">3215292</Frequency><Timestamp dt:dt=""r8"">6147541858779</Timestamp><Current dt:dt=""r8"">0</Current><DateUtc dt:dt=""string"">2018-10-18T18:52:51Z</DateUtc></FrequencyChange></FrequencyChanges></Clock>\n",KW_Experiment5A-29-1,59.946,1.0.0.105,2,1444304324,Professional,2.0.10.353,2.0.10.353,10/18/2018,10/18/2018 18:52,14:52:52,2.0.10.248,2,2,1,2,,,,,,,,TrainingProc,BlockList,3,2,Distractor1.bmp,1,0,,0,1,249162,500,,0,0,lime,500,2,500,,horizontal,lime,Distractor2.bmp,purple,Distractor1.bmp,yellow,Distractor1.bmp,blue,Distractor2.bmp,red,Target2.bmp,cyan,Distractor1.bmp,,,,TrialProc,6,TrainingTrialList,1,2,-999999,0,249662,0,2,1078,250740,Target2.bmp,red,2,,,,11,2,3
KW_Experiment5A,29,1,"<?xml version=""1.0""?>\n<Clock xmlns:dt=""urn:schemas-microsoft-com:datatypes""><Description dt:dt=""string"">E-Prime Primary Realtime Clock</Description><StartTime><Timestamp dt:dt=""int"">0</Timestamp><DateUtc dt:dt=""string"">2018-10-18T18:52:51Z</DateUtc></StartTime><FrequencyChanges><FrequencyChange><Frequency dt:dt=""r8"">3215292</Frequency><Timestamp dt:dt=""r8"">6147541858779</Timestamp><Current dt:dt=""r8"">0</Current><DateUtc dt:dt=""string"">2018-10-18T18:52:51Z</DateUtc></FrequencyChange></FrequencyChanges></Clock>\n",KW_Experiment5A-29-1,59.946,1.0.0.105,2,1444304324,Professional,2.0.10.353,2.0.10.353,10/18/2018,10/18/2018 18:52,14:52:52,2.0.10.248,2,2,1,2,,,,,,,,TrainingProc,BlockList,4,2,Distractor1.bmp,1,0,,0,1,251764,601,,0,0,cyan,600,3,600,,horizontal,red,Target2.bmp,blue,Distractor1.bmp,purple,Distractor2.bmp,lime,Distractor1.bmp,yellow,Distractor2.bmp,cyan,Distractor2.bmp,,,,TrialProc,4,TrainingTrialList,1,2,-999999,1,252365,0,2,735,253100,Target2.bmp,red,2,,,,7,2,4
KW_Experiment5A,29,1,"<?xml version=""1.0""?>\n<Clock xmlns:dt=""urn:schemas-microsoft-com:datatypes""><Description dt:dt=""string"">E-Prime Primary Realtime Clock</Description><StartTime><Timestamp dt:dt=""int"">0</Timestamp><DateUtc dt:dt=""string"">2018-10-18T18:52:51Z</DateUtc></StartTime><FrequencyChanges><FrequencyChange><Frequency dt:dt=""r8"">3215292</Frequency><Timestamp dt:dt=""r8"">6147541858779</Timestamp><Current dt:dt=""r8"">0</Current><DateUtc dt:dt=""string"">2018-10-18T18:52:51Z</DateUtc></FrequencyChange></FrequencyChanges></Clock>\n",KW_Experiment5A-29-1,59.946,1.0.0.105,2,1444304324,Professional,2.0.10.353,2.0.10.353,10/18/2018,10/18/2018 18:52,14:52:52,2.0.10.248,2,2,1,2,,,,,,,,TrainingProc,BlockList,5,2,Distractor2.bmp,2,0,,0,1,254116,601,,0,0,lime,600,3,600,,horizontal,lime,Distractor2.bmp,cyan,Distractor2.bmp,red,Target2.bmp,yellow,Distractor2.bmp,blue,Distractor2.bmp,purple,Distractor2.bmp,,,,TrialProc,6,TrainingTrialList,1,2,-999999,1,254717,0,2,719,255436,Target2.bmp,red,2,,,,9,2,5
KW_Experiment5A,29,1,"<?xml version=""1.0""?>\n<Clock xmlns:dt=""urn:schemas-microsoft-com:datatypes""><Description dt:dt=""string"">E-Prime Primary Realtime Clock</Description><StartTime><Timestamp dt:dt=""int"">0</Timestamp><DateUtc dt:dt=""string"">2018-10-18T18:52:51Z</DateUtc></StartTime><FrequencyChanges><FrequencyChange><Frequency dt:dt=""r8"">3215292</Frequency><Timestamp dt:dt=""r8"">6147541858779</Timestamp><Current dt:dt=""r8"">0</Current><DateUtc dt:dt=""string"">2018-10-18T18:52:51Z</DateUtc></FrequencyChange></FrequencyChanges></Clock>\n",KW_Experiment5A-29-1,59.946,1.0.0.105,2,1444304324,Professional,2.0.10.353,2.0.10.353,10/18/2018,10/18/2018 18:52,14:52:52,2.0.10.248,2,2,1,2,,,,,,,,TrainingProc,BlockList,6,1,Distractor2.bmp,2,0,,0,1,256452,400,,0,0,lime,400,1,400,,vertical,lime,Distractor1.bmp,purple,Distractor2.bmp,red,Target1.bmp,yellow,Distractor2.bmp,cyan,Distractor2.bmp,blue,Distractor1.bmp,,,,TrialProc,6,TrainingTrialList,1,1,-999999,0,256852,0,1,1552,258404,Target1.bmp,red,1,,,,9,2,6
KW_Experiment5A,29,1,"<?xml version=""1.0""?>\n<Clock xmlns:dt=""urn:schemas-microsoft-com:datatypes""><Description dt:dt=""string"">E-Prime Primary Realtime Clock</Description><StartTime><Timestamp dt:dt=""int"">0</Timestamp><DateUtc dt:dt=""string"">2018-10-18T18:52:51Z</DateUtc></StartTime><FrequencyChanges><FrequencyChange><Frequency dt:dt=""r8"">3215292</Frequency><Timestamp dt:dt=""r8"">6147541858779</Timestamp><Current dt:dt=""r8"">0</Current><DateUtc dt:dt=""string"">2018-10-18T18:52:51Z</DateUtc></FrequencyChange></FrequencyChanges></Clock>\n",KW_Experiment5A-29-1,59.946,1.0.0.105,2,1444304324,Professional,2.0.10.353,2.0.10.353,10/18/2018,10/18/2018 18:52,14:52:52,2.0.10.248,2,2,1,2,,,,,,,,TrainingProc,BlockList,7,2,Distractor2.bmp,2,0,,0,1,259421,601,,0,0,yellow,600,3,600,,horizontal,yellow,Distractor2.bmp,purple,Distractor2.bmp,cyan,Distractor2.bmp,lime,Distractor2.bmp,red,Target2.bmp,blue,Distractor2.bmp,,,,TrialProc,2,TrainingTrialList,1,2,-999999,1,260022,0,2,605,260627,Target2.bmp,red,2,,,,11,2,7
KW_Experiment5A,29,1,"<?xml version=""1.0""?>\n<Clock xmlns:dt=""urn:schemas-microsoft-com:datatypes""><Description dt:dt=""string"">E-Prime Primary Realtime Clock</Description><StartTime><Timestamp dt:dt=""int"">0</Timestamp><DateUtc dt:dt=""string"">2018-10-18T18:52:51Z</DateUtc></StartTime><FrequencyChanges><FrequencyChange><Frequency dt:dt=""r8"">3215292</Frequency><Timestamp dt:dt=""r8"">6147541858779</Timestamp><Current dt:dt=""r8"">0</Current><DateUtc dt:dt=""string"">2018-10-18T18:52:51Z</DateUtc></FrequencyChange></FrequencyChanges></Clock>\n",KW_Experiment5A-29-1,59.946,1.0.0.105,2,1444304324,Professional,2.0.10.353,2.0.10.353,10/18/2018,10/18/2018 18:52,14:52:52,2.0.10.248,2,2,1,2,,,,,,,,TrainingProc,BlockList,8,1,Distractor2.bmp,2,0,,0,1,261640,400,,0,0,purple,400,1,400,,vertical,purple,Distractor2.bmp,lime,Distractor2.bmp,red,Target1.bmp,cyan,Distractor2.bmp,blue,Distractor2.bmp,yellow,Distractor2.bmp,,,,TrialProc,5,TrainingTrialList,1,1,-999999,0,262040,0,1,923,262963,Target1.bmp,red,1,,,,9,2,8
KW_Experiment5A,29,1,"<?xml version=""1.0""?>\n<Clock xmlns:dt=""urn:schemas-microsoft-com:datatypes""><Description dt:dt=""string"">E-Prime Primary Realtime Clock</Description><StartTime><Timestamp dt:dt=""int"">0</Timestamp><DateUtc dt:dt=""string"">2018-10-18T18:52:51Z</DateUtc></StartTime><FrequencyChanges><FrequencyChange><Frequency dt:dt=""r8"">3215292</Frequency><Timestamp dt:dt=""r8"">6147541858779</Timestamp><Current dt:dt=""r8"">0</Current><DateUtc dt:dt=""string"">2018-10-18T18:52:51Z</DateUtc></FrequencyChange></FrequencyChanges></Clock>\n",KW_Experiment5A-29-1,59.946,1.0.0.105,2,1444304324,Professional,2.0.10.353,2.0.10.353,10/18/2018,10/18/2018 18:52,14:52:52,2.0.10.248,2,2,1,2,,,,,,,,TrainingProc,BlockList,9,1,Distractor1.bmp,1,0,,0,1,263975,501,,0,0,blue,500,2,500,,vertical,blue,Distractor2.bmp,red,Target1.bmp,cyan,Distractor1.bmp,purple,Distractor2.bmp,yellow,Distractor2.bmp,lime,Distractor2.bmp,,,,TrialProc,3,TrainingTrialList,1,1,-999999,1,264476,0,1,1119,265595,Target1.bmp,red,1,,,,8,2,9
KW_Experiment5A,29,1,"<?xml version=""1.0""?>\n<Clock xmlns:dt=""urn:schemas-microsoft-com:datatypes""><Description dt:dt=""string"">E-Prime Primary Realtime Clock</Description><StartTime><Timestamp dt:dt=""int"">0</Timestamp><DateUtc dt:dt=""string"">2018-10-18T18:52:51Z</DateUtc></StartTime><FrequencyChanges><FrequencyChange><Frequency dt:dt=""r8"">3215292</Frequency><Timestamp dt:dt=""r8"">6147541858779</Timestamp><Current dt:dt=""r8"">0</Current><DateUtc dt:dt=""string"">2018-10-18T18:52:51Z</DateUtc></FrequencyChange></FrequencyChanges></Clock>\n",KW_Experiment5A-29-1,59.946,1.0.0.105,2,1444304324,Professional,2.0.10.353,2.0.10.353,10/18/2018,10/18/2018 18:52,14:52:52,2.0.10.248,2,2,1,2,,,,,,,,TrainingProc,BlockList,10,2,Distractor1.bmp,1,0,,0,1,266611,500,,0,0,red,500,2,500,1,horizontal,red,Distractor1.bmp,lime,Target2.bmp,yellow,Distractor1.bmp,blue,Distractor1.bmp,purple,Distractor1.bmp,cyan,Distractor1.bmp,,,,TrialProc,,TrainingTrialList,1,2,-999999,0,267111,0,2,740,267851,Target2.bmp,lime,2,,,,2,2,10
KW_Experiment5A,29,1,"<?xml version=""1.0""?>\n<Clock xmlns:dt=""urn:schemas-microsoft-com:datatypes""><Description dt:dt=""string"">E-Prime Primary Realtime Clock</Description><StartTime><Timestamp dt:dt=""int"">0</Timestamp><DateUtc dt:dt=""string"">2018-10-18T18:52:51Z</DateUtc></StartTime><FrequencyChanges><FrequencyChange><Frequency dt:dt=""r8"">3215292</Frequency><Timestamp dt:dt=""r8"">6147541858779</Timestamp><Current dt:dt=""r8"">0</Current><DateUtc dt:dt=""string"">2018-10-18T18:52:51Z</DateUtc></FrequencyChange></FrequencyChanges></Clock>\n",KW_Experiment5A-29-1,59.946,1.0.0.105,2,1444304324,Professional,2.0.10.353,2.0.10.353,10/18/2018,10/18/2018 18:52,14:52:52,2.0.10.248,2,2,1,2,,,,,,,,TrainingProc,BlockList,11,2,Distractor1.bmp,1,0,,0,1,268863,600,,0,0,cyan,600,3,600,,horizontal,cyan,Distractor1.bmp,yellow,Distractor2.bmp,blue,Distractor2.bmp,lime,Distractor2.bmp,purple,Distractor1.bmp,red,Target2.bmp,,,,TrialProc,4,TrainingTrialList,1,2,-999999,0,269463,0,2,996,270459,Target2.bmp,red,2,,,,12,2,11
KW_Experiment5A,29,1,"<?xml version=""1.0""?>\n<Clock xmlns:dt=""urn:schemas-microsoft-com:datatypes""><Description dt:dt=""string"">E-Prime Primary Realtime Clock</Description><StartTime><Timestamp dt:dt=""int"">0</Timestamp><DateUtc dt:dt=""string"">2018-10-18T18:52:51Z</DateUtc></StartTime><FrequencyChanges><FrequencyChange><Frequency dt:dt=""r8"">3215292</Frequency><Timestamp dt:dt=""r8"">6147541858779</Timestamp><Current dt:dt=""r8"">0</Current><DateUtc dt:dt=""string"">2018-10-18T18:52:51Z</DateUtc></FrequencyChange></FrequencyChanges></Clock>\n",KW_Experiment5A-29-1,59.946,1.0.0.105,2,1444304324,Professional,2.0.10.353,2.0.10.353,10/18/2018,10/18/2018 18:52,14:52:52,2.0.10.248,2,2,1,2,,,,,,,,TrainingProc,BlockList,12,2,Distractor1.bmp,1,0,,0,1,271482,400,,0,0,purple,400,1,400,5,horizontal,purple,Distractor1.bmp,blue,Distractor1.bmp,red,Distractor2.bmp,lime,Target2.bmp,yellow,Distractor1.bmp,cyan,Distractor1.bmp,,,,TrialProc,,TrainingTrialList,1,2,-999999,0,271882,0,2,1289,273171,Target2.bmp,lime,2,,,,4,2,12
KW_Experiment5A,29,1,"<?xml version=""1.0""?>\n<Clock xmlns:dt=""urn:schemas-microsoft-com:datatypes""><Description dt:dt=""string"">E-Prime Primary Realtime Clock</Description><StartTime><Timestamp dt:dt=""int"">0</Timestamp><DateUtc dt:dt=""string"">2018-10-18T18:52:51Z</DateUtc></StartTime><FrequencyChanges><FrequencyChange><Frequency dt:dt=""r8"">3215292</Frequency><Timestamp dt:dt=""r8"">6147541858779</Timestamp><Current dt:dt=""r8"">0</Current><DateUtc dt:dt=""string"">2018-10-18T18:52:51Z</DateUtc></FrequencyChange></FrequencyChanges></Clock>\n",KW_Experiment5A-29-1,59.946,1.0.0.105,2,1444304324,Professional,2.0.10.353,2.0.10.353,10/18/2018,10/18/2018 18:52,14:52:52,2.0.10.248,2,2,1,2,,,,,,,,TrainingProc,BlockList,13,2,Distractor2.bmp,2,0,,0,0,274184,401,,0,0,lime,400,1,400,,horizontal,lime,Distractor2.bmp,blue,Distractor2.bmp,cyan,Distractor2.bmp,purple,Distractor1.bmp,red,Target2.bmp,yellow,Distractor2.bmp,,,,TrialProc,6,TrainingTrialList,1,2,-999999,1,274585,0,2,698,275283,Target2.bmp,red,2,,,,11,2,13
KW_Experiment5A,29,1,"<?xml version=""1.0""?>\n<Clock xmlns:dt=""urn:schemas-microsoft-com:datatypes""><Description dt:dt=""string"">E-Prime Primary Realtime Clock</Description><StartTime><Timestamp dt:dt=""int"">0</Timestamp><DateUtc dt:dt=""string"">2018-10-18T18:52:51Z</DateUtc></StartTime><FrequencyChanges><FrequencyChange><Frequency dt:dt=""r8"">3215292</Frequency><Timestamp dt:dt=""r8"">6147541858779</Timestamp><Current dt:dt=""r8"">0</Current><DateUtc dt:dt=""string"">2018-10-18T18:52:51Z</DateUtc></FrequencyChange></FrequencyChanges></Clock>\n",KW_Experiment5A-29-1,59.946,1.0.0.105,2,1444304324,Professional,2.0.10.353,2.0.10.353,10/18/2018,10/18/2018 18:52,14:52:52,2.0.10.248,2,2,1,2,,,,,,,,TrainingProc,BlockList,14,1,Distractor1.bmp,1,0,,0,1,276303,500,,0,0,purple,500,2,500,5,vertical,purple,Distractor2.bmp,yellow,Distractor2.bmp,lime,Target1.bmp,cyan,Distractor1.bmp,red,Distractor2.bmp,blue,Distractor2.bmp,,,,TrialProc,,TrainingTrialList,1,1,-999999,0,276803,0,1,800,277603,Target1.bmp,lime,1,,,,3,2,14
KW_Experiment5A,29,1,"<?xml version=""1.0""?>\n<Clock xmlns:dt=""urn:schemas-microsoft-com:datatypes""><Description dt:dt=""string"">E-Prime Primary Realtime Clock</Description><StartTime><Timestamp dt:dt=""int"">0</Timestamp><DateUtc dt:dt=""string"">2018-10-18T18:52:51Z</DateUtc></StartTime><FrequencyChanges><FrequencyChange><Frequency dt:dt=""r8"">3215292</Frequency><Timestamp dt:dt=""r8"">6147541858779</Timestamp><Current dt:dt=""r8"">0</Current><DateUtc dt:dt=""string"">2018-10-18T18:52:51Z</DateUtc></FrequencyChange></FrequencyChanges></Clock>\n",KW_Experiment5A-29-1,59.946,1.0.0.105,2,1444304324,Professional,2.0.10.353,2.0.10.353,10/18/2018,10/18/2018 18:52,14:52:52,2.0.10.248,2,2,1,2,,,,,,,,TrainingProc,BlockList,15,1,Distractor2.bmp,2,0,,0,1,278622,600,,0,0,purple,600,3,600,5,vertical,purple,Distractor2.bmp,red,Distractor1.bmp,blue,Distractor2.bmp,cyan,Distractor2.bmp,yellow,Distractor1.bmp,lime,Target1.bmp,,,,TrialProc,,TrainingTrialList,1,1,-999999,0,279222,0,1,637,279859,Target1.bmp,lime,1,,,,6,2,15
KW_Experiment5A,29,1,"<?xml version=""1.0""?>\n<Clock xmlns:dt=""urn:schemas-microsoft-com:datatypes""><Description dt:dt=""string"">E-Prime Primary Realtime Clock</Description><StartTime><Timestamp dt:dt=""int"">0</Timestamp><DateUtc dt:dt=""string"">2018-10-18T18:52:51Z</DateUtc></StartTime><FrequencyChanges><FrequencyChange><Frequency dt:dt=""r8"">3215292</Frequency><Timestamp dt:dt=""r8"">6147541858779</Timestamp><Current dt:dt=""r8"">0</Current><DateUtc dt:dt=""string"">2018-10-18T18:52:51Z</DateUtc></FrequencyChange></FrequencyChanges></Clock>\n",KW_Experiment5A-29-1,59.946,1.0.0.105,2,1444304324,Professional,2.0.10.353,2.0.10.353,10/18/2018,10/18/2018 18:52,14:52:52,2.0.10.248,2,2,1,2,,,,,,,,TrainingProc,BlockList,16,2,Distractor1.bmp,1,0,,0,1,280874,600,,0,0,yellow,600,3,600,2,horizontal,lime,Target2.bmp,yellow,Distractor1.bmp,blue,Distractor2.bmp,red,Distractor1.bmp,cyan,Distractor1.bmp,purple,Distractor2.bmp,,,,TrialProc,,TrainingTrialList,1,2,-999999,0,281474,0,2,561,282035,Target2.bmp,lime,2,,,,1,2,16
KW_Experiment5A,29,1,"<?xml version=""1.0""?>\n<Clock xmlns:dt=""urn:schemas-microsoft-com:datatypes""><Description dt:dt=""string"">E-Prime Primary Realtime Clock</Description><StartTime><Timestamp dt:dt=""int"">0</Timestamp><DateUtc dt:dt=""string"">2018-10-18T18:52:51Z</DateUtc></StartTime><FrequencyChanges><FrequencyChange><Frequency dt:dt=""r8"">3215292</Frequency><Timestamp dt:dt=""r8"">6147541858779</Timestamp><Current dt:dt=""r8"">0</Current><DateUtc dt:dt=""string"">2018-10-18T18:52:51Z</DateUtc></FrequencyChange></FrequencyChanges></Clock>\n",KW_Experiment5A-29-1,59.946,1.0.0.105,2,1444304324,Professional,2.0.10.353,2.0.10.353,10/18/2018,10/18/2018 18:52,14:52:52,2.0.10.248,2,2,1,2,,,,,,,,TrainingProc,BlockList,17,1,Distractor2.bmp,2,0,,0,1,283059,601,,0,0,cyan,600,3,600,,vertical,cyan,Distractor1.bmp,red,Target1.bmp,lime,Distractor2.bmp,purple,Distractor1.bmp,blue,Distractor1.bmp,yellow,Distractor2.bmp,,,,TrialProc,4,TrainingTrialList,0,1,-999999,1,283660,0,2,1199,284859,Target1.bmp,red,1,,,,8,2,17
KW_Experiment5A,29,1,"<?xml version=""1.0""?>\n<Clock xmlns:dt=""urn:schemas-microsoft-com:datatypes""><Description dt:dt=""string"">E-Prime Primary Realtime Clock</Description><StartTime><Timestamp dt:dt=""int"">0</Timestamp><DateUtc dt:dt=""string"">2018-10-18T18:52:51Z</DateUtc></StartTime><FrequencyChanges><FrequencyChange><Frequency dt:dt=""r8"">3215292</Frequency><Timestamp dt:dt=""r8"">6147541858779</Timestamp><Current dt:dt=""r8"">0</Current><DateUtc dt:dt=""string"">2018-10-18T18:52:51Z</DateUtc></FrequencyChange></FrequencyChanges></Clock>\n",KW_Experiment5A-29-1,59.946,1.0.0.105,2,1444304324,Professional,2.0.10.353,2.0.10.353,10/18/2018,10/18/2018 18:52,14:52:52,2.0.10.248,2,2,1,2,,,,,,,,TrainingProc,BlockList,18,1,Distractor1.bmp,1,0,,0,1,285878,601,,0,0,blue,600,3,600,3,vertical,blue,Distractor1.bmp,red,Distractor2.bmp,purple,Distractor2.bmp,cyan,Distractor1.bmp,lime,Target1.bmp,yellow,Distractor1.bmp,,,,TrialProc,,TrainingTrialList,1,1,-999999,1,286479,0,1,692,287171,Target1.bmp,lime,1,,,,5,2,18
KW_Experiment5A,29,1,"<?xml version=""1.0""?>\n<Clock xmlns:dt=""urn:schemas-microsoft-com:datatypes""><Description dt:dt=""string"">E-Prime Primary Realtime Clock</Description><StartTime><Timestamp dt:dt=""int"">0</Timestamp><DateUtc dt:dt=""string"">2018-10-18T18:52:51Z</DateUtc></StartTime><FrequencyChanges><FrequencyChange><Frequency dt:dt=""r8"">3215292</Frequency><Timestamp dt:dt=""r8"">6147541858779</Timestamp><Current dt:dt=""r8"">0</Current><DateUtc dt:dt=""string"">2018-10-18T18:52:51Z</DateUtc></FrequencyChange></FrequencyChanges></Clock>\n",KW_Experiment5A-29-1,59.946,1.0.0.105,2,1444304324,Professional,2.0.10.353,2.0.10.353,10/18/2018,10/18/2018 18:52,14:52:52,2.0.10.248,2,2,1,2,,,,,,,,TrainingProc,BlockList,19,1,Distractor2.bmp,2,0,,1,0,288180,401,,0,0,yellow,400,1,400,,vertical,yellow,Distractor2.bmp,blue,Distractor1.bmp,purple,Distractor1.bmp,red,Target1.bmp,cyan,Distractor2.bmp,lime,Distractor1.bmp,,,,TrialProc,2,TrainingTrialList,1,1,-999999,1,288581,0,1,766,289347,Target1.bmp,red,1,,,,10,2,19
KW_Experiment5A,29,1,"<?xml version=""1.0""?>\n<Clock xmlns:dt=""urn:schemas-microsoft-com:datatypes""><Description dt:dt=""string"">E-Prime Primary Realtime Clock</Description><StartTime><Timestamp dt:dt=""int"">0</Timestamp><DateUtc dt:dt=""string"">2018-10-18T18:52:51Z</DateUtc></StartTime><FrequencyChanges><FrequencyChange><Frequency dt:dt=""r8"">3215292</Frequency><Timestamp dt:dt=""r8"">6147541858779</Timestamp><Current dt:dt=""r8"">0</Current><DateUtc dt:dt=""string"">2018-10-18T18:52:51Z</DateUtc></FrequencyChange></FrequencyChanges></Clock>\n",KW_Experiment5A-29-1,59.946,1.0.0.105,2,1444304324,Professional,2.0.10.353,2.0.10.353,10/18/2018,10/18/2018 18:52,14:52:52,2.0.10.248,2,2,1,2,,,,,,,,TrainingProc,BlockList,20,2,Distractor1.bmp,1,0,,0,1,290366,400,,0,0,blue,400,1,400,,horizontal,red,Target2.bmp,cyan,Distractor1.bmp,lime,Distractor1.bmp,yellow,Distractor1.bmp,purple,Distractor2.bmp,blue,Distractor1.bmp,,,,TrialProc,3,TrainingTrialList,1,2,-999999,0,290766,0,2,509,291275,Target2.bmp,red,2,,,,7,2,20
KW_Experiment5A,29,1,"<?xml version=""1.0""?>\n<Clock xmlns:dt=""urn:schemas-microsoft-com:datatypes""><Description dt:dt=""string"">E-Prime Primary Realtime Clock</Description><StartTime><Timestamp dt:dt=""int"">0</Timestamp><DateUtc dt:dt=""string"">2018-10-18T18:52:51Z</DateUtc></StartTime><FrequencyChanges><FrequencyChange><Frequency dt:dt=""r8"">3215292</Frequency><Timestamp dt:dt=""r8"">6147541858779</Timestamp><Current dt:dt=""r8"">0</Current><DateUtc dt:dt=""string"">2018-10-18T18:52:51Z</DateUtc></FrequencyChange></FrequencyChanges></Clock>\n",KW_Experiment5A-29-1,59.946,1.0.0.105,2,1444304324,Professional,2.0.10.353,2.0.10.353,10/18/2018,10/18/2018 18:52,14:52:52,2.0.10.248,2,2,1,2,,,,,,,,TrainingProc,BlockList,21,1,Distractor1.bmp,1,0,,0,1,292284,601,,0,0,yellow,600,3,600,,vertical,yellow,Distractor1.bmp,blue,Distractor2.bmp,lime,Distractor1.bmp,purple,Distractor1.bmp,cyan,Distractor2.bmp,red,Target1.bmp,,,,TrialProc,2,TrainingTrialList,1,1,-999999,1,292885,0,1,862,293747,Target1.bmp,red,1,,,,12,2,21
KW_Experiment5A,29,1,"<?xml version=""1.0""?>\n<Clock xmlns:dt=""urn:schemas-microsoft-com:datatypes""><Description dt:dt=""string"">E-Prime Primary Realtime Clock</Description><StartTime><Timestamp dt:dt=""int"">0</Timestamp><DateUtc dt:dt=""string"">2018-10-18T18:52:51Z</DateUtc></StartTime><FrequencyChanges><FrequencyChange><Frequency dt:dt=""r8"">3215292</Frequency><Timestamp dt:dt=""r8"">6147541858779</Timestamp><Current dt:dt=""r8"">0</Current><DateUtc dt:dt=""string"">2018-10-18T18:52:51Z</DateUtc></FrequencyChange></FrequencyChanges></Clock>\n",KW_Experiment5A-29-1,59.946,1.0.0.105,2,1444304324,Professional,2.0.10.353,2.0.10.353,10/18/2018,10/18/2018 18:52,14:52:52,2.0.10.248,2,2,1,2,,,,,,,,TrainingProc,BlockList,22,2,Distractor1.bmp,1,0,,0,1,294770,600,,0,0,cyan,600,3,600,,horizontal,cyan,Distractor2.bmp,red,Target2.bmp,lime,Distractor1.bmp,blue,Distractor1.bmp,yellow,Distractor2.bmp,purple,Distractor1.bmp,,,,TrialProc,4,TrainingTrialList,1,2,-999999,0,295370,0,2,977,296347,Target2.bmp,red,2,,,,8,2,22
KW_Experiment5A,29,1,"<?xml version=""1.0""?>\n<Clock xmlns:dt=""urn:schemas-microsoft-com:datatypes""><Description dt:dt=""string"">E-Prime Primary Realtime Clock</Description><StartTime><Timestamp dt:dt=""int"">0</Timestamp><DateUtc dt:dt=""string"">2018-10-18T18:52:51Z</DateUtc></StartTime><FrequencyChanges><FrequencyChange><Frequency dt:dt=""r8"">3215292</Frequency><Timestamp dt:dt=""r8"">6147541858779</Timestamp><Current dt:dt=""r8"">0</Current><DateUtc dt:dt=""string"">2018-10-18T18:52:51Z</DateUtc></FrequencyChange></FrequencyChanges></Clock>\n",KW_Experiment5A-29-1,59.946,1.0.0.105,2,1444304324,Professional,2.0.10.353,2.0.10.353,10/18/2018,10/18/2018 18:52,14:52:52,2.0.10.248,2,2,1,2,,,,,,,,TrainingProc,BlockList,23,2,Distractor1.bmp,1,0,,0,1,297372,501,,0,0,lime,500,2,500,,horizontal,red,Target2.bmp,blue,Distractor1.bmp,yellow,Distractor2.bmp,cyan,Distractor1.bmp,purple,Distractor2.bmp,lime,Distractor1.bmp,,,,TrialProc,6,TrainingTrialList,1,2,-999999,1,297873,0,2,1082,298955,Target2.bmp,red,2,,,,7,2,23
KW_Experiment5A,29,1,"<?xml version=""1.0""?>\n<Clock xmlns:dt=""urn:schemas-microsoft-com:datatypes""><Description dt:dt=""string"">E-Prime Primary Realtime Clock</Description><StartTime><Timestamp dt:dt=""int"">0</Timestamp><DateUtc dt:dt=""string"">2018-10-18T18:52:51Z</DateUtc></StartTime><FrequencyChanges><FrequencyChange><Frequency dt:dt=""r8"">3215292</Frequency><Timestamp dt:dt=""r8"">6147541858779</Timestamp><Current dt:dt=""r8"">0</Current><DateUtc dt:dt=""string"">2018-10-18T18:52:51Z</DateUtc></FrequencyChange></FrequencyChanges></Clock>\n",KW_Experiment5A-29-1,59.946,1.0.0.105,2,1444304324,Professional,2.0.10.353,2.0.10.353,10/18/2018,10/18/2018 18:52,14:52:52,2.0.10.248,2,2,1,2,,,,,,,,TrainingProc,BlockList,24,1,Distractor1.bmp,1,0,,0,1,299975,500,,0,0,yellow,500,2,500,,vertical,yellow,Distractor2.bmp,blue,Distractor1.bmp,purple,Distractor2.bmp,red,Target1.bmp,lime,Distractor1.bmp,cyan,Distractor1.bmp,,,,TrialProc,2,TrainingTrialList,1,1,-999999,0,300475,0,1,576,301051,Target1.bmp,red,1,,,,10,2,24
KW_Experiment5A,29,1,"<?xml version=""1.0""?>\n<Clock xmlns:dt=""urn:schemas-microsoft-com:datatypes""><Description dt:dt=""string"">E-Prime Primary Realtime Clock</Description><StartTime><Timestamp dt:dt=""int"">0</Timestamp><DateUtc dt:dt=""string"">2018-10-18T18:52:51Z</DateUtc></StartTime><FrequencyChanges><FrequencyChange><Frequency dt:dt=""r8"">3215292</Frequency><Timestamp dt:dt=""r8"">6147541858779</Timestamp><Current dt:dt=""r8"">0</Current><DateUtc dt:dt=""string"">2018-10-18T18:52:51Z</DateUtc></FrequencyChange></FrequencyChanges></Clock>\n",KW_Experiment5A-29-1,59.946,1.0.0.105,2,1444304324,Professional,2.0.10.353,2.0.10.353,10/18/2018,10/18/2018 18:52,14:52:52,2.0.10.248,2,2,1,2,,,,,,,,TrainingProc,BlockList,25,2,Distractor2.bmp,2,0,,1,0,302076,501,,0,0,blue,500,2,500,,horizontal,blue,Distractor1.bmp,lime,Distractor1.bmp,purple,Distractor1.bmp,red,Target2.bmp,yellow,Distractor2.bmp,cyan,Distractor2.bmp,,,,TrialProc,3,TrainingTrialList,1,2,-999999,1,302577,0,2,625,303202,Target2.bmp,red,2,,,,10,3,25
KW_Experiment5A,29,1,"<?xml version=""1.0""?>\n<Clock xmlns:dt=""urn:schemas-microsoft-com:datatypes""><Description dt:dt=""string"">E-Prime Primary Realtime Clock</Description><StartTime><Timestamp dt:dt=""int"">0</Timestamp><DateUtc dt:dt=""string"">2018-10-18T18:52:51Z</DateUtc></StartTime><FrequencyChanges><FrequencyChange><Frequency dt:dt=""r8"">3215292</Frequency><Timestamp dt:dt=""r8"">6147541858779</Timestamp><Current dt:dt=""r8"">0</Current><DateUtc dt:dt=""string"">2018-10-18T18:52:51Z</DateUtc></FrequencyChange></FrequencyChanges></Clock>\n",KW_Experiment5A-29-1,59.946,1.0.0.105,2,1444304324,Professional,2.0.10.353,2.0.10.353,10/18/2018,10/18/2018 18:52,14:52:52,2.0.10.248,2,2,1,2,,,,,,,,TrainingProc,BlockList,26,1,Distractor1.bmp,1,0,,0,1,304228,501,,0,0,blue,500,2,500,3,vertical,blue,Distractor2.bmp,red,Distractor1.bmp,lime,Target1.bmp,purple,Distractor1.bmp,yellow,Distractor2.bmp,cyan,Distractor1.bmp,,,,TrialProc,,TrainingTrialList,1,1,-999999,1,304729,0,1,577,305306,Target1.bmp,lime,1,,,,3,3,26
KW_Experiment5A,29,1,"<?xml version=""1.0""?>\n<Clock xmlns:dt=""urn:schemas-microsoft-com:datatypes""><Description dt:dt=""string"">E-Prime Primary Realtime Clock</Description><StartTime><Timestamp dt:dt=""int"">0</Timestamp><DateUtc dt:dt=""string"">2018-10-18T18:52:51Z</DateUtc></StartTime><FrequencyChanges><FrequencyChange><Frequency dt:dt=""r8"">3215292</Frequency><Timestamp dt:dt=""r8"">6147541858779</Timestamp><Current dt:dt=""r8"">0</Current><DateUtc dt:dt=""string"">2018-10-18T18:52:51Z</DateUtc></FrequencyChange></FrequencyChanges></Clock>\n",KW_Experiment5A-29-1,59.946,1.0.0.105,2,1444304324,Professional,2.0.10.353,2.0.10.353,10/18/2018,10/18/2018 18:52,14:52:52,2.0.10.248,2,2,1,2,,,,,,,,TrainingProc,BlockList,27,2,Distractor1.bmp,1,0,,0,1,306330,501,,0,0,yellow,500,2,500,2,horizontal,yellow,Distractor1.bmp,cyan,Distractor2.bmp,blue,Distractor1.bmp,purple,Distractor1.bmp,lime,Target2.bmp,red,Distractor1.bmp,,,,TrialProc,,TrainingTrialList,1,2,-999999,1,306831,0,2,843,307674,Target2.bmp,lime,2,,,,5,3,27
KW_Experiment5A,29,1,"<?xml version=""1.0""?>\n<Clock xmlns:dt=""urn:schemas-microsoft-com:datatypes""><Description dt:dt=""string"">E-Prime Primary Realtime Clock</Description><StartTime><Timestamp dt:dt=""int"">0</Timestamp><DateUtc dt:dt=""string"">2018-10-18T18:52:51Z</DateUtc></StartTime><FrequencyChanges><FrequencyChange><Frequency dt:dt=""r8"">3215292</Frequency><Timestamp dt:dt=""r8"">6147541858779</Timestamp><Current dt:dt=""r8"">0</Current><DateUtc dt:dt=""string"">2018-10-18T18:52:51Z</DateUtc></FrequencyChange></FrequencyChanges></Clock>\n",KW_Experiment5A-29-1,59.946,1.0.0.105,2,1444304324,Professional,2.0.10.353,2.0.10.353,10/18/2018,10/18/2018 18:52,14:52:52,2.0.10.248,2,2,1,2,,,,,,,,TrainingProc,BlockList,28,1,Distractor1.bmp,1,0,,0,1,308699,501,,0,0,purple,500,2,500,,vertical,purple,Distractor2.bmp,cyan,Distractor2.bmp,lime,Distractor2.bmp,yellow,Distractor1.bmp,red,Target1.bmp,blue,Distractor1.bmp,,,,TrialProc,5,TrainingTrialList,0,1,-999999,1,309200,0,2,530,309730,Target1.bmp,red,1,,,,11,3,28
KW_Experiment5A,29,1,"<?xml version=""1.0""?>\n<Clock xmlns:dt=""urn:schemas-microsoft-com:datatypes""><Description dt:dt=""string"">E-Prime Primary Realtime Clock</Description><StartTime><Timestamp dt:dt=""int"">0</Timestamp><DateUtc dt:dt=""string"">2018-10-18T18:52:51Z</DateUtc></StartTime><FrequencyChanges><FrequencyChange><Frequency dt:dt=""r8"">3215292</Frequency><Timestamp dt:dt=""r8"">6147541858779</Timestamp><Current dt:dt=""r8"">0</Current><DateUtc dt:dt=""string"">2018-10-18T18:52:51Z</DateUtc></FrequencyChange></FrequencyChanges></Clock>\n",KW_Experiment5A-29-1,59.946,1.0.0.105,2,1444304324,Professional,2.0.10.353,2.0.10.353,10/18/2018,10/18/2018 18:52,14:52:52,2.0.10.248,2,2,1,2,,,,,,,,TrainingProc,BlockList,29,1,Distractor1.bmp,1,0,,0,1,310751,400,,0,0,lime,400,1,400,,vertical,red,Target1.bmp,yellow,Distractor1.bmp,cyan,Distractor1.bmp,blue,Distractor2.bmp,purple,Distractor2.bmp,lime,Distractor1.bmp,,,,TrialProc,6,TrainingTrialList,1,1,-999999,0,311151,0,1,1187,312338,Target1.bmp,red,1,,,,7,3,29
KW_Experiment5A,29,1,"<?xml version=""1.0""?>\n<Clock xmlns:dt=""urn:schemas-microsoft-com:datatypes""><Description dt:dt=""string"">E-Prime Primary Realtime Clock</Description><StartTime><Timestamp dt:dt=""int"">0</Timestamp><DateUtc dt:dt=""string"">2018-10-18T18:52:51Z</DateUtc></StartTime><FrequencyChanges><FrequencyChange><Frequency dt:dt=""r8"">3215292</Frequency><Timestamp dt:dt=""r8"">6147541858779</Timestamp><Current dt:dt=""r8"">0</Current><DateUtc dt:dt=""string"">2018-10-18T18:52:51Z</DateUtc></FrequencyChange></FrequencyChanges></Clock>\n",KW_Experiment5A-29-1,59.946,1.0.0.105,2,1444304324,Professional,2.0.10.353,2.0.10.353,10/18/2018,10/18/2018 18:52,14:52:52,2.0.10.248,2,2,1,2,,,,,,,,TrainingProc,BlockList,30,2,Distractor2.bmp,2,0,,0,1,313353,401,,0,0,red,400,1,400,1,horizontal,red,Distractor2.bmp,purple,Distractor1.bmp,cyan,Distractor1.bmp,yellow,Distractor2.bmp,blue,Distractor2.bmp,lime,Target2.bmp,,,,TrialProc,,TrainingTrialList,1,2,-999999,1,313754,0,2,1016,314770,Target2.bmp,lime,2,,,,6,3,30
KW_Experiment5A,29,1,"<?xml version=""1.0""?>\n<Clock xmlns:dt=""urn:schemas-microsoft-com:datatypes""><Description dt:dt=""string"">E-Prime Primary Realtime Clock</Description><StartTime><Timestamp dt:dt=""int"">0</Timestamp><DateUtc dt:dt=""string"">2018-10-18T18:52:51Z</DateUtc></StartTime><FrequencyChanges><FrequencyChange><Frequency dt:dt=""r8"">3215292</Frequency><Timestamp dt:dt=""r8"">6147541858779</Timestamp><Current dt:dt=""r8"">0</Current><DateUtc dt:dt=""string"">2018-10-18T18:52:51Z</DateUtc></FrequencyChange></FrequencyChanges></Clock>\n",KW_Experiment5A-29-1,59.946,1.0.0.105,2,1444304324,Professional,2.0.10.353,2.0.10.353,10/18/2018,10/18/2018 18:52,14:52:52,2.0.10.248,2,2,1,2,,,,,,,,TrainingProc,BlockList,31,2,Distractor2.bmp,2,0,,0,1,315789,500,,0,0,blue,500,2,500,,horizontal,blue,Distractor2.bmp,purple,Distractor2.bmp,lime,Distractor1.bmp,red,Target2.bmp,cyan,Distractor2.bmp,yellow,Distractor2.bmp,,,,TrialProc,3,TrainingTrialList,1,2,-999999,0,316289,0,2,529,316818,Target2.bmp,red,2,,,,10,3,31
KW_Experiment5A,29,1,"<?xml version=""1.0""?>\n<Clock xmlns:dt=""urn:schemas-microsoft-com:datatypes""><Description dt:dt=""string"">E-Prime Primary Realtime Clock</Description><StartTime><Timestamp dt:dt=""int"">0</Timestamp><DateUtc dt:dt=""string"">2018-10-18T18:52:51Z</DateUtc></StartTime><FrequencyChanges><FrequencyChange><Frequency dt:dt=""r8"">3215292</Frequency><Timestamp dt:dt=""r8"">6147541858779</Timestamp><Current dt:dt=""r8"">0</Current><DateUtc dt:dt=""string"">2018-10-18T18:52:51Z</DateUtc></FrequencyChange></FrequencyChanges></Clock>\n",KW_Experiment5A-29-1,59.946,1.0.0.105,2,1444304324,Professional,2.0.10.353,2.0.10.353,10/18/2018,10/18/2018 18:52,14:52:52,2.0.10.248,2,2,1,2,,,,,,,,TrainingProc,BlockList,32,1,Distractor2.bmp,2,0,,0,1,317841,500,,0,0,cyan,500,2,500,4,vertical,cyan,Distractor2.bmp,lime,Target1.bmp,purple,Distractor2.bmp,yellow,Distractor1.bmp,blue,Distractor2.bmp,red,Distractor1.bmp,,,,TrialProc,,TrainingTrialList,1,1,-999999,0,318341,0,1,693,319034,Target1.bmp,lime,1,,,,2,3,32
KW_Experiment5A,29,1,"<?xml version=""1.0""?>\n<Clock xmlns:dt=""urn:schemas-microsoft-com:datatypes""><Description dt:dt=""string"">E-Prime Primary Realtime Clock</Description><StartTime><Timestamp dt:dt=""int"">0</Timestamp><DateUtc dt:dt=""string"">2018-10-18T18:52:51Z</DateUtc></StartTime><FrequencyChanges><FrequencyChange><Frequency dt:dt=""r8"">3215292</Frequency><Timestamp dt:dt=""r8"">6147541858779</Timestamp><Current dt:dt=""r8"">0</Current><DateUtc dt:dt=""string"">2018-10-18T18:52:51Z</DateUtc></FrequencyChange></FrequencyChanges></Clock>\n",KW_Experiment5A-29-1,59.946,1.0.0.105,2,1444304324,Professional,2.0.10.353,2.0.10.353,10/18/2018,10/18/2018 18:52,14:52:52,2.0.10.248,2,2,1,2,,,,,,,,TrainingProc,BlockList,33,2,Distractor1.bmp,1,0,,1,0,320059,401,,0,0,purple,400,1,400,,horizontal,purple,Distractor1.bmp,lime,Distractor1.bmp,red,Target2.bmp,cyan,Distractor1.bmp,yellow,Distractor1.bmp,blue,Distractor1.bmp,,,,TrialProc,5,TrainingTrialList,1,2,-999999,1,320460,0,2,910,321370,Target2.bmp,red,2,,,,9,3,33
KW_Experiment5A,29,1,"<?xml version=""1.0""?>\n<Clock xmlns:dt=""urn:schemas-microsoft-com:datatypes""><Description dt:dt=""string"">E-Prime Primary Realtime Clock</Description><StartTime><Timestamp dt:dt=""int"">0</Timestamp><DateUtc dt:dt=""string"">2018-10-18T18:52:51Z</DateUtc></StartTime><FrequencyChanges><FrequencyChange><Frequency dt:dt=""r8"">3215292</Frequency><Timestamp dt:dt=""r8"">6147541858779</Timestamp><Current dt:dt=""r8"">0</Current><DateUtc dt:dt=""string"">2018-10-18T18:52:51Z</DateUtc></FrequencyChange></FrequencyChanges></Clock>\n",KW_Experiment5A-29-1,59.946,1.0.0.105,2,1444304324,Professional,2.0.10.353,2.0.10.353,10/18/2018,10/18/2018 18:52,14:52:52,2.0.10.248,2,2,1,2,,,,,,,,TrainingProc,BlockList,34,1,Distractor2.bmp,2,0,,0,1,322395,400,,0,0,red,400,1,400,1,vertical,red,Distractor1.bmp,yellow,Distractor1.bmp,blue,Distractor1.bmp,lime,Target1.bmp,purple,Distractor2.bmp,cyan,Distractor2.bmp,,,,TrialProc,,TrainingTrialList,0,1,-999999,0,322795,0,2,863,323658,Target1.bmp,lime,1,,,,4,3,34
KW_Experiment5A,29,1,"<?xml version=""1.0""?>\n<Clock xmlns:dt=""urn:schemas-microsoft-com:datatypes""><Description dt:dt=""string"">E-Prime Primary Realtime Clock</Description><StartTime><Timestamp dt:dt=""int"">0</Timestamp><DateUtc dt:dt=""string"">2018-10-18T18:52:51Z</DateUtc></StartTime><FrequencyChanges><FrequencyChange><Frequency dt:dt=""r8"">3215292</Frequency><Timestamp dt:dt=""r8"">6147541858779</Timestamp><Current dt:dt=""r8"">0</Current><DateUtc dt:dt=""string"">2018-10-18T18:52:51Z</DateUtc></FrequencyChange></FrequencyChanges></Clock>\n",KW_Experiment5A-29-1,59.946,1.0.0.105,2,1444304324,Professional,2.0.10.353,2.0.10.353,10/18/2018,10/18/2018 18:52,14:52:52,2.0.10.248,2,2,1,2,,,,,,,,TrainingProc,BlockList,35,1,Distractor2.bmp,2,0,,0,1,324680,501,,0,0,cyan,500,2,500,,vertical,red,Target1.bmp,yellow,Distractor2.bmp,purple,Distractor1.bmp,lime,Distractor1.bmp,blue,Distractor1.bmp,cyan,Distractor1.bmp,,,,TrialProc,4,TrainingTrialList,0,1,-999999,1,325181,0,2,941,326122,Target1.bmp,red,1,,,,7,3,35
KW_Experiment5A,29,1,"<?xml version=""1.0""?>\n<Clock xmlns:dt=""urn:schemas-microsoft-com:datatypes""><Description dt:dt=""string"">E-Prime Primary Realtime Clock</Description><StartTime><Timestamp dt:dt=""int"">0</Timestamp><DateUtc dt:dt=""string"">2018-10-18T18:52:51Z</DateUtc></StartTime><FrequencyChanges><FrequencyChange><Frequency dt:dt=""r8"">3215292</Frequency><Timestamp dt:dt=""r8"">6147541858779</Timestamp><Current dt:dt=""r8"">0</Current><DateUtc dt:dt=""string"">2018-10-18T18:52:51Z</DateUtc></FrequencyChange></FrequencyChanges></Clock>\n",KW_Experiment5A-29-1,59.946,1.0.0.105,2,1444304324,Professional,2.0.10.353,2.0.10.353,10/18/2018,10/18/2018 18:52,14:52:52,2.0.10.248,2,2,1,2,,,,,,,,TrainingProc,BlockList,36,2,Distractor1.bmp,1,0,,0,1,327133,600,,0,0,yellow,600,3,600,,horizontal,yellow,Distractor2.bmp,cyan,Distractor2.bmp,red,Target2.bmp,purple,Distractor1.bmp,blue,Distractor1.bmp,lime,Distractor1.bmp,,,,TrialProc,2,TrainingTrialList,1,2,-999999,0,327733,0,2,805,328538,Target2.bmp,red,2,,,,9,3,36
KW_Experiment5A,29,1,"<?xml version=""1.0""?>\n<Clock xmlns:dt=""urn:schemas-microsoft-com:datatypes""><Description dt:dt=""string"">E-Prime Primary Realtime Clock</Description><StartTime><Timestamp dt:dt=""int"">0</Timestamp><DateUtc dt:dt=""string"">2018-10-18T18:52:51Z</DateUtc></StartTime><FrequencyChanges><FrequencyChange><Frequency dt:dt=""r8"">3215292</Frequency><Timestamp dt:dt=""r8"">6147541858779</Timestamp><Current dt:dt=""r8"">0</Current><DateUtc dt:dt=""string"">2018-10-18T18:52:51Z</DateUtc></FrequencyChange></FrequencyChanges></Clock>\n",KW_Experiment5A-29-1,59.946,1.0.0.105,2,1444304324,Professional,2.0.10.353,2.0.10.353,10/18/2018,10/18/2018 18:52,14:52:52,2.0.10.248,2,2,1,2,,,,,,,,TrainingProc,BlockList,37,2,Distractor1.bmp,1,0,,0,0,329551,601,,0,0,cyan,600,3,600,,horizontal,cyan,Distractor1.bmp,blue,Distractor1.bmp,lime,Distractor2.bmp,purple,Distractor2.bmp,yellow,Distractor2.bmp,red,Target2.bmp,,,,TrialProc,4,TrainingTrialList,1,2,-999999,1,330152,0,2,586,330738,Target2.bmp,red,2,,,,12,3,37
KW_Experiment5A,29,1,"<?xml version=""1.0""?>\n<Clock xmlns:dt=""urn:schemas-microsoft-com:datatypes""><Description dt:dt=""string"">E-Prime Primary Realtime Clock</Description><StartTime><Timestamp dt:dt=""int"">0</Timestamp><DateUtc dt:dt=""string"">2018-10-18T18:52:51Z</DateUtc></StartTime><FrequencyChanges><FrequencyChange><Frequency dt:dt=""r8"">3215292</Frequency><Timestamp dt:dt=""r8"">6147541858779</Timestamp><Current dt:dt=""r8"">0</Current><DateUtc dt:dt=""string"">2018-10-18T18:52:51Z</DateUtc></FrequencyChange></FrequencyChanges></Clock>\n",KW_Experiment5A-29-1,59.946,1.0.0.105,2,1444304324,Professional,2.0.10.353,2.0.10.353,10/18/2018,10/18/2018 18:52,14:52:52,2.0.10.248,2,2,1,2,,,,,,,,TrainingProc,BlockList,38,2,Distractor2.bmp,2,0,,0,1,331753,501,,0,0,yellow,500,2,500,,horizontal,yellow,Distractor2.bmp,purple,Distractor2.bmp,cyan,Distractor2.bmp,red,Target2.bmp,lime,Distractor2.bmp,blue,Distractor1.bmp,,,,TrialProc,2,TrainingTrialList,1,2,-999999,1,332254,0,2,932,333186,Target2.bmp,red,2,,,,10,3,38
KW_Experiment5A,29,1,"<?xml version=""1.0""?>\n<Clock xmlns:dt=""urn:schemas-microsoft-com:datatypes""><Description dt:dt=""string"">E-Prime Primary Realtime Clock</Description><StartTime><Timestamp dt:dt=""int"">0</Timestamp><DateUtc dt:dt=""string"">2018-10-18T18:52:51Z</DateUtc></StartTime><FrequencyChanges><FrequencyChange><Frequency dt:dt=""r8"">3215292</Frequency><Timestamp dt:dt=""r8"">6147541858779</Timestamp><Current dt:dt=""r8"">0</Current><DateUtc dt:dt=""string"">2018-10-18T18:52:51Z</DateUtc></FrequencyChange></FrequencyChanges></Clock>\n",KW_Experiment5A-29-1,59.946,1.0.0.105,2,1444304324,Professional,2.0.10.353,2.0.10.353,10/18/2018,10/18/2018 18:52,14:52:52,2.0.10.248,2,2,1,2,,,,,,,,TrainingProc,BlockList,39,2,Distractor2.bmp,2,0,,0,1,334206,600,,0,0,yellow,600,3,600,,horizontal,yellow,Distractor1.bmp,red,Target2.bmp,blue,Distractor2.bmp,lime,Distractor1.bmp,cyan,Distractor2.bmp,purple,Distractor2.bmp,,,,TrialProc,2,TrainingTrialList,1,2,-999999,0,334806,0,2,1300,336106,Target2.bmp,red,2,,,,8,3,39
KW_Experiment5A,29,1,"<?xml version=""1.0""?>\n<Clock xmlns:dt=""urn:schemas-microsoft-com:datatypes""><Description dt:dt=""string"">E-Prime Primary Realtime Clock</Description><StartTime><Timestamp dt:dt=""int"">0</Timestamp><DateUtc dt:dt=""string"">2018-10-18T18:52:51Z</DateUtc></StartTime><FrequencyChanges><FrequencyChange><Frequency dt:dt=""r8"">3215292</Frequency><Timestamp dt:dt=""r8"">6147541858779</Timestamp><Current dt:dt=""r8"">0</Current><DateUtc dt:dt=""string"">2018-10-18T18:52:51Z</DateUtc></FrequencyChange></FrequencyChanges></Clock>\n",KW_Experiment5A-29-1,59.946,1.0.0.105,2,1444304324,Professional,2.0.10.353,2.0.10.353,10/18/2018,10/18/2018 18:52,14:52:52,2.0.10.248,2,2,1,2,,,,,,,,TrainingProc,BlockList,40,1,Distractor2.bmp,2,0,,0,1,337125,500,,0,0,purple,500,2,500,,vertical,purple,Distractor2.bmp,blue,Distractor2.bmp,yellow,Distractor2.bmp,cyan,Distractor2.bmp,lime,Distractor1.bmp,red,Target1.bmp,,,,TrialProc,5,TrainingTrialList,1,1,-999999,0,337625,0,1,665,338290,Target1.bmp,red,1,,,,12,3,40
KW_Experiment5A,29,1,"<?xml version=""1.0""?>\n<Clock xmlns:dt=""urn:schemas-microsoft-com:datatypes""><Description dt:dt=""string"">E-Prime Primary Realtime Clock</Description><StartTime><Timestamp dt:dt=""int"">0</Timestamp><DateUtc dt:dt=""string"">2018-10-18T18:52:51Z</DateUtc></StartTime><FrequencyChanges><FrequencyChange><Frequency dt:dt=""r8"">3215292</Frequency><Timestamp dt:dt=""r8"">6147541858779</Timestamp><Current dt:dt=""r8"">0</Current><DateUtc dt:dt=""string"">2018-10-18T18:52:51Z</DateUtc></FrequencyChange></FrequencyChanges></Clock>\n",KW_Experiment5A-29-1,59.946,1.0.0.105,2,1444304324,Professional,2.0.10.353,2.0.10.353,10/18/2018,10/18/2018 18:52,14:52:52,2.0.10.248,2,2,1,2,,,,,,,,TrainingProc,BlockList,41,1,Distractor1.bmp,1,0,,0,1,339310,501,,0,0,cyan,500,2,500,,vertical,cyan,Distractor1.bmp,red,Target1.bmp,purple,Distractor1.bmp,yellow,Distractor1.bmp,blue,Distractor2.bmp,lime,Distractor1.bmp,,,,TrialProc,4,TrainingTrialList,1,1,-999999,1,339811,0,1,847,340658,Target1.bmp,red,1,,,,8,3,41
KW_Experiment5A,29,1,"<?xml version=""1.0""?>\n<Clock xmlns:dt=""urn:schemas-microsoft-com:datatypes""><Description dt:dt=""string"">E-Prime Primary Realtime Clock</Description><StartTime><Timestamp dt:dt=""int"">0</Timestamp><DateUtc dt:dt=""string"">2018-10-18T18:52:51Z</DateUtc></StartTime><FrequencyChanges><FrequencyChange><Frequency dt:dt=""r8"">3215292</Frequency><Timestamp dt:dt=""r8"">6147541858779</Timestamp><Current dt:dt=""r8"">0</Current><DateUtc dt:dt=""string"">2018-10-18T18:52:51Z</DateUtc></FrequencyChange></FrequencyChanges></Clock>\n",KW_Experiment5A-29-1,59.946,1.0.0.105,2,1444304324,Professional,2.0.10.353,2.0.10.353,10/18/2018,10/18/2018 18:52,14:52:52,2.0.10.248,2,2,1,2,,,,,,,,TrainingProc,BlockList,42,1,Distractor2.bmp,2,0,,0,1,341679,400,,0,0,lime,400,1,400,,vertical,lime,Distractor2.bmp,blue,Distractor1.bmp,yellow,Distractor1.bmp,purple,Distractor1.bmp,red,Target1.bmp,cyan,Distractor2.bmp,,,,TrialProc,6,TrainingTrialList,1,1,-999999,0,342079,0,1,538,342617,Target1.bmp,red,1,,,,11,3,42
KW_Experiment5A,29,1,"<?xml version=""1.0""?>\n<Clock xmlns:dt=""urn:schemas-microsoft-com:datatypes""><Description dt:dt=""string"">E-Prime Primary Realtime Clock</Description><StartTime><Timestamp dt:dt=""int"">0</Timestamp><DateUtc dt:dt=""string"">2018-10-18T18:52:51Z</DateUtc></StartTime><FrequencyChanges><FrequencyChange><Frequency dt:dt=""r8"">3215292</Frequency><Timestamp dt:dt=""r8"">6147541858779</Timestamp><Current dt:dt=""r8"">0</Current><DateUtc dt:dt=""string"">2018-10-18T18:52:51Z</DateUtc></FrequencyChange></FrequencyChanges></Clock>\n",KW_Experiment5A-29-1,59.946,1.0.0.105,2,1444304324,Professional,2.0.10.353,2.0.10.353,10/18/2018,10/18/2018 18:52,14:52:52,2.0.10.248,2,2,1,2,,,,,,,,TrainingProc,BlockList,43,1,Distractor2.bmp,2,0,,0,1,343631,500,,0,0,cyan,500,2,500,,vertical,red,Target1.bmp,yellow,Distractor2.bmp,lime,Distractor1.bmp,blue,Distractor1.bmp,purple,Distractor2.bmp,cyan,Distractor2.bmp,,,,TrialProc,4,TrainingTrialList,1,1,-999999,0,344131,0,1,1198,345329,Target1.bmp,red,1,,,,7,3,43
KW_Experiment5A,29,1,"<?xml version=""1.0""?>\n<Clock xmlns:dt=""urn:schemas-microsoft-com:datatypes""><Description dt:dt=""string"">E-Prime Primary Realtime Clock</Description><StartTime><Timestamp dt:dt=""int"">0</Timestamp><DateUtc dt:dt=""string"">2018-10-18T18:52:51Z</DateUtc></StartTime><FrequencyChanges><FrequencyChange><Frequency dt:dt=""r8"">3215292</Frequency><Timestamp dt:dt=""r8"">6147541858779</Timestamp><Current dt:dt=""r8"">0</Current><DateUtc dt:dt=""string"">2018-10-18T18:52:51Z</DateUtc></FrequencyChange></FrequencyChanges></Clock>\n",KW_Experiment5A-29-1,59.946,1.0.0.105,2,1444304324,Professional,2.0.10.353,2.0.10.353,10/18/2018,10/18/2018 18:52,14:52:52,2.0.10.248,2,2,1,2,,,,,,,,TrainingProc,BlockList,44,1,Distractor1.bmp,1,0,,0,1,346350,400,,0,0,yellow,400,1,400,,vertical,yellow,Distractor1.bmp,purple,Distractor1.bmp,red,Target1.bmp,cyan,Distractor1.bmp,blue,Distractor2.bmp,lime,Distractor1.bmp,,,,TrialProc,2,TrainingTrialList,1,1,-999999,0,346750,0,1,1027,347777,Target1.bmp,red,1,,,,9,3,44
KW_Experiment5A,29,1,"<?xml version=""1.0""?>\n<Clock xmlns:dt=""urn:schemas-microsoft-com:datatypes""><Description dt:dt=""string"">E-Prime Primary Realtime Clock</Description><StartTime><Timestamp dt:dt=""int"">0</Timestamp><DateUtc dt:dt=""string"">2018-10-18T18:52:51Z</DateUtc></StartTime><FrequencyChanges><FrequencyChange><Frequency dt:dt=""r8"">3215292</Frequency><Timestamp dt:dt=""r8"">6147541858779</Timestamp><Current dt:dt=""r8"">0</Current><DateUtc dt:dt=""string"">2018-10-18T18:52:51Z</DateUtc></FrequencyChange></FrequencyChanges></Clock>\n",KW_Experiment5A-29-1,59.946,1.0.0.105,2,1444304324,Professional,2.0.10.353,2.0.10.353,10/18/2018,10/18/2018 18:52,14:52:52,2.0.10.248,2,2,1,2,,,,,,,,TrainingProc,BlockList,45,1,Distractor2.bmp,2,0,,0,1,348802,401,,0,0,yellow,400,1,400,,vertical,yellow,Distractor2.bmp,purple,Distractor2.bmp,blue,Distractor2.bmp,cyan,Distractor2.bmp,lime,Distractor1.bmp,red,Target1.bmp,,,,TrialProc,2,TrainingTrialList,1,1,-999999,1,349203,0,1,598,349801,Target1.bmp,red,1,,,,12,3,45
KW_Experiment5A,29,1,"<?xml version=""1.0""?>\n<Clock xmlns:dt=""urn:schemas-microsoft-com:datatypes""><Description dt:dt=""string"">E-Prime Primary Realtime Clock</Description><StartTime><Timestamp dt:dt=""int"">0</Timestamp><DateUtc dt:dt=""string"">2018-10-18T18:52:51Z</DateUtc></StartTime><FrequencyChanges><FrequencyChange><Frequency dt:dt=""r8"">3215292</Frequency><Timestamp dt:dt=""r8"">6147541858779</Timestamp><Current dt:dt=""r8"">0</Current><DateUtc dt:dt=""string"">2018-10-18T18:52:51Z</DateUtc></FrequencyChange></FrequencyChanges></Clock>\n",KW_Experiment5A-29-1,59.946,1.0.0.105,2,1444304324,Professional,2.0.10.353,2.0.10.353,10/18/2018,10/18/2018 18:52,14:52:52,2.0.10.248,2,2,1,2,,,,,,,,TrainingProc,BlockList,46,2,Distractor2.bmp,2,0,,0,1,350821,500,,0,0,yellow,500,2,500,,horizontal,yellow,Distractor2.bmp,blue,Distractor2.bmp,cyan,Distractor1.bmp,lime,Distractor1.bmp,red,Target2.bmp,purple,Distractor2.bmp,,,,TrialProc,2,TrainingTrialList,1,2,-999999,0,351321,0,2,1096,352417,Target2.bmp,red,2,,,,11,3,46
KW_Experiment5A,29,1,"<?xml version=""1.0""?>\n<Clock xmlns:dt=""urn:schemas-microsoft-com:datatypes""><Description dt:dt=""string"">E-Prime Primary Realtime Clock</Description><StartTime><Timestamp dt:dt=""int"">0</Timestamp><DateUtc dt:dt=""string"">2018-10-18T18:52:51Z</DateUtc></StartTime><FrequencyChanges><FrequencyChange><Frequency dt:dt=""r8"">3215292</Frequency><Timestamp dt:dt=""r8"">6147541858779</Timestamp><Current dt:dt=""r8"">0</Current><DateUtc dt:dt=""string"">2018-10-18T18:52:51Z</DateUtc></FrequencyChange></FrequencyChanges></Clock>\n",KW_Experiment5A-29-1,59.946,1.0.0.105,2,1444304324,Professional,2.0.10.353,2.0.10.353,10/18/2018,10/18/2018 18:52,14:52:52,2.0.10.248,2,2,1,2,,,,,,,,TrainingProc,BlockList,47,2,Distractor1.bmp,1,0,,0,1,353440,400,,0,0,cyan,400,1,400,,horizontal,cyan,Distractor1.bmp,red,Target2.bmp,purple,Distractor1.bmp,yellow,Distractor2.bmp,lime,Distractor2.bmp,blue,Distractor2.bmp,,,,TrialProc,4,TrainingTrialList,1,2,-999999,0,353840,0,2,1113,354953,Target2.bmp,red,2,,,,8,3,47
KW_Experiment5A,29,1,"<?xml version=""1.0""?>\n<Clock xmlns:dt=""urn:schemas-microsoft-com:datatypes""><Description dt:dt=""string"">E-Prime Primary Realtime Clock</Description><StartTime><Timestamp dt:dt=""int"">0</Timestamp><DateUtc dt:dt=""string"">2018-10-18T18:52:51Z</DateUtc></StartTime><FrequencyChanges><FrequencyChange><Frequency dt:dt=""r8"">3215292</Frequency><Timestamp dt:dt=""r8"">6147541858779</Timestamp><Current dt:dt=""r8"">0</Current><DateUtc dt:dt=""string"">2018-10-18T18:52:51Z</DateUtc></FrequencyChange></FrequencyChanges></Clock>\n",KW_Experiment5A-29-1,59.946,1.0.0.105,2,1444304324,Professional,2.0.10.353,2.0.10.353,10/18/2018,10/18/2018 18:52,14:52:52,2.0.10.248,2,2,1,2,,,,,,,,TrainingProc,BlockList,48,1,Distractor1.bmp,1,0,,0,1,355975,601,,0,0,red,600,3,600,1,vertical,lime,Target1.bmp,red,Distractor1.bmp,cyan,Distractor1.bmp,yellow,Distractor1.bmp,blue,Distractor1.bmp,purple,Distractor1.bmp,,,,TrialProc,,TrainingTrialList,1,1,-999999,1,356576,0,1,945,357521,Target1.bmp,lime,1,,,,1,3,48
KW_Experiment5A,29,1,"<?xml version=""1.0""?>\n<Clock xmlns:dt=""urn:schemas-microsoft-com:datatypes""><Description dt:dt=""string"">E-Prime Primary Realtime Clock</Description><StartTime><Timestamp dt:dt=""int"">0</Timestamp><DateUtc dt:dt=""string"">2018-10-18T18:52:51Z</DateUtc></StartTime><FrequencyChanges><FrequencyChange><Frequency dt:dt=""r8"">3215292</Frequency><Timestamp dt:dt=""r8"">6147541858779</Timestamp><Current dt:dt=""r8"">0</Current><DateUtc dt:dt=""string"">2018-10-18T18:52:51Z</DateUtc></FrequencyChange></FrequencyChanges></Clock>\n",KW_Experiment5A-29-1,59.946,1.0.0.105,2,1444304324,Professional,2.0.10.353,2.0.10.353,10/18/2018,10/18/2018 18:52,14:52:52,2.0.10.248,3,2,1,3,,,,,,,,TrainingProc,BlockList,1,2,Distractor1.bmp,1,0,,0,17,362498,400,,0,0,yellow,400,1,400,,horizontal,yellow,Distractor2.bmp,blue,Distractor2.bmp,red,Target2.bmp,lime,Distractor1.bmp,purple,Distractor1.bmp,cyan,Distractor1.bmp,,,,TrialProc,2,TrainingTrialList,1,2,-999999,0,362898,0,2,919,363817,Target2.bmp,red,2,,,,9,4,49
KW_Experiment5A,29,1,"<?xml version=""1.0""?>\n<Clock xmlns:dt=""urn:schemas-microsoft-com:datatypes""><Description dt:dt=""string"">E-Prime Primary Realtime Clock</Description><StartTime><Timestamp dt:dt=""int"">0</Timestamp><DateUtc dt:dt=""string"">2018-10-18T18:52:51Z</DateUtc></StartTime><FrequencyChanges><FrequencyChange><Frequency dt:dt=""r8"">3215292</Frequency><Timestamp dt:dt=""r8"">6147541858779</Timestamp><Current dt:dt=""r8"">0</Current><DateUtc dt:dt=""string"">2018-10-18T18:52:51Z</DateUtc></FrequencyChange></FrequencyChanges></Clock>\n",KW_Experiment5A-29-1,59.946,1.0.0.105,2,1444304324,Professional,2.0.10.353,2.0.10.353,10/18/2018,10/18/2018 18:52,14:52:52,2.0.10.248,3,2,1,3,,,,,,,,TrainingProc,BlockList,2,1,Distractor1.bmp,1,0,,1,0,364833,501,,0,0,purple,500,2,500,,vertical,red,Target1.bmp,cyan,Distractor1.bmp,blue,Distractor2.bmp,lime,Distractor1.bmp,yellow,Distractor2.bmp,purple,Distractor1.bmp,,,,TrialProc,5,TrainingTrialList,1,1,-999999,1,365334,0,1,483,365817,Target1.bmp,red,1,,,,7,4,50
KW_Experiment5A,29,1,"<?xml version=""1.0""?>\n<Clock xmlns:dt=""urn:schemas-microsoft-com:datatypes""><Description dt:dt=""string"">E-Prime Primary Realtime Clock</Description><StartTime><Timestamp dt:dt=""int"">0</Timestamp><DateUtc dt:dt=""string"">2018-10-18T18:52:51Z</DateUtc></StartTime><FrequencyChanges><FrequencyChange><Frequency dt:dt=""r8"">3215292</Frequency><Timestamp dt:dt=""r8"">6147541858779</Timestamp><Current dt:dt=""r8"">0</Current><DateUtc dt:dt=""string"">2018-10-18T18:52:51Z</DateUtc></FrequencyChange></FrequencyChanges></Clock>\n",KW_Experiment5A-29-1,59.946,1.0.0.105,2,1444304324,Professional,2.0.10.353,2.0.10.353,10/18/2018,10/18/2018 18:52,14:52:52,2.0.10.248,3,2,1,3,,,,,,,,TrainingProc,BlockList,3,2,Distractor1.bmp,1,0,,0,1,366835,401,,0,0,lime,400,1,400,,horizontal,lime,Distractor1.bmp,purple,Distractor2.bmp,yellow,Distractor2.bmp,blue,Distractor2.bmp,cyan,Distractor1.bmp,red,Target2.bmp,,,,TrialProc,6,TrainingTrialList,1,2,-999999,1,367236,0,2,773,368009,Target2.bmp,red,2,,,,12,4,51
KW_Experiment5A,29,1,"<?xml version=""1.0""?>\n<Clock xmlns:dt=""urn:schemas-microsoft-com:datatypes""><Description dt:dt=""string"">E-Prime Primary Realtime Clock</Description><StartTime><Timestamp dt:dt=""int"">0</Timestamp><DateUtc dt:dt=""string"">2018-10-18T18:52:51Z</DateUtc></StartTime><FrequencyChanges><FrequencyChange><Frequency dt:dt=""r8"">3215292</Frequency><Timestamp dt:dt=""r8"">6147541858779</Timestamp><Current dt:dt=""r8"">0</Current><DateUtc dt:dt=""string"">2018-10-18T18:52:51Z</DateUtc></FrequencyChange></FrequencyChanges></Clock>\n",KW_Experiment5A-29-1,59.946,1.0.0.105,2,1444304324,Professional,2.0.10.353,2.0.10.353,10/18/2018,10/18/2018 18:52,14:52:52,2.0.10.248,3,2,1,3,,,,,,,,TrainingProc,BlockList,4,1,Distractor1.bmp,1,0,,0,1,369021,500,,0,0,yellow,500,2,500,,vertical,yellow,Distractor2.bmp,lime,Distractor2.bmp,red,Target1.bmp,cyan,Distractor1.bmp,purple,Distractor1.bmp,blue,Distractor1.bmp,,,,TrialProc,2,TrainingTrialList,1,1,-999999,0,369521,0,1,976,370497,Target1.bmp,red,1,,,,9,4,52
KW_Experiment5A,29,1,"<?xml version=""1.0""?>\n<Clock xmlns:dt=""urn:schemas-microsoft-com:datatypes""><Description dt:dt=""string"">E-Prime Primary Realtime Clock</Description><StartTime><Timestamp dt:dt=""int"">0</Timestamp><DateUtc dt:dt=""string"">2018-10-18T18:52:51Z</DateUtc></StartTime><FrequencyChanges><FrequencyChange><Frequency dt:dt=""r8"">3215292</Frequency><Timestamp dt:dt=""r8"">6147541858779</Timestamp><Current dt:dt=""r8"">0</Current><DateUtc dt:dt=""string"">2018-10-18T18:52:51Z</DateUtc></FrequencyChange></FrequencyChanges></Clock>\n",KW_Experiment5A-29-1,59.946,1.0.0.105,2,1444304324,Professional,2.0.10.353,2.0.10.353,10/18/2018,10/18/2018 18:52,14:52:52,2.0.10.248,3,2,1,3,,,,,,,,TrainingProc,BlockList,5,2,Distractor2.bmp,2,0,,0,1,371523,600,,0,0,blue,600,3,600,,horizontal,blue,Distractor1.bmp,red,Target2.bmp,yellow,Distractor2.bmp,purple,Distractor1.bmp,lime,Distractor2.bmp,cyan,Distractor1.bmp,,,,TrialProc,3,TrainingTrialList,1,2,-999999,0,372123,0,2,486,372609,Target2.bmp,red,2,,,,8,4,53
KW_Experiment5A,29,1,"<?xml version=""1.0""?>\n<Clock xmlns:dt=""urn:schemas-microsoft-com:datatypes""><Description dt:dt=""string"">E-Prime Primary Realtime Clock</Description><StartTime><Timestamp dt:dt=""int"">0</Timestamp><DateUtc dt:dt=""string"">2018-10-18T18:52:51Z</DateUtc></StartTime><FrequencyChanges><FrequencyChange><Frequency dt:dt=""r8"">3215292</Frequency><Timestamp dt:dt=""r8"">6147541858779</Timestamp><Current dt:dt=""r8"">0</Current><DateUtc dt:dt=""string"">2018-10-18T18:52:51Z</DateUtc></FrequencyChange></FrequencyChanges></Clock>\n",KW_Experiment5A-29-1,59.946,1.0.0.105,2,1444304324,Professional,2.0.10.353,2.0.10.353,10/18/2018,10/18/2018 18:52,14:52:52,2.0.10.248,3,2,1,3,,,,,,,,TrainingProc,BlockList,6,2,Distractor2.bmp,2,0,,0,1,373625,400,,0,0,lime,400,1,400,,horizontal,lime,Distractor2.bmp,cyan,Distractor1.bmp,yellow,Distractor1.bmp,purple,Distractor2.bmp,blue,Distractor1.bmp,red,Target2.bmp,,,,TrialProc,6,TrainingTrialList,1,2,-999999,0,374025,0,2,544,374569,Target2.bmp,red,2,,,,12,4,54
KW_Experiment5A,29,1,"<?xml version=""1.0""?>\n<Clock xmlns:dt=""urn:schemas-microsoft-com:datatypes""><Description dt:dt=""string"">E-Prime Primary Realtime Clock</Description><StartTime><Timestamp dt:dt=""int"">0</Timestamp><DateUtc dt:dt=""string"">2018-10-18T18:52:51Z</DateUtc></StartTime><FrequencyChanges><FrequencyChange><Frequency dt:dt=""r8"">3215292</Frequency><Timestamp dt:dt=""r8"">6147541858779</Timestamp><Current dt:dt=""r8"">0</Current><DateUtc dt:dt=""string"">2018-10-18T18:52:51Z</DateUtc></FrequencyChange></FrequencyChanges></Clock>\n",KW_Experiment5A-29-1,59.946,1.0.0.105,2,1444304324,Professional,2.0.10.353,2.0.10.353,10/18/2018,10/18/2018 18:52,14:52:52,2.0.10.248,3,2,1,3,,,,,,,,TrainingProc,BlockList,7,2,Distractor1.bmp,1,0,,0,1,375593,501,,0,0,red,500,2,500,1,horizontal,red,Distractor2.bmp,cyan,Distractor2.bmp,lime,Target2.bmp,purple,Distractor1.bmp,yellow,Distractor1.bmp,blue,Distractor2.bmp,,,,TrialProc,,TrainingTrialList,1,2,-999999,1,376094,0,2,539,376633,Target2.bmp,lime,2,,,,3,4,55
KW_Experiment5A,29,1,"<?xml version=""1.0""?>\n<Clock xmlns:dt=""urn:schemas-microsoft-com:datatypes""><Description dt:dt=""string"">E-Prime Primary Realtime Clock</Description><StartTime><Timestamp dt:dt=""int"">0</Timestamp><DateUtc dt:dt=""string"">2018-10-18T18:52:51Z</DateUtc></StartTime><FrequencyChanges><FrequencyChange><Frequency dt:dt=""r8"">3215292</Frequency><Timestamp dt:dt=""r8"">6147541858779</Timestamp><Current dt:dt=""r8"">0</Current><DateUtc dt:dt=""string"">2018-10-18T18:52:51Z</DateUtc></FrequencyChange></FrequencyChanges></Clock>\n",KW_Experiment5A-29-1,59.946,1.0.0.105,2,1444304324,Professional,2.0.10.353,2.0.10.353,10/18/2018,10/18/2018 18:52,14:52:52,2.0.10.248,3,2,1,3,,,,,,,,TrainingProc,BlockList,8,2,Distractor2.bmp,2,0,,0,1,377645,601,,0,0,purple,600,3,600,,horizontal,purple,Distractor1.bmp,cyan,Distractor1.bmp,blue,Distractor2.bmp,lime,Distractor2.bmp,red,Target2.bmp,yellow,Distractor2.bmp,,,,TrialProc,5,TrainingTrialList,1,2,-999999,1,378246,0,2,1139,379385,Target2.bmp,red,2,,,,11,4,56
KW_Experiment5A,29,1,"<?xml version=""1.0""?>\n<Clock xmlns:dt=""urn:schemas-microsoft-com:datatypes""><Description dt:dt=""string"">E-Prime Primary Realtime Clock</Description><StartTime><Timestamp dt:dt=""int"">0</Timestamp><DateUtc dt:dt=""string"">2018-10-18T18:52:51Z</DateUtc></StartTime><FrequencyChanges><FrequencyChange><Frequency dt:dt=""r8"">3215292</Frequency><Timestamp dt:dt=""r8"">6147541858779</Timestamp><Current dt:dt=""r8"">0</Current><DateUtc dt:dt=""string"">2018-10-18T18:52:51Z</DateUtc></FrequencyChange></FrequencyChanges></Clock>\n",KW_Experiment5A-29-1,59.946,1.0.0.105,2,1444304324,Professional,2.0.10.353,2.0.10.353,10/18/2018,10/18/2018 18:52,14:52:52,2.0.10.248,3,2,1,3,,,,,,,,TrainingProc,BlockList,9,2,Distractor1.bmp,1,0,,0,1,380398,400,,0,0,purple,400,1,400,,horizontal,purple,Distractor2.bmp,cyan,Distractor1.bmp,red,Target2.bmp,blue,Distractor1.bmp,yellow,Distractor2.bmp,lime,Distractor1.bmp,,,,TrialProc,5,TrainingTrialList,1,2,-999999,0,380798,0,2,531,381329,Target2.bmp,red,2,,,,9,4,57
KW_Experiment5A,29,1,"<?xml version=""1.0""?>\n<Clock xmlns:dt=""urn:schemas-microsoft-com:datatypes""><Description dt:dt=""string"">E-Prime Primary Realtime Clock</Description><StartTime><Timestamp dt:dt=""int"">0</Timestamp><DateUtc dt:dt=""string"">2018-10-18T18:52:51Z</DateUtc></StartTime><FrequencyChanges><FrequencyChange><Frequency dt:dt=""r8"">3215292</Frequency><Timestamp dt:dt=""r8"">6147541858779</Timestamp><Current dt:dt=""r8"">0</Current><DateUtc dt:dt=""string"">2018-10-18T18:52:51Z</DateUtc></FrequencyChange></FrequencyChanges></Clock>\n",KW_Experiment5A-29-1,59.946,1.0.0.105,2,1444304324,Professional,2.0.10.353,2.0.10.353,10/18/2018,10/18/2018 18:52,14:52:52,2.0.10.248,3,2,1,3,,,,,,,,TrainingProc,BlockList,10,2,Distractor2.bmp,2,0,,0,1,382349,601,,0,0,purple,600,3,600,5,horizontal,purple,Distractor2.bmp,lime,Target2.bmp,blue,Distractor2.bmp,cyan,Distractor2.bmp,red,Distractor1.bmp,yellow,Distractor1.bmp,,,,TrialProc,,TrainingTrialList,1,2,-999999,1,382950,0,2,442,383392,Target2.bmp,lime,2,,,,2,4,58
KW_Experiment5A,29,1,"<?xml version=""1.0""?>\n<Clock xmlns:dt=""urn:schemas-microsoft-com:datatypes""><Description dt:dt=""string"">E-Prime Primary Realtime Clock</Description><StartTime><Timestamp dt:dt=""int"">0</Timestamp><DateUtc dt:dt=""string"">2018-10-18T18:52:51Z</DateUtc></StartTime><FrequencyChanges><FrequencyChange><Frequency dt:dt=""r8"">3215292</Frequency><Timestamp dt:dt=""r8"">6147541858779</Timestamp><Current dt:dt=""r8"">0</Current><DateUtc dt:dt=""string"">2018-10-18T18:52:51Z</DateUtc></FrequencyChange></FrequencyChanges></Clock>\n",KW_Experiment5A-29-1,59.946,1.0.0.105,2,1444304324,Professional,2.0.10.353,2.0.10.353,10/18/2018,10/18/2018 18:52,14:52:52,2.0.10.248,3,2,1,3,,,,,,,,TrainingProc,BlockList,11,1,Distractor2.bmp,2,0,,0,1,384418,600,,0,0,purple,600,3,600,,vertical,purple,Distractor1.bmp,yellow,Distractor2.bmp,blue,Distractor1.bmp,lime,Distractor1.bmp,red,Target1.bmp,cyan,Distractor2.bmp,,,,TrialProc,5,TrainingTrialList,1,1,-999999,0,385018,0,1,606,385624,Target1.bmp,red,1,,,,11,4,59
KW_Experiment5A,29,1,"<?xml version=""1.0""?>\n<Clock xmlns:dt=""urn:schemas-microsoft-com:datatypes""><Description dt:dt=""string"">E-Prime Primary Realtime Clock</Description><StartTime><Timestamp dt:dt=""int"">0</Timestamp><DateUtc dt:dt=""string"">2018-10-18T18:52:51Z</DateUtc></StartTime><FrequencyChanges><FrequencyChange><Frequency dt:dt=""r8"">3215292</Frequency><Timestamp dt:dt=""r8"">6147541858779</Timestamp><Current dt:dt=""r8"">0</Current><DateUtc dt:dt=""string"">2018-10-18T18:52:51Z</DateUtc></FrequencyChange></FrequencyChanges></Clock>\n",KW_Experiment5A-29-1,59.946,1.0.0.105,2,1444304324,Professional,2.0.10.353,2.0.10.353,10/18/2018,10/18/2018 18:52,14:52:52,2.0.10.248,3,2,1,3,,,,,,,,TrainingProc,BlockList,12,2,Distractor1.bmp,1,0,,0,1,386637,400,,0,0,yellow,400,1,400,2,horizontal,yellow,Distractor2.bmp,cyan,Distractor2.bmp,blue,Distractor1.bmp,purple,Distractor2.bmp,lime,Target2.bmp,red,Distractor1.bmp,,,,TrialProc,,TrainingTrialList,1,2,-999999,0,387037,0,2,547,387584,Target2.bmp,lime,2,,,,5,4,60
KW_Experiment5A,29,1,"<?xml version=""1.0""?>\n<Clock xmlns:dt=""urn:schemas-microsoft-com:datatypes""><Description dt:dt=""string"">E-Prime Primary Realtime Clock</Description><StartTime><Timestamp dt:dt=""int"">0</Timestamp><DateUtc dt:dt=""string"">2018-10-18T18:52:51Z</DateUtc></StartTime><FrequencyChanges><FrequencyChange><Frequency dt:dt=""r8"">3215292</Frequency><Timestamp dt:dt=""r8"">6147541858779</Timestamp><Current dt:dt=""r8"">0</Current><DateUtc dt:dt=""string"">2018-10-18T18:52:51Z</DateUtc></FrequencyChange></FrequencyChanges></Clock>\n",KW_Experiment5A-29-1,59.946,1.0.0.105,2,1444304324,Professional,2.0.10.353,2.0.10.353,10/18/2018,10/18/2018 18:52,14:52:52,2.0.10.248,3,2,1,3,,,,,,,,TrainingProc,BlockList,13,1,Distractor2.bmp,2,0,,0,1,388605,400,,0,0,yellow,400,1,400,,vertical,yellow,Distractor2.bmp,cyan,Distractor1.bmp,lime,Distractor1.bmp,blue,Distractor1.bmp,purple,Distractor2.bmp,red,Target1.bmp,,,,TrialProc,2,TrainingTrialList,1,1,-999999,0,389005,0,1,843,389848,Target1.bmp,red,1,,,,12,4,61
KW_Experiment5A,29,1,"<?xml version=""1.0""?>\n<Clock xmlns:dt=""urn:schemas-microsoft-com:datatypes""><Description dt:dt=""string"">E-Prime Primary Realtime Clock</Description><StartTime><Timestamp dt:dt=""int"">0</Timestamp><DateUtc dt:dt=""string"">2018-10-18T18:52:51Z</DateUtc></StartTime><FrequencyChanges><FrequencyChange><Frequency dt:dt=""r8"">3215292</Frequency><Timestamp dt:dt=""r8"">6147541858779</Timestamp><Current dt:dt=""r8"">0</Current><DateUtc dt:dt=""string"">2018-10-18T18:52:51Z</DateUtc></FrequencyChange></FrequencyChanges></Clock>\n",KW_Experiment5A-29-1,59.946,1.0.0.105,2,1444304324,Professional,2.0.10.353,2.0.10.353,10/18/2018,10/18/2018 18:52,14:52:52,2.0.10.248,3,2,1,3,,,,,,,,TrainingProc,BlockList,14,2,Distractor2.bmp,2,0,,0,1,390874,600,,0,0,lime,600,3,600,,horizontal,lime,Distractor1.bmp,yellow,Distractor1.bmp,purple,Distractor1.bmp,red,Target2.bmp,blue,Distractor2.bmp,cyan,Distractor2.bmp,,,,TrialProc,6,TrainingTrialList,1,2,-999999,0,391474,0,2,654,392128,Target2.bmp,red,2,,,,10,4,62
KW_Experiment5A,29,1,"<?xml version=""1.0""?>\n<Clock xmlns:dt=""urn:schemas-microsoft-com:datatypes""><Description dt:dt=""string"">E-Prime Primary Realtime Clock</Description><StartTime><Timestamp dt:dt=""int"">0</Timestamp><DateUtc dt:dt=""string"">2018-10-18T18:52:51Z</DateUtc></StartTime><FrequencyChanges><FrequencyChange><Frequency dt:dt=""r8"">3215292</Frequency><Timestamp dt:dt=""r8"">6147541858779</Timestamp><Current dt:dt=""r8"">0</Current><DateUtc dt:dt=""string"">2018-10-18T18:52:51Z</DateUtc></FrequencyChange></FrequencyChanges></Clock>\n",KW_Experiment5A-29-1,59.946,1.0.0.105,2,1444304324,Professional,2.0.10.353,2.0.10.353,10/18/2018,10/18/2018 18:52,14:52:52,2.0.10.248,3,2,1,3,,,,,,,,TrainingProc,BlockList,15,2,Distractor2.bmp,2,0,,0,1,393143,500,,0,0,blue,500,2,500,,horizontal,blue,Distractor2.bmp,red,Target2.bmp,purple,Distractor2.bmp,lime,Distractor2.bmp,cyan,Distractor2.bmp,yellow,Distractor1.bmp,,,,TrialProc,3,TrainingTrialList,1,2,-999999,0,393643,0,2,525,394168,Target2.bmp,red,2,,,,8,4,63
KW_Experiment5A,29,1,"<?xml version=""1.0""?>\n<Clock xmlns:dt=""urn:schemas-microsoft-com:datatypes""><Description dt:dt=""string"">E-Prime Primary Realtime Clock</Description><StartTime><Timestamp dt:dt=""int"">0</Timestamp><DateUtc dt:dt=""string"">2018-10-18T18:52:51Z</DateUtc></StartTime><FrequencyChanges><FrequencyChange><Frequency dt:dt=""r8"">3215292</Frequency><Timestamp dt:dt=""r8"">6147541858779</Timestamp><Current dt:dt=""r8"">0</Current><DateUtc dt:dt=""string"">2018-10-18T18:52:51Z</DateUtc></FrequencyChange></FrequencyChanges></Clock>\n",KW_Experiment5A-29-1,59.946,1.0.0.105,2,1444304324,Professional,2.0.10.353,2.0.10.353,10/18/2018,10/18/2018 18:52,14:52:52,2.0.10.248,3,2,1,3,,,,,,,,TrainingProc,BlockList,16,1,Distractor1.bmp,1,0,,0,0,395194,601,,0,0,purple,600,3,600,,vertical,purple,Distractor1.bmp,lime,Distractor2.bmp,yellow,Distractor1.bmp,red,Target1.bmp,blue,Distractor1.bmp,cyan,Distractor2.bmp,,,,TrialProc,5,TrainingTrialList,1,1,-999999,1,395795,0,1,581,396376,Target1.bmp,red,1,,,,10,4,64
KW_Experiment5A,29,1,"<?xml version=""1.0""?>\n<Clock xmlns:dt=""urn:schemas-microsoft-com:datatypes""><Description dt:dt=""string"">E-Prime Primary Realtime Clock</Description><StartTime><Timestamp dt:dt=""int"">0</Timestamp><DateUtc dt:dt=""string"">2018-10-18T18:52:51Z</DateUtc></StartTime><FrequencyChanges><FrequencyChange><Frequency dt:dt=""r8"">3215292</Frequency><Timestamp dt:dt=""r8"">6147541858779</Timestamp><Current dt:dt=""r8"">0</Current><DateUtc dt:dt=""string"">2018-10-18T18:52:51Z</DateUtc></FrequencyChange></FrequencyChanges></Clock>\n",KW_Experiment5A-29-1,59.946,1.0.0.105,2,1444304324,Professional,2.0.10.353,2.0.10.353,10/18/2018,10/18/2018 18:52,14:52:52,2.0.10.248,3,2,1,3,,,,,,,,TrainingProc,BlockList,17,2,Distractor2.bmp,2,0,,0,1,397396,501,,0,0,cyan,500,2,500,4,horizontal,lime,Target2.bmp,cyan,Distractor2.bmp,blue,Distractor1.bmp,yellow,Distractor1.bmp,purple,Distractor2.bmp,red,Distractor1.bmp,,,,TrialProc,,TrainingTrialList,1,2,-999999,1,397897,0,2,543,398440,Target2.bmp,lime,2,,,,1,4,65
KW_Experiment5A,29,1,"<?xml version=""1.0""?>\n<Clock xmlns:dt=""urn:schemas-microsoft-com:datatypes""><Description dt:dt=""string"">E-Prime Primary Realtime Clock</Description><StartTime><Timestamp dt:dt=""int"">0</Timestamp><DateUtc dt:dt=""string"">2018-10-18T18:52:51Z</DateUtc></StartTime><FrequencyChanges><FrequencyChange><Frequency dt:dt=""r8"">3215292</Frequency><Timestamp dt:dt=""r8"">6147541858779</Timestamp><Current dt:dt=""r8"">0</Current><DateUtc dt:dt=""string"">2018-10-18T18:52:51Z</DateUtc></FrequencyChange></FrequencyChanges></Clock>\n",KW_Experiment5A-29-1,59.946,1.0.0.105,2,1444304324,Professional,2.0.10.353,2.0.10.353,10/18/2018,10/18/2018 18:52,14:52:52,2.0.10.248,3,2,1,3,,,,,,,,TrainingProc,BlockList,18,1,Distractor1.bmp,1,0,,0,1,399465,400,,0,0,blue,400,1,400,,vertical,blue,Distractor1.bmp,red,Target1.bmp,lime,Distractor1.bmp,purple,Distractor2.bmp,cyan,Distractor2.bmp,yellow,Distractor2.bmp,,,,TrialProc,3,TrainingTrialList,1,1,-999999,0,399865,0,1,751,400616,Target1.bmp,red,1,,,,8,4,66
KW_Experiment5A,29,1,"<?xml version=""1.0""?>\n<Clock xmlns:dt=""urn:schemas-microsoft-com:datatypes""><Description dt:dt=""string"">E-Prime Primary Realtime Clock</Description><StartTime><Timestamp dt:dt=""int"">0</Timestamp><DateUtc dt:dt=""string"">2018-10-18T18:52:51Z</DateUtc></StartTime><FrequencyChanges><FrequencyChange><Frequency dt:dt=""r8"">3215292</Frequency><Timestamp dt:dt=""r8"">6147541858779</Timestamp><Current dt:dt=""r8"">0</Current><DateUtc dt:dt=""string"">2018-10-18T18:52:51Z</DateUtc></FrequencyChange></FrequencyChanges></Clock>\n",KW_Experiment5A-29-1,59.946,1.0.0.105,2,1444304324,Professional,2.0.10.353,2.0.10.353,10/18/2018,10/18/2018 18:52,14:52:52,2.0.10.248,3,2,1,3,,,,,,,,TrainingProc,BlockList,19,1,Distractor2.bmp,2,0,,0,1,401634,600,,0,0,yellow,600,3,600,,vertical,yellow,Distractor1.bmp,blue,Distractor1.bmp,cyan,Distractor1.bmp,lime,Distractor1.bmp,red,Target1.bmp,purple,Distractor2.bmp,,,,TrialProc,2,TrainingTrialList,1,1,-999999,0,402234,0,1,558,402792,Target1.bmp,red,1,,,,11,4,67
KW_Experiment5A,29,1,"<?xml version=""1.0""?>\n<Clock xmlns:dt=""urn:schemas-microsoft-com:datatypes""><Description dt:dt=""string"">E-Prime Primary Realtime Clock</Description><StartTime><Timestamp dt:dt=""int"">0</Timestamp><DateUtc dt:dt=""string"">2018-10-18T18:52:51Z</DateUtc></StartTime><FrequencyChanges><FrequencyChange><Frequency dt:dt=""r8"">3215292</Frequency><Timestamp dt:dt=""r8"">6147541858779</Timestamp><Current dt:dt=""r8"">0</Current><DateUtc dt:dt=""string"">2018-10-18T18:52:51Z</DateUtc></FrequencyChange></FrequencyChanges></Clock>\n",KW_Experiment5A-29-1,59.946,1.0.0.105,2,1444304324,Professional,2.0.10.353,2.0.10.353,10/18/2018,10/18/2018 18:52,14:52:52,2.0.10.248,3,2,1,3,,,,,,,,TrainingProc,BlockList,20,1,Distractor2.bmp,2,0,,0,1,403802,501,,0,0,cyan,500,2,500,,vertical,cyan,Distractor2.bmp,lime,Distractor2.bmp,blue,Distractor1.bmp,red,Target1.bmp,purple,Distractor2.bmp,yellow,Distractor2.bmp,,,,TrialProc,4,TrainingTrialList,1,1,-999999,1,404303,0,1,2345,406648,Target1.bmp,red,1,,,,10,4,68
KW_Experiment5A,29,1,"<?xml version=""1.0""?>\n<Clock xmlns:dt=""urn:schemas-microsoft-com:datatypes""><Description dt:dt=""string"">E-Prime Primary Realtime Clock</Description><StartTime><Timestamp dt:dt=""int"">0</Timestamp><DateUtc dt:dt=""string"">2018-10-18T18:52:51Z</DateUtc></StartTime><FrequencyChanges><FrequencyChange><Frequency dt:dt=""r8"">3215292</Frequency><Timestamp dt:dt=""r8"">6147541858779</Timestamp><Current dt:dt=""r8"">0</Current><DateUtc dt:dt=""string"">2018-10-18T18:52:51Z</DateUtc></FrequencyChange></FrequencyChanges></Clock>\n",KW_Experiment5A-29-1,59.946,1.0.0.105,2,1444304324,Professional,2.0.10.353,2.0.10.353,10/18/2018,10/18/2018 18:52,14:52:52,2.0.10.248,3,2,1,3,,,,,,,,TrainingProc,BlockList,21,1,Distractor2.bmp,2,0,,0,0,407672,401,,0,0,lime,400,1,400,,vertical,red,Target1.bmp,blue,Distractor2.bmp,purple,Distractor1.bmp,cyan,Distractor1.bmp,yellow,Distractor2.bmp,lime,Distractor1.bmp,,,,TrialProc,6,TrainingTrialList,1,1,-999999,1,408073,0,1,1207,409280,Target1.bmp,red,1,,,,7,4,69
KW_Experiment5A,29,1,"<?xml version=""1.0""?>\n<Clock xmlns:dt=""urn:schemas-microsoft-com:datatypes""><Description dt:dt=""string"">E-Prime Primary Realtime Clock</Description><StartTime><Timestamp dt:dt=""int"">0</Timestamp><DateUtc dt:dt=""string"">2018-10-18T18:52:51Z</DateUtc></StartTime><FrequencyChanges><FrequencyChange><Frequency dt:dt=""r8"">3215292</Frequency><Timestamp dt:dt=""r8"">6147541858779</Timestamp><Current dt:dt=""r8"">0</Current><DateUtc dt:dt=""string"">2018-10-18T18:52:51Z</DateUtc></FrequencyChange></FrequencyChanges></Clock>\n",KW_Experiment5A-29-1,59.946,1.0.0.105,2,1444304324,Professional,2.0.10.353,2.0.10.353,10/18/2018,10/18/2018 18:52,14:52:52,2.0.10.248,3,2,1,3,,,,,,,,TrainingProc,BlockList,22,2,Distractor1.bmp,1,0,,1,0,410291,601,,0,0,purple,600,3,600,5,horizontal,purple,Distractor1.bmp,yellow,Distractor2.bmp,red,Distractor1.bmp,blue,Distractor2.bmp,cyan,Distractor1.bmp,lime,Target2.bmp,,,,TrialProc,,TrainingTrialList,1,2,-999999,1,410892,0,2,484,411376,Target2.bmp,lime,2,,,,6,4,70
KW_Experiment5A,29,1,"<?xml version=""1.0""?>\n<Clock xmlns:dt=""urn:schemas-microsoft-com:datatypes""><Description dt:dt=""string"">E-Prime Primary Realtime Clock</Description><StartTime><Timestamp dt:dt=""int"">0</Timestamp><DateUtc dt:dt=""string"">2018-10-18T18:52:51Z</DateUtc></StartTime><FrequencyChanges><FrequencyChange><Frequency dt:dt=""r8"">3215292</Frequency><Timestamp dt:dt=""r8"">6147541858779</Timestamp><Current dt:dt=""r8"">0</Current><DateUtc dt:dt=""string"">2018-10-18T18:52:51Z</DateUtc></FrequencyChange></FrequencyChanges></Clock>\n",KW_Experiment5A-29-1,59.946,1.0.0.105,2,1444304324,Professional,2.0.10.353,2.0.10.353,10/18/2018,10/18/2018 18:52,14:52:52,2.0.10.248,3,2,1,3,,,,,,,,TrainingProc,BlockList,23,1,Distractor2.bmp,2,0,,0,1,412393,401,,0,0,blue,400,1,400,,vertical,red,Target1.bmp,lime,Distractor2.bmp,purple,Distractor2.bmp,yellow,Distractor2.bmp,cyan,Distractor2.bmp,blue,Distractor1.bmp,,,,TrialProc,3,TrainingTrialList,1,1,-999999,1,412794,0,1,798,413592,Target1.bmp,red,1,,,,7,4,71
KW_Experiment5A,29,1,"<?xml version=""1.0""?>\n<Clock xmlns:dt=""urn:schemas-microsoft-com:datatypes""><Description dt:dt=""string"">E-Prime Primary Realtime Clock</Description><StartTime><Timestamp dt:dt=""int"">0</Timestamp><DateUtc dt:dt=""string"">2018-10-18T18:52:51Z</DateUtc></StartTime><FrequencyChanges><FrequencyChange><Frequency dt:dt=""r8"">3215292</Frequency><Timestamp dt:dt=""r8"">6147541858779</Timestamp><Current dt:dt=""r8"">0</Current><DateUtc dt:dt=""string"">2018-10-18T18:52:51Z</DateUtc></FrequencyChange></FrequencyChanges></Clock>\n",KW_Experiment5A-29-1,59.946,1.0.0.105,2,1444304324,Professional,2.0.10.353,2.0.10.353,10/18/2018,10/18/2018 18:52,14:52:52,2.0.10.248,3,2,1,3,,,,,,,,TrainingProc,BlockList,24,2,Distractor2.bmp,2,0,,0,1,414612,400,,0,0,cyan,400,1,400,4,horizontal,cyan,Distractor2.bmp,red,Distractor1.bmp,purple,Distractor1.bmp,lime,Target2.bmp,yellow,Distractor2.bmp,blue,Distractor1.bmp,,,,TrialProc,,TrainingTrialList,1,2,-999999,0,415012,0,2,596,415608,Target2.bmp,lime,2,,,,4,4,72
KW_Experiment5A,29,1,"<?xml version=""1.0""?>\n<Clock xmlns:dt=""urn:schemas-microsoft-com:datatypes""><Description dt:dt=""string"">E-Prime Primary Realtime Clock</Description><StartTime><Timestamp dt:dt=""int"">0</Timestamp><DateUtc dt:dt=""string"">2018-10-18T18:52:51Z</DateUtc></StartTime><FrequencyChanges><FrequencyChange><Frequency dt:dt=""r8"">3215292</Frequency><Timestamp dt:dt=""r8"">6147541858779</Timestamp><Current dt:dt=""r8"">0</Current><DateUtc dt:dt=""string"">2018-10-18T18:52:51Z</DateUtc></FrequencyChange></FrequencyChanges></Clock>\n",KW_Experiment5A-29-1,59.946,1.0.0.105,2,1444304324,Professional,2.0.10.353,2.0.10.353,10/18/2018,10/18/2018 18:52,14:52:52,2.0.10.248,3,2,1,3,,,,,,,,TrainingProc,BlockList,25,2,Distractor1.bmp,1,0,,0,1,416631,600,,0,0,purple,600,3,600,5,horizontal,purple,Distractor2.bmp,lime,Target2.bmp,red,Distractor1.bmp,yellow,Distractor1.bmp,cyan,Distractor2.bmp,blue,Distractor1.bmp,,,,TrialProc,,TrainingTrialList,0,2,-999999,0,417231,0,1,577,417808,Target2.bmp,lime,2,,,,2,5,73
KW_Experiment5A,29,1,"<?xml version=""1.0""?>\n<Clock xmlns:dt=""urn:schemas-microsoft-com:datatypes""><Description dt:dt=""string"">E-Prime Primary Realtime Clock</Description><StartTime><Timestamp dt:dt=""int"">0</Timestamp><DateUtc dt:dt=""string"">2018-10-18T18:52:51Z</DateUtc></StartTime><FrequencyChanges><FrequencyChange><Frequency dt:dt=""r8"">3215292</Frequency><Timestamp dt:dt=""r8"">6147541858779</Timestamp><Current dt:dt=""r8"">0</Current><DateUtc dt:dt=""string"">2018-10-18T18:52:51Z</DateUtc></FrequencyChange></FrequencyChanges></Clock>\n",KW_Experiment5A-29-1,59.946,1.0.0.105,2,1444304324,Professional,2.0.10.353,2.0.10.353,10/18/2018,10/18/2018 18:52,14:52:52,2.0.10.248,3,2,1,3,,,,,,,,TrainingProc,BlockList,26,2,Distractor2.bmp,2,0,,0,1,418833,500,,0,0,blue,500,2,500,,horizontal,blue,Distractor1.bmp,yellow,Distractor1.bmp,cyan,Distractor2.bmp,red,Target2.bmp,purple,Distractor2.bmp,lime,Distractor2.bmp,,,,TrialProc,3,TrainingTrialList,1,2,-999999,0,419333,0,2,707,420040,Target2.bmp,red,2,,,,10,5,74
KW_Experiment5A,29,1,"<?xml version=""1.0""?>\n<Clock xmlns:dt=""urn:schemas-microsoft-com:datatypes""><Description dt:dt=""string"">E-Prime Primary Realtime Clock</Description><StartTime><Timestamp dt:dt=""int"">0</Timestamp><DateUtc dt:dt=""string"">2018-10-18T18:52:51Z</DateUtc></StartTime><FrequencyChanges><FrequencyChange><Frequency dt:dt=""r8"">3215292</Frequency><Timestamp dt:dt=""r8"">6147541858779</Timestamp><Current dt:dt=""r8"">0</Current><DateUtc dt:dt=""string"">2018-10-18T18:52:51Z</DateUtc></FrequencyChange></FrequencyChanges></Clock>\n",KW_Experiment5A-29-1,59.946,1.0.0.105,2,1444304324,Professional,2.0.10.353,2.0.10.353,10/18/2018,10/18/2018 18:52,14:52:52,2.0.10.248,3,2,1,3,,,,,,,,TrainingProc,BlockList,27,1,Distractor1.bmp,1,0,,0,1,421051,501,,0,0,red,500,2,500,1,vertical,red,Distractor1.bmp,cyan,Distractor1.bmp,blue,Distractor1.bmp,purple,Distractor2.bmp,yellow,Distractor1.bmp,lime,Target1.bmp,,,,TrialProc,,TrainingTrialList,1,1,-999999,1,421552,0,1,648,422200,Target1.bmp,lime,1,,,,6,5,75
KW_Experiment5A,29,1,"<?xml version=""1.0""?>\n<Clock xmlns:dt=""urn:schemas-microsoft-com:datatypes""><Description dt:dt=""string"">E-Prime Primary Realtime Clock</Description><StartTime><Timestamp dt:dt=""int"">0</Timestamp><DateUtc dt:dt=""string"">2018-10-18T18:52:51Z</DateUtc></StartTime><FrequencyChanges><FrequencyChange><Frequency dt:dt=""r8"">3215292</Frequency><Timestamp dt:dt=""r8"">6147541858779</Timestamp><Current dt:dt=""r8"">0</Current><DateUtc dt:dt=""string"">2018-10-18T18:52:51Z</DateUtc></FrequencyChange></FrequencyChanges></Clock>\n",KW_Experiment5A-29-1,59.946,1.0.0.105,2,1444304324,Professional,2.0.10.353,2.0.10.353,10/18/2018,10/18/2018 18:52,14:52:52,2.0.10.248,3,2,1,3,,,,,,,,TrainingProc,BlockList,28,2,Distractor2.bmp,2,0,,0,1,423220,600,,0,0,lime,600,3,600,,horizontal,lime,Distractor1.bmp,purple,Distractor2.bmp,cyan,Distractor1.bmp,red,Target2.bmp,blue,Distractor2.bmp,yellow,Distractor2.bmp,,,,TrialProc,6,TrainingTrialList,1,2,-999999,0,423820,0,2,996,424816,Target2.bmp,red,2,,,,10,5,76
KW_Experiment5A,29,1,"<?xml version=""1.0""?>\n<Clock xmlns:dt=""urn:schemas-microsoft-com:datatypes""><Description dt:dt=""string"">E-Prime Primary Realtime Clock</Description><StartTime><Timestamp dt:dt=""int"">0</Timestamp><DateUtc dt:dt=""string"">2018-10-18T18:52:51Z</DateUtc></StartTime><FrequencyChanges><FrequencyChange><Frequency dt:dt=""r8"">3215292</Frequency><Timestamp dt:dt=""r8"">6147541858779</Timestamp><Current dt:dt=""r8"">0</Current><DateUtc dt:dt=""string"">2018-10-18T18:52:51Z</DateUtc></FrequencyChange></FrequencyChanges></Clock>\n",KW_Experiment5A-29-1,59.946,1.0.0.105,2,1444304324,Professional,2.0.10.353,2.0.10.353,10/18/2018,10/18/2018 18:52,14:52:52,2.0.10.248,3,2,1,3,,,,,,,,TrainingProc,BlockList,29,2,Distractor1.bmp,1,0,,0,1,425839,400,,0,0,cyan,400,1,400,4,horizontal,cyan,Distractor1.bmp,red,Distractor2.bmp,lime,Target2.bmp,blue,Distractor1.bmp,purple,Distractor1.bmp,yellow,Distractor2.bmp,,,,TrialProc,,TrainingTrialList,1,2,-999999,0,426239,0,2,568,426807,Target2.bmp,lime,2,,,,3,5,77
KW_Experiment5A,29,1,"<?xml version=""1.0""?>\n<Clock xmlns:dt=""urn:schemas-microsoft-com:datatypes""><Description dt:dt=""string"">E-Prime Primary Realtime Clock</Description><StartTime><Timestamp dt:dt=""int"">0</Timestamp><DateUtc dt:dt=""string"">2018-10-18T18:52:51Z</DateUtc></StartTime><FrequencyChanges><FrequencyChange><Frequency dt:dt=""r8"">3215292</Frequency><Timestamp dt:dt=""r8"">6147541858779</Timestamp><Current dt:dt=""r8"">0</Current><DateUtc dt:dt=""string"">2018-10-18T18:52:51Z</DateUtc></FrequencyChange></FrequencyChanges></Clock>\n",KW_Experiment5A-29-1,59.946,1.0.0.105,2,1444304324,Professional,2.0.10.353,2.0.10.353,10/18/2018,10/18/2018 18:52,14:52:52,2.0.10.248,3,2,1,3,,,,,,,,TrainingProc,BlockList,30,2,Distractor2.bmp,2,0,,0,1,427824,400,,0,0,purple,400,1,400,,horizontal,red,Target2.bmp,blue,Distractor2.bmp,yellow,Distractor2.bmp,lime,Distractor1.bmp,cyan,Distractor2.bmp,purple,Distractor1.bmp,,,,TrialProc,5,TrainingTrialList,1,2,-999999,0,428224,0,2,823,429047,Target2.bmp,red,2,,,,7,5,78
KW_Experiment5A,29,1,"<?xml version=""1.0""?>\n<Clock xmlns:dt=""urn:schemas-microsoft-com:datatypes""><Description dt:dt=""string"">E-Prime Primary Realtime Clock</Description><StartTime><Timestamp dt:dt=""int"">0</Timestamp><DateUtc dt:dt=""string"">2018-10-18T18:52:51Z</DateUtc></StartTime><FrequencyChanges><FrequencyChange><Frequency dt:dt=""r8"">3215292</Frequency><Timestamp dt:dt=""r8"">6147541858779</Timestamp><Current dt:dt=""r8"">0</Current><DateUtc dt:dt=""string"">2018-10-18T18:52:51Z</DateUtc></FrequencyChange></FrequencyChanges></Clock>\n",KW_Experiment5A-29-1,59.946,1.0.0.105,2,1444304324,Professional,2.0.10.353,2.0.10.353,10/18/2018,10/18/2018 18:52,14:52:52,2.0.10.248,3,2,1,3,,,,,,,,TrainingProc,BlockList,31,2,Distractor1.bmp,1,0,,0,1,430059,501,,0,0,yellow,500,2,500,,horizontal,yellow,Distractor2.bmp,lime,Distractor1.bmp,red,Target2.bmp,purple,Distractor1.bmp,blue,Distractor2.bmp,cyan,Distractor1.bmp,,,,TrialProc,2,TrainingTrialList,1,2,-999999,1,430560,0,2,1255,431815,Target2.bmp,red,2,,,,9,5,79
KW_Experiment5A,29,1,"<?xml version=""1.0""?>\n<Clock xmlns:dt=""urn:schemas-microsoft-com:datatypes""><Description dt:dt=""string"">E-Prime Primary Realtime Clock</Description><StartTime><Timestamp dt:dt=""int"">0</Timestamp><DateUtc dt:dt=""string"">2018-10-18T18:52:51Z</DateUtc></StartTime><FrequencyChanges><FrequencyChange><Frequency dt:dt=""r8"">3215292</Frequency><Timestamp dt:dt=""r8"">6147541858779</Timestamp><Current dt:dt=""r8"">0</Current><DateUtc dt:dt=""string"">2018-10-18T18:52:51Z</DateUtc></FrequencyChange></FrequencyChanges></Clock>\n",KW_Experiment5A-29-1,59.946,1.0.0.105,2,1444304324,Professional,2.0.10.353,2.0.10.353,10/18/2018,10/18/2018 18:52,14:52:52,2.0.10.248,3,2,1,3,,,,,,,,TrainingProc,BlockList,32,1,Distractor2.bmp,2,0,,0,1,432829,600,,0,0,purple,600,3,600,,vertical,purple,Distractor2.bmp,lime,Distractor2.bmp,blue,Distractor1.bmp,cyan,Distractor2.bmp,yellow,Distractor1.bmp,red,Target1.bmp,,,,TrialProc,5,TrainingTrialList,1,1,-999999,0,433429,0,1,1106,434535,Target1.bmp,red,1,,,,12,5,80
KW_Experiment5A,29,1,"<?xml version=""1.0""?>\n<Clock xmlns:dt=""urn:schemas-microsoft-com:datatypes""><Description dt:dt=""string"">E-Prime Primary Realtime Clock</Description><StartTime><Timestamp dt:dt=""int"">0</Timestamp><DateUtc dt:dt=""string"">2018-10-18T18:52:51Z</DateUtc></StartTime><FrequencyChanges><FrequencyChange><Frequency dt:dt=""r8"">3215292</Frequency><Timestamp dt:dt=""r8"">6147541858779</Timestamp><Current dt:dt=""r8"">0</Current><DateUtc dt:dt=""string"">2018-10-18T18:52:51Z</DateUtc></FrequencyChange></FrequencyChanges></Clock>\n",KW_Experiment5A-29-1,59.946,1.0.0.105,2,1444304324,Professional,2.0.10.353,2.0.10.353,10/18/2018,10/18/2018 18:52,14:52:52,2.0.10.248,3,2,1,3,,,,,,,,TrainingProc,BlockList,33,1,Distractor1.bmp,1,0,,0,1,435548,500,,0,0,lime,500,2,500,,vertical,red,Target1.bmp,cyan,Distractor1.bmp,purple,Distractor1.bmp,yellow,Distractor1.bmp,blue,Distractor1.bmp,lime,Distractor1.bmp,,,,TrialProc,6,TrainingTrialList,1,1,-999999,0,436048,0,1,727,436775,Target1.bmp,red,1,,,,7,5,81
KW_Experiment5A,29,1,"<?xml version=""1.0""?>\n<Clock xmlns:dt=""urn:schemas-microsoft-com:datatypes""><Description dt:dt=""string"">E-Prime Primary Realtime Clock</Description><StartTime><Timestamp dt:dt=""int"">0</Timestamp><DateUtc dt:dt=""string"">2018-10-18T18:52:51Z</DateUtc></StartTime><FrequencyChanges><FrequencyChange><Frequency dt:dt=""r8"">3215292</Frequency><Timestamp dt:dt=""r8"">6147541858779</Timestamp><Current dt:dt=""r8"">0</Current><DateUtc dt:dt=""string"">2018-10-18T18:52:51Z</DateUtc></FrequencyChange></FrequencyChanges></Clock>\n",KW_Experiment5A-29-1,59.946,1.0.0.105,2,1444304324,Professional,2.0.10.353,2.0.10.353,10/18/2018,10/18/2018 18:52,14:52:52,2.0.10.248,3,2,1,3,,,,,,,,TrainingProc,BlockList,34,1,Distractor2.bmp,2,0,,0,1,437800,400,,0,0,lime,400,1,400,,vertical,lime,Distractor2.bmp,cyan,Distractor1.bmp,yellow,Distractor1.bmp,blue,Distractor1.bmp,red,Target1.bmp,purple,Distractor2.bmp,,,,TrialProc,6,TrainingTrialList,1,1,-999999,0,438200,0,1,599,438799,Target1.bmp,red,1,,,,11,5,82
KW_Experiment5A,29,1,"<?xml version=""1.0""?>\n<Clock xmlns:dt=""urn:schemas-microsoft-com:datatypes""><Description dt:dt=""string"">E-Prime Primary Realtime Clock</Description><StartTime><Timestamp dt:dt=""int"">0</Timestamp><DateUtc dt:dt=""string"">2018-10-18T18:52:51Z</DateUtc></StartTime><FrequencyChanges><FrequencyChange><Frequency dt:dt=""r8"">3215292</Frequency><Timestamp dt:dt=""r8"">6147541858779</Timestamp><Current dt:dt=""r8"">0</Current><DateUtc dt:dt=""string"">2018-10-18T18:52:51Z</DateUtc></FrequencyChange></FrequencyChanges></Clock>\n",KW_Experiment5A-29-1,59.946,1.0.0.105,2,1444304324,Professional,2.0.10.353,2.0.10.353,10/18/2018,10/18/2018 18:52,14:52:52,2.0.10.248,3,2,1,3,,,,,,,,TrainingProc,BlockList,35,2,Distractor2.bmp,2,0,,0,1,439818,601,,0,0,lime,600,3,600,,horizontal,lime,Distractor2.bmp,cyan,Distractor1.bmp,purple,Distractor2.bmp,yellow,Distractor2.bmp,red,Target2.bmp,blue,Distractor2.bmp,,,,TrialProc,6,TrainingTrialList,1,2,-999999,1,440419,0,2,452,440871,Target2.bmp,red,2,,,,11,5,83
KW_Experiment5A,29,1,"<?xml version=""1.0""?>\n<Clock xmlns:dt=""urn:schemas-microsoft-com:datatypes""><Description dt:dt=""string"">E-Prime Primary Realtime Clock</Description><StartTime><Timestamp dt:dt=""int"">0</Timestamp><DateUtc dt:dt=""string"">2018-10-18T18:52:51Z</DateUtc></StartTime><FrequencyChanges><FrequencyChange><Frequency dt:dt=""r8"">3215292</Frequency><Timestamp dt:dt=""r8"">6147541858779</Timestamp><Current dt:dt=""r8"">0</Current><DateUtc dt:dt=""string"">2018-10-18T18:52:51Z</DateUtc></FrequencyChange></FrequencyChanges></Clock>\n",KW_Experiment5A-29-1,59.946,1.0.0.105,2,1444304324,Professional,2.0.10.353,2.0.10.353,10/18/2018,10/18/2018 18:52,14:52:52,2.0.10.248,3,2,1,3,,,,,,,,TrainingProc,BlockList,36,1,Distractor1.bmp,1,0,,0,1,441887,400,,0,0,cyan,400,1,400,4,vertical,lime,Target1.bmp,cyan,Distractor1.bmp,blue,Distractor2.bmp,purple,Distractor2.bmp,yellow,Distractor1.bmp,red,Distractor2.bmp,,,,TrialProc,,TrainingTrialList,1,1,-999999,0,442287,0,1,840,443127,Target1.bmp,lime,1,,,,1,5,84
KW_Experiment5A,29,1,"<?xml version=""1.0""?>\n<Clock xmlns:dt=""urn:schemas-microsoft-com:datatypes""><Description dt:dt=""string"">E-Prime Primary Realtime Clock</Description><StartTime><Timestamp dt:dt=""int"">0</Timestamp><DateUtc dt:dt=""string"">2018-10-18T18:52:51Z</DateUtc></StartTime><FrequencyChanges><FrequencyChange><Frequency dt:dt=""r8"">3215292</Frequency><Timestamp dt:dt=""r8"">6147541858779</Timestamp><Current dt:dt=""r8"">0</Current><DateUtc dt:dt=""string"">2018-10-18T18:52:51Z</DateUtc></FrequencyChange></FrequencyChanges></Clock>\n",KW_Experiment5A-29-1,59.946,1.0.0.105,2,1444304324,Professional,2.0.10.353,2.0.10.353,10/18/2018,10/18/2018 18:52,14:52:52,2.0.10.248,3,2,1,3,,,,,,,,TrainingProc,BlockList,37,1,Distractor2.bmp,2,0,,0,1,444139,600,,0,0,cyan,600,3,600,,vertical,cyan,Distractor2.bmp,yellow,Distractor1.bmp,purple,Distractor1.bmp,lime,Distractor2.bmp,blue,Distractor2.bmp,red,Target1.bmp,,,,TrialProc,4,TrainingTrialList,1,1,-999999,0,444739,0,1,740,445479,Target1.bmp,red,1,,,,12,5,85
KW_Experiment5A,29,1,"<?xml version=""1.0""?>\n<Clock xmlns:dt=""urn:schemas-microsoft-com:datatypes""><Description dt:dt=""string"">E-Prime Primary Realtime Clock</Description><StartTime><Timestamp dt:dt=""int"">0</Timestamp><DateUtc dt:dt=""string"">2018-10-18T18:52:51Z</DateUtc></StartTime><FrequencyChanges><FrequencyChange><Frequency dt:dt=""r8"">3215292</Frequency><Timestamp dt:dt=""r8"">6147541858779</Timestamp><Current dt:dt=""r8"">0</Current><DateUtc dt:dt=""string"">2018-10-18T18:52:51Z</DateUtc></FrequencyChange></FrequencyChanges></Clock>\n",KW_Experiment5A-29-1,59.946,1.0.0.105,2,1444304324,Professional,2.0.10.353,2.0.10.353,10/18/2018,10/18/2018 18:52,14:52:52,2.0.10.248,3,2,1,3,,,,,,,,TrainingProc,BlockList,38,1,Distractor2.bmp,2,0,,0,1,446491,400,,0,0,purple,400,1,400,5,vertical,purple,Distractor2.bmp,red,Distractor2.bmp,blue,Distractor1.bmp,lime,Target1.bmp,yellow,Distractor2.bmp,cyan,Distractor2.bmp,,,,TrialProc,,TrainingTrialList,1,1,-999999,0,446891,0,1,820,447711,Target1.bmp,lime,1,,,,4,5,86
KW_Experiment5A,29,1,"<?xml version=""1.0""?>\n<Clock xmlns:dt=""urn:schemas-microsoft-com:datatypes""><Description dt:dt=""string"">E-Prime Primary Realtime Clock</Description><StartTime><Timestamp dt:dt=""int"">0</Timestamp><DateUtc dt:dt=""string"">2018-10-18T18:52:51Z</DateUtc></StartTime><FrequencyChanges><FrequencyChange><Frequency dt:dt=""r8"">3215292</Frequency><Timestamp dt:dt=""r8"">6147541858779</Timestamp><Current dt:dt=""r8"">0</Current><DateUtc dt:dt=""string"">2018-10-18T18:52:51Z</DateUtc></FrequencyChange></FrequencyChanges></Clock>\n",KW_Experiment5A-29-1,59.946,1.0.0.105,2,1444304324,Professional,2.0.10.353,2.0.10.353,10/18/2018,10/18/2018 18:52,14:52:52,2.0.10.248,3,2,1,3,,,,,,,,TrainingProc,BlockList,39,2,Distractor1.bmp,1,0,,0,1,448726,401,,0,0,yellow,400,1,400,2,horizontal,yellow,Distractor1.bmp,blue,Distractor1.bmp,purple,Distractor1.bmp,red,Distractor1.bmp,lime,Target2.bmp,cyan,Distractor1.bmp,,,,TrialProc,,TrainingTrialList,1,2,-999999,1,449127,0,2,824,449951,Target2.bmp,lime,2,,,,5,5,87
KW_Experiment5A,29,1,"<?xml version=""1.0""?>\n<Clock xmlns:dt=""urn:schemas-microsoft-com:datatypes""><Description dt:dt=""string"">E-Prime Primary Realtime Clock</Description><StartTime><Timestamp dt:dt=""int"">0</Timestamp><DateUtc dt:dt=""string"">2018-10-18T18:52:51Z</DateUtc></StartTime><FrequencyChanges><FrequencyChange><Frequency dt:dt=""r8"">3215292</Frequency><Timestamp dt:dt=""r8"">6147541858779</Timestamp><Current dt:dt=""r8"">0</Current><DateUtc dt:dt=""string"">2018-10-18T18:52:51Z</DateUtc></FrequencyChange></FrequencyChanges></Clock>\n",KW_Experiment5A-29-1,59.946,1.0.0.105,2,1444304324,Professional,2.0.10.353,2.0.10.353,10/18/2018,10/18/2018 18:52,14:52:52,2.0.10.248,3,2,1,3,,,,,,,,TrainingProc,BlockList,40,1,Distractor2.bmp,2,0,,0,1,450962,500,,0,0,yellow,500,2,500,,vertical,yellow,Distractor1.bmp,red,Target1.bmp,purple,Distractor2.bmp,cyan,Distractor2.bmp,blue,Distractor2.bmp,lime,Distractor1.bmp,,,,TrialProc,2,TrainingTrialList,1,1,-999999,0,451462,0,1,665,452127,Target1.bmp,red,1,,,,8,5,88
KW_Experiment5A,29,1,"<?xml version=""1.0""?>\n<Clock xmlns:dt=""urn:schemas-microsoft-com:datatypes""><Description dt:dt=""string"">E-Prime Primary Realtime Clock</Description><StartTime><Timestamp dt:dt=""int"">0</Timestamp><DateUtc dt:dt=""string"">2018-10-18T18:52:51Z</DateUtc></StartTime><FrequencyChanges><FrequencyChange><Frequency dt:dt=""r8"">3215292</Frequency><Timestamp dt:dt=""r8"">6147541858779</Timestamp><Current dt:dt=""r8"">0</Current><DateUtc dt:dt=""string"">2018-10-18T18:52:51Z</DateUtc></FrequencyChange></FrequencyChanges></Clock>\n",KW_Experiment5A-29-1,59.946,1.0.0.105,2,1444304324,Professional,2.0.10.353,2.0.10.353,10/18/2018,10/18/2018 18:52,14:52:52,2.0.10.248,3,2,1,3,,,,,,,,TrainingProc,BlockList,41,1,Distractor1.bmp,1,0,,0,1,453147,601,,0,0,purple,600,3,600,,vertical,purple,Distractor2.bmp,red,Target1.bmp,blue,Distractor1.bmp,yellow,Distractor2.bmp,cyan,Distractor2.bmp,lime,Distractor1.bmp,,,,TrialProc,5,TrainingTrialList,1,1,-999999,1,453748,0,1,579,454327,Target1.bmp,red,1,,,,8,5,89
KW_Experiment5A,29,1,"<?xml version=""1.0""?>\n<Clock xmlns:dt=""urn:schemas-microsoft-com:datatypes""><Description dt:dt=""string"">E-Prime Primary Realtime Clock</Description><StartTime><Timestamp dt:dt=""int"">0</Timestamp><DateUtc dt:dt=""string"">2018-10-18T18:52:51Z</DateUtc></StartTime><FrequencyChanges><FrequencyChange><Frequency dt:dt=""r8"">3215292</Frequency><Timestamp dt:dt=""r8"">6147541858779</Timestamp><Current dt:dt=""r8"">0</Current><DateUtc dt:dt=""string"">2018-10-18T18:52:51Z</DateUtc></FrequencyChange></FrequencyChanges></Clock>\n",KW_Experiment5A-29-1,59.946,1.0.0.105,2,1444304324,Professional,2.0.10.353,2.0.10.353,10/18/2018,10/18/2018 18:52,14:52:52,2.0.10.248,3,2,1,3,,,,,,,,TrainingProc,BlockList,42,2,Distractor2.bmp,2,0,,0,1,455349,400,,0,0,purple,400,1,400,,horizontal,purple,Distractor2.bmp,cyan,Distractor1.bmp,yellow,Distractor1.bmp,lime,Distractor2.bmp,blue,Distractor2.bmp,red,Target2.bmp,,,,TrialProc,5,TrainingTrialList,1,2,-999999,0,455749,0,2,690,456439,Target2.bmp,red,2,,,,12,5,90
