ExperimentName,Subject,Session,Clock.Information,DataFile.Basename,Display.RefreshRate,ExperimentVersion,Group,RandomSeed,RuntimeCapabilities,RuntimeVersion,RuntimeVersionExpected,SessionDate,SessionStartDateTimeUtc,SessionTime,StudioVersion,Block,BlockList,BlockList.Cycle,BlockList.Sample,PostTestQ1.RESP,PostTestQ1CJ.RESP,PostTestQ2.RESP,PostTestQ2CJ.RESP,PostTestQ3.RESP,PostTestQ3CJ.RESP,PostTestSlide.RESP,Procedure[Block],Running[Block],Trial,CorrectResponse,Distractor,DistractorList,Fixation.ACC,Fixation.CRESP,Fixation.DurationError,Fixation.OnsetDelay,Fixation.OnsetTime,Fixation.OnsetToOnsetTime,Fixation.RESP,Fixation.RT,Fixation.RTTime,ItemColor,Jitter,JitterList,JitterTime,Lime0List,Orientation,Pos1Color,Pos1Item,Pos2Color,Pos2Item,Pos3Color,Pos3Item,Pos4Color,Pos4Item,Pos5Color,Pos5Item,Pos6Color,Pos6Item,PracticeTrialList,PracticeTrialList.Cycle,PracticeTrialList.Sample,Procedure[Trial],Red0List,Running[Trial],Stimulus.ACC,Stimulus.CRESP,Stimulus.DurationError,Stimulus.OnsetDelay,Stimulus.OnsetTime,Stimulus.OnsetToOnsetTime,Stimulus.RESP,Stimulus.RT,Stimulus.RTTime,Target,TargetColor,TargetList,TestTrialList,TestTrialList.Cycle,TestTrialList.Sample,TrainingTrialList,TrainingTrialList.Cycle,TrainingTrialList.Sample
KW_Experiment5A,11,1,"<?xml version=""1.0""?>\n<Clock xmlns:dt=""urn:schemas-microsoft-com:datatypes""><Description dt:dt=""string"">E-Prime Primary Realtime Clock</Description><StartTime><Timestamp dt:dt=""int"">0</Timestamp><DateUtc dt:dt=""string"">2018-10-10T18:01:02Z</DateUtc></StartTime><FrequencyChanges><FrequencyChange><Frequency dt:dt=""r8"">3215292</Frequency><Timestamp dt:dt=""r8"">3915201700379</Timestamp><Current dt:dt=""r8"">0</Current><DateUtc dt:dt=""string"">2018-10-10T18:01:02Z</DateUtc></FrequencyChange></FrequencyChanges></Clock>\n",KW_Experiment5A-11-1,59.945,1.0.0.105,1,-1807855114,Professional,2.0.10.353,2.0.10.353,10/10/2018,10/10/2018 18:01,14:01:02,2.0.10.248,1,1,1,1,,,,,,,,PracticeProc,BlockList,1,1,Distractor2.bmp,2,0,,0,49,68770,601,,0,0,purple,600,3,600,5,vertical,red,Distractor2.bmp,purple,Distractor1.bmp,lime,Target1.bmp,cyan,Distractor2.bmp,yellow,Distractor2.bmp,blue,Distractor1.bmp,3,1,1,TrialProc,,PracticeTrialList,1,1,-999999,1,69371,0,1,1190,70561,Target1.bmp,lime,1,,,,,,
KW_Experiment5A,11,1,"<?xml version=""1.0""?>\n<Clock xmlns:dt=""urn:schemas-microsoft-com:datatypes""><Description dt:dt=""string"">E-Prime Primary Realtime Clock</Description><StartTime><Timestamp dt:dt=""int"">0</Timestamp><DateUtc dt:dt=""string"">2018-10-10T18:01:02Z</DateUtc></StartTime><FrequencyChanges><FrequencyChange><Frequency dt:dt=""r8"">3215292</Frequency><Timestamp dt:dt=""r8"">3915201700379</Timestamp><Current dt:dt=""r8"">0</Current><DateUtc dt:dt=""string"">2018-10-10T18:01:02Z</DateUtc></FrequencyChange></FrequencyChanges></Clock>\n",KW_Experiment5A-11-1,59.945,1.0.0.105,1,-1807855114,Professional,2.0.10.353,2.0.10.353,10/10/2018,10/10/2018 18:01,14:01:02,2.0.10.248,1,1,1,1,,,,,,,,PracticeProc,BlockList,2,1,Distractor2.bmp,2,0,,0,1,71589,601,,0,0,purple,600,3,600,,vertical,purple,Distractor1.bmp,red,Target1.bmp,cyan,Distractor2.bmp,lime,Distractor2.bmp,blue,Distractor1.bmp,yellow,Distractor1.bmp,2,1,2,TrialProc,5,PracticeTrialList,1,1,-999999,1,72190,0,1,731,72921,Target1.bmp,red,1,,,,,,
KW_Experiment5A,11,1,"<?xml version=""1.0""?>\n<Clock xmlns:dt=""urn:schemas-microsoft-com:datatypes""><Description dt:dt=""string"">E-Prime Primary Realtime Clock</Description><StartTime><Timestamp dt:dt=""int"">0</Timestamp><DateUtc dt:dt=""string"">2018-10-10T18:01:02Z</DateUtc></StartTime><FrequencyChanges><FrequencyChange><Frequency dt:dt=""r8"">3215292</Frequency><Timestamp dt:dt=""r8"">3915201700379</Timestamp><Current dt:dt=""r8"">0</Current><DateUtc dt:dt=""string"">2018-10-10T18:01:02Z</DateUtc></FrequencyChange></FrequencyChanges></Clock>\n",KW_Experiment5A-11-1,59.945,1.0.0.105,1,-1807855114,Professional,2.0.10.353,2.0.10.353,10/10/2018,10/10/2018 18:01,14:01:02,2.0.10.248,1,1,1,1,,,,,,,,PracticeProc,BlockList,3,1,Distractor1.bmp,1,0,,0,1,73941,601,,0,0,yellow,600,3,600,,vertical,blue,Distractor2.bmp,cyan,Distractor2.bmp,yellow,Distractor2.bmp,red,Target1.bmp,purple,Distractor1.bmp,lime,Distractor2.bmp,4,1,3,TrialProc,2,PracticeTrialList,1,1,-999999,1,74542,0,1,483,75025,Target1.bmp,red,1,,,,,,
KW_Experiment5A,11,1,"<?xml version=""1.0""?>\n<Clock xmlns:dt=""urn:schemas-microsoft-com:datatypes""><Description dt:dt=""string"">E-Prime Primary Realtime Clock</Description><StartTime><Timestamp dt:dt=""int"">0</Timestamp><DateUtc dt:dt=""string"">2018-10-10T18:01:02Z</DateUtc></StartTime><FrequencyChanges><FrequencyChange><Frequency dt:dt=""r8"">3215292</Frequency><Timestamp dt:dt=""r8"">3915201700379</Timestamp><Current dt:dt=""r8"">0</Current><DateUtc dt:dt=""string"">2018-10-10T18:01:02Z</DateUtc></FrequencyChange></FrequencyChanges></Clock>\n",KW_Experiment5A-11-1,59.945,1.0.0.105,1,-1807855114,Professional,2.0.10.353,2.0.10.353,10/10/2018,10/10/2018 18:01,14:01:02,2.0.10.248,1,1,1,1,,,,,,,,PracticeProc,BlockList,4,2,Distractor2.bmp,2,0,,0,1,76043,601,,0,0,red,600,3,600,1,horizontal,yellow,Distractor1.bmp,cyan,Distractor2.bmp,purple,Distractor2.bmp,red,Distractor1.bmp,lime,Target2.bmp,blue,Distractor2.bmp,5,1,4,TrialProc,,PracticeTrialList,0,2,-999999,1,76644,0,1,492,77136,Target2.bmp,lime,2,,,,,,
KW_Experiment5A,11,1,"<?xml version=""1.0""?>\n<Clock xmlns:dt=""urn:schemas-microsoft-com:datatypes""><Description dt:dt=""string"">E-Prime Primary Realtime Clock</Description><StartTime><Timestamp dt:dt=""int"">0</Timestamp><DateUtc dt:dt=""string"">2018-10-10T18:01:02Z</DateUtc></StartTime><FrequencyChanges><FrequencyChange><Frequency dt:dt=""r8"">3215292</Frequency><Timestamp dt:dt=""r8"">3915201700379</Timestamp><Current dt:dt=""r8"">0</Current><DateUtc dt:dt=""string"">2018-10-10T18:01:02Z</DateUtc></FrequencyChange></FrequencyChanges></Clock>\n",KW_Experiment5A-11-1,59.945,1.0.0.105,1,-1807855114,Professional,2.0.10.353,2.0.10.353,10/10/2018,10/10/2018 18:01,14:01:02,2.0.10.248,1,1,1,1,,,,,,,,PracticeProc,BlockList,5,2,Distractor1.bmp,1,0,,0,1,78162,600,,0,0,cyan,600,3,600,4,horizontal,lime,Target2.bmp,purple,Distractor1.bmp,blue,Distractor2.bmp,red,Distractor1.bmp,yellow,Distractor2.bmp,cyan,Distractor2.bmp,1,1,5,TrialProc,,PracticeTrialList,1,2,-999999,0,78762,0,2,782,79544,Target2.bmp,lime,2,,,,,,
KW_Experiment5A,11,1,"<?xml version=""1.0""?>\n<Clock xmlns:dt=""urn:schemas-microsoft-com:datatypes""><Description dt:dt=""string"">E-Prime Primary Realtime Clock</Description><StartTime><Timestamp dt:dt=""int"">0</Timestamp><DateUtc dt:dt=""string"">2018-10-10T18:01:02Z</DateUtc></StartTime><FrequencyChanges><FrequencyChange><Frequency dt:dt=""r8"">3215292</Frequency><Timestamp dt:dt=""r8"">3915201700379</Timestamp><Current dt:dt=""r8"">0</Current><DateUtc dt:dt=""string"">2018-10-10T18:01:02Z</DateUtc></FrequencyChange></FrequencyChanges></Clock>\n",KW_Experiment5A-11-1,59.945,1.0.0.105,1,-1807855114,Professional,2.0.10.353,2.0.10.353,10/10/2018,10/10/2018 18:01,14:01:02,2.0.10.248,1,1,1,1,,,,,,,,PracticeProc,BlockList,6,1,Distractor2.bmp,2,0,,0,1,80564,501,,0,0,cyan,500,2,500,,vertical,lime,Distractor2.bmp,blue,Distractor1.bmp,purple,Distractor1.bmp,yellow,Distractor2.bmp,cyan,Distractor1.bmp,red,Target1.bmp,6,1,6,TrialProc,4,PracticeTrialList,1,1,-999999,1,81065,0,1,575,81640,Target1.bmp,red,1,,,,,,
KW_Experiment5A,11,1,"<?xml version=""1.0""?>\n<Clock xmlns:dt=""urn:schemas-microsoft-com:datatypes""><Description dt:dt=""string"">E-Prime Primary Realtime Clock</Description><StartTime><Timestamp dt:dt=""int"">0</Timestamp><DateUtc dt:dt=""string"">2018-10-10T18:01:02Z</DateUtc></StartTime><FrequencyChanges><FrequencyChange><Frequency dt:dt=""r8"">3215292</Frequency><Timestamp dt:dt=""r8"">3915201700379</Timestamp><Current dt:dt=""r8"">0</Current><DateUtc dt:dt=""string"">2018-10-10T18:01:02Z</DateUtc></FrequencyChange></FrequencyChanges></Clock>\n",KW_Experiment5A-11-1,59.945,1.0.0.105,1,-1807855114,Professional,2.0.10.353,2.0.10.353,10/10/2018,10/10/2018 18:01,14:01:02,2.0.10.248,2,2,1,2,,,,,,,,TrainingProc,BlockList,1,1,Distractor1.bmp,1,0,,0,26,89706,400,,0,0,yellow,400,1,400,,vertical,red,Target1.bmp,cyan,Distractor1.bmp,lime,Distractor2.bmp,purple,Distractor1.bmp,blue,Distractor2.bmp,yellow,Distractor1.bmp,,,,TrialProc,2,TrainingTrialList,1,1,-999999,0,90106,0,1,606,90712,Target1.bmp,red,1,,,,7,1,1
KW_Experiment5A,11,1,"<?xml version=""1.0""?>\n<Clock xmlns:dt=""urn:schemas-microsoft-com:datatypes""><Description dt:dt=""string"">E-Prime Primary Realtime Clock</Description><StartTime><Timestamp dt:dt=""int"">0</Timestamp><DateUtc dt:dt=""string"">2018-10-10T18:01:02Z</DateUtc></StartTime><FrequencyChanges><FrequencyChange><Frequency dt:dt=""r8"">3215292</Frequency><Timestamp dt:dt=""r8"">3915201700379</Timestamp><Current dt:dt=""r8"">0</Current><DateUtc dt:dt=""string"">2018-10-10T18:01:02Z</DateUtc></FrequencyChange></FrequencyChanges></Clock>\n",KW_Experiment5A-11-1,59.945,1.0.0.105,1,-1807855114,Professional,2.0.10.353,2.0.10.353,10/10/2018,10/10/2018 18:01,14:01:02,2.0.10.248,2,2,1,2,,,,,,,,TrainingProc,BlockList,2,2,Distractor1.bmp,1,0,,0,1,91724,401,,0,0,red,400,1,400,1,horizontal,red,Distractor1.bmp,lime,Target2.bmp,blue,Distractor1.bmp,yellow,Distractor1.bmp,purple,Distractor2.bmp,cyan,Distractor1.bmp,,,,TrialProc,,TrainingTrialList,1,2,-999999,1,92125,0,2,555,92680,Target2.bmp,lime,2,,,,2,1,2
KW_Experiment5A,11,1,"<?xml version=""1.0""?>\n<Clock xmlns:dt=""urn:schemas-microsoft-com:datatypes""><Description dt:dt=""string"">E-Prime Primary Realtime Clock</Description><StartTime><Timestamp dt:dt=""int"">0</Timestamp><DateUtc dt:dt=""string"">2018-10-10T18:01:02Z</DateUtc></StartTime><FrequencyChanges><FrequencyChange><Frequency dt:dt=""r8"">3215292</Frequency><Timestamp dt:dt=""r8"">3915201700379</Timestamp><Current dt:dt=""r8"">0</Current><DateUtc dt:dt=""string"">2018-10-10T18:01:02Z</DateUtc></FrequencyChange></FrequencyChanges></Clock>\n",KW_Experiment5A-11-1,59.945,1.0.0.105,1,-1807855114,Professional,2.0.10.353,2.0.10.353,10/10/2018,10/10/2018 18:01,14:01:02,2.0.10.248,2,2,1,2,,,,,,,,TrainingProc,BlockList,3,1,Distractor1.bmp,1,0,,0,1,93693,600,,0,0,lime,600,3,600,,vertical,lime,Distractor2.bmp,purple,Distractor2.bmp,yellow,Distractor1.bmp,red,Target1.bmp,cyan,Distractor1.bmp,blue,Distractor2.bmp,,,,TrialProc,6,TrainingTrialList,1,1,-999999,0,94293,0,1,483,94776,Target1.bmp,red,1,,,,10,1,3
KW_Experiment5A,11,1,"<?xml version=""1.0""?>\n<Clock xmlns:dt=""urn:schemas-microsoft-com:datatypes""><Description dt:dt=""string"">E-Prime Primary Realtime Clock</Description><StartTime><Timestamp dt:dt=""int"">0</Timestamp><DateUtc dt:dt=""string"">2018-10-10T18:01:02Z</DateUtc></StartTime><FrequencyChanges><FrequencyChange><Frequency dt:dt=""r8"">3215292</Frequency><Timestamp dt:dt=""r8"">3915201700379</Timestamp><Current dt:dt=""r8"">0</Current><DateUtc dt:dt=""string"">2018-10-10T18:01:02Z</DateUtc></FrequencyChange></FrequencyChanges></Clock>\n",KW_Experiment5A-11-1,59.945,1.0.0.105,1,-1807855114,Professional,2.0.10.353,2.0.10.353,10/10/2018,10/10/2018 18:01,14:01:02,2.0.10.248,2,2,1,2,,,,,,,,TrainingProc,BlockList,4,2,Distractor2.bmp,2,0,,0,1,95795,500,,0,0,cyan,500,2,500,4,horizontal,cyan,Distractor1.bmp,blue,Distractor1.bmp,purple,Distractor2.bmp,lime,Target2.bmp,yellow,Distractor2.bmp,red,Distractor1.bmp,,,,TrialProc,,TrainingTrialList,0,2,-999999,0,96295,0,1,537,96832,Target2.bmp,lime,2,,,,4,1,4
KW_Experiment5A,11,1,"<?xml version=""1.0""?>\n<Clock xmlns:dt=""urn:schemas-microsoft-com:datatypes""><Description dt:dt=""string"">E-Prime Primary Realtime Clock</Description><StartTime><Timestamp dt:dt=""int"">0</Timestamp><DateUtc dt:dt=""string"">2018-10-10T18:01:02Z</DateUtc></StartTime><FrequencyChanges><FrequencyChange><Frequency dt:dt=""r8"">3215292</Frequency><Timestamp dt:dt=""r8"">3915201700379</Timestamp><Current dt:dt=""r8"">0</Current><DateUtc dt:dt=""string"">2018-10-10T18:01:02Z</DateUtc></FrequencyChange></FrequencyChanges></Clock>\n",KW_Experiment5A-11-1,59.945,1.0.0.105,1,-1807855114,Professional,2.0.10.353,2.0.10.353,10/10/2018,10/10/2018 18:01,14:01:02,2.0.10.248,2,2,1,2,,,,,,,,TrainingProc,BlockList,5,1,Distractor2.bmp,2,0,,1,0,97846,401,,0,0,red,400,1,400,1,vertical,red,Distractor2.bmp,blue,Distractor2.bmp,yellow,Distractor2.bmp,purple,Distractor2.bmp,cyan,Distractor1.bmp,lime,Target1.bmp,,,,TrialProc,,TrainingTrialList,0,1,-999999,1,98247,0,2,673,98920,Target1.bmp,lime,1,,,,6,1,5
KW_Experiment5A,11,1,"<?xml version=""1.0""?>\n<Clock xmlns:dt=""urn:schemas-microsoft-com:datatypes""><Description dt:dt=""string"">E-Prime Primary Realtime Clock</Description><StartTime><Timestamp dt:dt=""int"">0</Timestamp><DateUtc dt:dt=""string"">2018-10-10T18:01:02Z</DateUtc></StartTime><FrequencyChanges><FrequencyChange><Frequency dt:dt=""r8"">3215292</Frequency><Timestamp dt:dt=""r8"">3915201700379</Timestamp><Current dt:dt=""r8"">0</Current><DateUtc dt:dt=""string"">2018-10-10T18:01:02Z</DateUtc></FrequencyChange></FrequencyChanges></Clock>\n",KW_Experiment5A-11-1,59.945,1.0.0.105,1,-1807855114,Professional,2.0.10.353,2.0.10.353,10/10/2018,10/10/2018 18:01,14:01:02,2.0.10.248,2,2,1,2,,,,,,,,TrainingProc,BlockList,6,2,Distractor1.bmp,1,0,,0,1,99932,500,,0,0,cyan,500,2,500,4,horizontal,cyan,Distractor1.bmp,blue,Distractor1.bmp,purple,Distractor1.bmp,red,Distractor1.bmp,yellow,Distractor2.bmp,lime,Target2.bmp,,,,TrialProc,,TrainingTrialList,1,2,-999999,0,100432,0,2,680,101112,Target2.bmp,lime,2,,,,6,1,6
KW_Experiment5A,11,1,"<?xml version=""1.0""?>\n<Clock xmlns:dt=""urn:schemas-microsoft-com:datatypes""><Description dt:dt=""string"">E-Prime Primary Realtime Clock</Description><StartTime><Timestamp dt:dt=""int"">0</Timestamp><DateUtc dt:dt=""string"">2018-10-10T18:01:02Z</DateUtc></StartTime><FrequencyChanges><FrequencyChange><Frequency dt:dt=""r8"">3215292</Frequency><Timestamp dt:dt=""r8"">3915201700379</Timestamp><Current dt:dt=""r8"">0</Current><DateUtc dt:dt=""string"">2018-10-10T18:01:02Z</DateUtc></FrequencyChange></FrequencyChanges></Clock>\n",KW_Experiment5A-11-1,59.945,1.0.0.105,1,-1807855114,Professional,2.0.10.353,2.0.10.353,10/10/2018,10/10/2018 18:01,14:01:02,2.0.10.248,2,2,1,2,,,,,,,,TrainingProc,BlockList,7,1,Distractor1.bmp,1,0,,0,1,102134,600,,0,0,red,600,3,600,1,vertical,red,Distractor1.bmp,purple,Distractor1.bmp,lime,Target1.bmp,cyan,Distractor1.bmp,yellow,Distractor2.bmp,blue,Distractor2.bmp,,,,TrialProc,,TrainingTrialList,0,1,-999999,0,102734,0,2,690,103424,Target1.bmp,lime,1,,,,3,1,7
KW_Experiment5A,11,1,"<?xml version=""1.0""?>\n<Clock xmlns:dt=""urn:schemas-microsoft-com:datatypes""><Description dt:dt=""string"">E-Prime Primary Realtime Clock</Description><StartTime><Timestamp dt:dt=""int"">0</Timestamp><DateUtc dt:dt=""string"">2018-10-10T18:01:02Z</DateUtc></StartTime><FrequencyChanges><FrequencyChange><Frequency dt:dt=""r8"">3215292</Frequency><Timestamp dt:dt=""r8"">3915201700379</Timestamp><Current dt:dt=""r8"">0</Current><DateUtc dt:dt=""string"">2018-10-10T18:01:02Z</DateUtc></FrequencyChange></FrequencyChanges></Clock>\n",KW_Experiment5A-11-1,59.945,1.0.0.105,1,-1807855114,Professional,2.0.10.353,2.0.10.353,10/10/2018,10/10/2018 18:01,14:01:02,2.0.10.248,2,2,1,2,,,,,,,,TrainingProc,BlockList,8,2,Distractor1.bmp,1,0,,0,1,104436,500,,0,0,purple,500,2,500,5,horizontal,purple,Distractor2.bmp,blue,Distractor1.bmp,cyan,Distractor1.bmp,yellow,Distractor2.bmp,lime,Target2.bmp,red,Distractor1.bmp,,,,TrialProc,,TrainingTrialList,0,2,-999999,0,104936,0,1,968,105904,Target2.bmp,lime,2,,,,5,1,8
KW_Experiment5A,11,1,"<?xml version=""1.0""?>\n<Clock xmlns:dt=""urn:schemas-microsoft-com:datatypes""><Description dt:dt=""string"">E-Prime Primary Realtime Clock</Description><StartTime><Timestamp dt:dt=""int"">0</Timestamp><DateUtc dt:dt=""string"">2018-10-10T18:01:02Z</DateUtc></StartTime><FrequencyChanges><FrequencyChange><Frequency dt:dt=""r8"">3215292</Frequency><Timestamp dt:dt=""r8"">3915201700379</Timestamp><Current dt:dt=""r8"">0</Current><DateUtc dt:dt=""string"">2018-10-10T18:01:02Z</DateUtc></FrequencyChange></FrequencyChanges></Clock>\n",KW_Experiment5A-11-1,59.945,1.0.0.105,1,-1807855114,Professional,2.0.10.353,2.0.10.353,10/10/2018,10/10/2018 18:01,14:01:02,2.0.10.248,2,2,1,2,,,,,,,,TrainingProc,BlockList,9,2,Distractor1.bmp,1,0,,0,1,106921,501,,0,0,red,500,2,500,1,horizontal,lime,Target2.bmp,red,Distractor1.bmp,yellow,Distractor1.bmp,blue,Distractor2.bmp,purple,Distractor1.bmp,cyan,Distractor2.bmp,,,,TrialProc,,TrainingTrialList,1,2,-999999,1,107422,0,2,722,108144,Target2.bmp,lime,2,,,,1,1,9
KW_Experiment5A,11,1,"<?xml version=""1.0""?>\n<Clock xmlns:dt=""urn:schemas-microsoft-com:datatypes""><Description dt:dt=""string"">E-Prime Primary Realtime Clock</Description><StartTime><Timestamp dt:dt=""int"">0</Timestamp><DateUtc dt:dt=""string"">2018-10-10T18:01:02Z</DateUtc></StartTime><FrequencyChanges><FrequencyChange><Frequency dt:dt=""r8"">3215292</Frequency><Timestamp dt:dt=""r8"">3915201700379</Timestamp><Current dt:dt=""r8"">0</Current><DateUtc dt:dt=""string"">2018-10-10T18:01:02Z</DateUtc></FrequencyChange></FrequencyChanges></Clock>\n",KW_Experiment5A-11-1,59.945,1.0.0.105,1,-1807855114,Professional,2.0.10.353,2.0.10.353,10/10/2018,10/10/2018 18:01,14:01:02,2.0.10.248,2,2,1,2,,,,,,,,TrainingProc,BlockList,10,2,Distractor1.bmp,1,0,,0,1,109157,400,,0,0,red,400,1,400,1,horizontal,red,Distractor2.bmp,yellow,Distractor1.bmp,cyan,Distractor2.bmp,purple,Distractor1.bmp,lime,Target2.bmp,blue,Distractor1.bmp,,,,TrialProc,,TrainingTrialList,1,2,-999999,0,109557,0,2,651,110208,Target2.bmp,lime,2,,,,5,1,10
KW_Experiment5A,11,1,"<?xml version=""1.0""?>\n<Clock xmlns:dt=""urn:schemas-microsoft-com:datatypes""><Description dt:dt=""string"">E-Prime Primary Realtime Clock</Description><StartTime><Timestamp dt:dt=""int"">0</Timestamp><DateUtc dt:dt=""string"">2018-10-10T18:01:02Z</DateUtc></StartTime><FrequencyChanges><FrequencyChange><Frequency dt:dt=""r8"">3215292</Frequency><Timestamp dt:dt=""r8"">3915201700379</Timestamp><Current dt:dt=""r8"">0</Current><DateUtc dt:dt=""string"">2018-10-10T18:01:02Z</DateUtc></FrequencyChange></FrequencyChanges></Clock>\n",KW_Experiment5A-11-1,59.945,1.0.0.105,1,-1807855114,Professional,2.0.10.353,2.0.10.353,10/10/2018,10/10/2018 18:01,14:01:02,2.0.10.248,2,2,1,2,,,,,,,,TrainingProc,BlockList,11,1,Distractor2.bmp,2,0,,0,1,111225,501,,0,0,purple,500,2,500,5,vertical,purple,Distractor2.bmp,cyan,Distractor1.bmp,lime,Target1.bmp,red,Distractor2.bmp,yellow,Distractor1.bmp,blue,Distractor1.bmp,,,,TrialProc,,TrainingTrialList,0,1,-999999,1,111726,0,2,714,112440,Target1.bmp,lime,1,,,,3,1,11
KW_Experiment5A,11,1,"<?xml version=""1.0""?>\n<Clock xmlns:dt=""urn:schemas-microsoft-com:datatypes""><Description dt:dt=""string"">E-Prime Primary Realtime Clock</Description><StartTime><Timestamp dt:dt=""int"">0</Timestamp><DateUtc dt:dt=""string"">2018-10-10T18:01:02Z</DateUtc></StartTime><FrequencyChanges><FrequencyChange><Frequency dt:dt=""r8"">3215292</Frequency><Timestamp dt:dt=""r8"">3915201700379</Timestamp><Current dt:dt=""r8"">0</Current><DateUtc dt:dt=""string"">2018-10-10T18:01:02Z</DateUtc></FrequencyChange></FrequencyChanges></Clock>\n",KW_Experiment5A-11-1,59.945,1.0.0.105,1,-1807855114,Professional,2.0.10.353,2.0.10.353,10/10/2018,10/10/2018 18:01,14:01:02,2.0.10.248,2,2,1,2,,,,,,,,TrainingProc,BlockList,12,1,Distractor1.bmp,1,0,,0,1,113461,400,,0,0,purple,400,1,400,5,vertical,purple,Distractor2.bmp,blue,Distractor1.bmp,cyan,Distractor2.bmp,red,Distractor2.bmp,lime,Target1.bmp,yellow,Distractor1.bmp,,,,TrialProc,,TrainingTrialList,0,1,-999999,0,113861,0,2,875,114736,Target1.bmp,lime,1,,,,5,1,12
KW_Experiment5A,11,1,"<?xml version=""1.0""?>\n<Clock xmlns:dt=""urn:schemas-microsoft-com:datatypes""><Description dt:dt=""string"">E-Prime Primary Realtime Clock</Description><StartTime><Timestamp dt:dt=""int"">0</Timestamp><DateUtc dt:dt=""string"">2018-10-10T18:01:02Z</DateUtc></StartTime><FrequencyChanges><FrequencyChange><Frequency dt:dt=""r8"">3215292</Frequency><Timestamp dt:dt=""r8"">3915201700379</Timestamp><Current dt:dt=""r8"">0</Current><DateUtc dt:dt=""string"">2018-10-10T18:01:02Z</DateUtc></FrequencyChange></FrequencyChanges></Clock>\n",KW_Experiment5A-11-1,59.945,1.0.0.105,1,-1807855114,Professional,2.0.10.353,2.0.10.353,10/10/2018,10/10/2018 18:01,14:01:02,2.0.10.248,2,2,1,2,,,,,,,,TrainingProc,BlockList,13,1,Distractor2.bmp,2,0,,0,1,115763,500,,0,0,purple,500,2,500,5,vertical,purple,Distractor1.bmp,lime,Target1.bmp,yellow,Distractor2.bmp,blue,Distractor2.bmp,cyan,Distractor1.bmp,red,Distractor1.bmp,,,,TrialProc,,TrainingTrialList,1,1,-999999,0,116263,0,1,784,117047,Target1.bmp,lime,1,,,,2,1,13
KW_Experiment5A,11,1,"<?xml version=""1.0""?>\n<Clock xmlns:dt=""urn:schemas-microsoft-com:datatypes""><Description dt:dt=""string"">E-Prime Primary Realtime Clock</Description><StartTime><Timestamp dt:dt=""int"">0</Timestamp><DateUtc dt:dt=""string"">2018-10-10T18:01:02Z</DateUtc></StartTime><FrequencyChanges><FrequencyChange><Frequency dt:dt=""r8"">3215292</Frequency><Timestamp dt:dt=""r8"">3915201700379</Timestamp><Current dt:dt=""r8"">0</Current><DateUtc dt:dt=""string"">2018-10-10T18:01:02Z</DateUtc></FrequencyChange></FrequencyChanges></Clock>\n",KW_Experiment5A-11-1,59.945,1.0.0.105,1,-1807855114,Professional,2.0.10.353,2.0.10.353,10/10/2018,10/10/2018 18:01,14:01:02,2.0.10.248,2,2,1,2,,,,,,,,TrainingProc,BlockList,14,2,Distractor1.bmp,1,0,,0,1,118065,400,,0,0,blue,400,1,400,3,horizontal,blue,Distractor2.bmp,cyan,Distractor1.bmp,lime,Target2.bmp,red,Distractor1.bmp,yellow,Distractor1.bmp,purple,Distractor2.bmp,,,,TrialProc,,TrainingTrialList,1,2,-999999,0,118465,0,2,1398,119863,Target2.bmp,lime,2,,,,3,1,14
KW_Experiment5A,11,1,"<?xml version=""1.0""?>\n<Clock xmlns:dt=""urn:schemas-microsoft-com:datatypes""><Description dt:dt=""string"">E-Prime Primary Realtime Clock</Description><StartTime><Timestamp dt:dt=""int"">0</Timestamp><DateUtc dt:dt=""string"">2018-10-10T18:01:02Z</DateUtc></StartTime><FrequencyChanges><FrequencyChange><Frequency dt:dt=""r8"">3215292</Frequency><Timestamp dt:dt=""r8"">3915201700379</Timestamp><Current dt:dt=""r8"">0</Current><DateUtc dt:dt=""string"">2018-10-10T18:01:02Z</DateUtc></FrequencyChange></FrequencyChanges></Clock>\n",KW_Experiment5A-11-1,59.945,1.0.0.105,1,-1807855114,Professional,2.0.10.353,2.0.10.353,10/10/2018,10/10/2018 18:01,14:01:02,2.0.10.248,2,2,1,2,,,,,,,,TrainingProc,BlockList,15,1,Distractor1.bmp,1,0,,0,1,120884,400,,0,0,yellow,400,1,400,2,vertical,yellow,Distractor2.bmp,blue,Distractor1.bmp,cyan,Distractor1.bmp,lime,Target1.bmp,red,Distractor1.bmp,purple,Distractor1.bmp,,,,TrialProc,,TrainingTrialList,1,1,-999999,0,121284,0,1,971,122255,Target1.bmp,lime,1,,,,4,1,15
KW_Experiment5A,11,1,"<?xml version=""1.0""?>\n<Clock xmlns:dt=""urn:schemas-microsoft-com:datatypes""><Description dt:dt=""string"">E-Prime Primary Realtime Clock</Description><StartTime><Timestamp dt:dt=""int"">0</Timestamp><DateUtc dt:dt=""string"">2018-10-10T18:01:02Z</DateUtc></StartTime><FrequencyChanges><FrequencyChange><Frequency dt:dt=""r8"">3215292</Frequency><Timestamp dt:dt=""r8"">3915201700379</Timestamp><Current dt:dt=""r8"">0</Current><DateUtc dt:dt=""string"">2018-10-10T18:01:02Z</DateUtc></FrequencyChange></FrequencyChanges></Clock>\n",KW_Experiment5A-11-1,59.945,1.0.0.105,1,-1807855114,Professional,2.0.10.353,2.0.10.353,10/10/2018,10/10/2018 18:01,14:01:02,2.0.10.248,2,2,1,2,,,,,,,,TrainingProc,BlockList,16,2,Distractor2.bmp,2,0,,0,1,123270,600,,0,0,red,600,3,600,1,horizontal,red,Distractor2.bmp,lime,Target2.bmp,yellow,Distractor2.bmp,purple,Distractor2.bmp,cyan,Distractor2.bmp,blue,Distractor1.bmp,,,,TrialProc,,TrainingTrialList,0,2,-999999,0,123870,0,1,2017,125887,Target2.bmp,lime,2,,,,2,1,16
KW_Experiment5A,11,1,"<?xml version=""1.0""?>\n<Clock xmlns:dt=""urn:schemas-microsoft-com:datatypes""><Description dt:dt=""string"">E-Prime Primary Realtime Clock</Description><StartTime><Timestamp dt:dt=""int"">0</Timestamp><DateUtc dt:dt=""string"">2018-10-10T18:01:02Z</DateUtc></StartTime><FrequencyChanges><FrequencyChange><Frequency dt:dt=""r8"">3215292</Frequency><Timestamp dt:dt=""r8"">3915201700379</Timestamp><Current dt:dt=""r8"">0</Current><DateUtc dt:dt=""string"">2018-10-10T18:01:02Z</DateUtc></FrequencyChange></FrequencyChanges></Clock>\n",KW_Experiment5A-11-1,59.945,1.0.0.105,1,-1807855114,Professional,2.0.10.353,2.0.10.353,10/10/2018,10/10/2018 18:01,14:01:02,2.0.10.248,2,2,1,2,,,,,,,,TrainingProc,BlockList,17,1,Distractor1.bmp,1,0,,0,1,126906,401,,0,0,cyan,400,1,400,,vertical,cyan,Distractor1.bmp,lime,Distractor1.bmp,blue,Distractor1.bmp,purple,Distractor2.bmp,yellow,Distractor2.bmp,red,Target1.bmp,,,,TrialProc,4,TrainingTrialList,1,1,-999999,1,127307,0,1,764,128071,Target1.bmp,red,1,,,,12,1,17
KW_Experiment5A,11,1,"<?xml version=""1.0""?>\n<Clock xmlns:dt=""urn:schemas-microsoft-com:datatypes""><Description dt:dt=""string"">E-Prime Primary Realtime Clock</Description><StartTime><Timestamp dt:dt=""int"">0</Timestamp><DateUtc dt:dt=""string"">2018-10-10T18:01:02Z</DateUtc></StartTime><FrequencyChanges><FrequencyChange><Frequency dt:dt=""r8"">3215292</Frequency><Timestamp dt:dt=""r8"">3915201700379</Timestamp><Current dt:dt=""r8"">0</Current><DateUtc dt:dt=""string"">2018-10-10T18:01:02Z</DateUtc></FrequencyChange></FrequencyChanges></Clock>\n",KW_Experiment5A-11-1,59.945,1.0.0.105,1,-1807855114,Professional,2.0.10.353,2.0.10.353,10/10/2018,10/10/2018 18:01,14:01:02,2.0.10.248,2,2,1,2,,,,,,,,TrainingProc,BlockList,18,1,Distractor1.bmp,1,0,,1,0,129091,501,,0,0,purple,500,2,500,,vertical,purple,Distractor1.bmp,lime,Distractor2.bmp,red,Target1.bmp,yellow,Distractor1.bmp,cyan,Distractor1.bmp,blue,Distractor2.bmp,,,,TrialProc,5,TrainingTrialList,1,1,-999999,1,129592,0,1,759,130351,Target1.bmp,red,1,,,,9,1,18
KW_Experiment5A,11,1,"<?xml version=""1.0""?>\n<Clock xmlns:dt=""urn:schemas-microsoft-com:datatypes""><Description dt:dt=""string"">E-Prime Primary Realtime Clock</Description><StartTime><Timestamp dt:dt=""int"">0</Timestamp><DateUtc dt:dt=""string"">2018-10-10T18:01:02Z</DateUtc></StartTime><FrequencyChanges><FrequencyChange><Frequency dt:dt=""r8"">3215292</Frequency><Timestamp dt:dt=""r8"">3915201700379</Timestamp><Current dt:dt=""r8"">0</Current><DateUtc dt:dt=""string"">2018-10-10T18:01:02Z</DateUtc></FrequencyChange></FrequencyChanges></Clock>\n",KW_Experiment5A-11-1,59.945,1.0.0.105,1,-1807855114,Professional,2.0.10.353,2.0.10.353,10/10/2018,10/10/2018 18:01,14:01:02,2.0.10.248,2,2,1,2,,,,,,,,TrainingProc,BlockList,19,1,Distractor2.bmp,2,0,,0,1,131377,600,,0,0,purple,600,3,600,5,vertical,purple,Distractor1.bmp,blue,Distractor2.bmp,yellow,Distractor2.bmp,lime,Target1.bmp,red,Distractor2.bmp,cyan,Distractor1.bmp,,,,TrialProc,,TrainingTrialList,1,1,-999999,0,131977,0,1,926,132903,Target1.bmp,lime,1,,,,4,1,19
KW_Experiment5A,11,1,"<?xml version=""1.0""?>\n<Clock xmlns:dt=""urn:schemas-microsoft-com:datatypes""><Description dt:dt=""string"">E-Prime Primary Realtime Clock</Description><StartTime><Timestamp dt:dt=""int"">0</Timestamp><DateUtc dt:dt=""string"">2018-10-10T18:01:02Z</DateUtc></StartTime><FrequencyChanges><FrequencyChange><Frequency dt:dt=""r8"">3215292</Frequency><Timestamp dt:dt=""r8"">3915201700379</Timestamp><Current dt:dt=""r8"">0</Current><DateUtc dt:dt=""string"">2018-10-10T18:01:02Z</DateUtc></FrequencyChange></FrequencyChanges></Clock>\n",KW_Experiment5A-11-1,59.945,1.0.0.105,1,-1807855114,Professional,2.0.10.353,2.0.10.353,10/10/2018,10/10/2018 18:01,14:01:02,2.0.10.248,2,2,1,2,,,,,,,,TrainingProc,BlockList,20,2,Distractor2.bmp,2,0,,0,1,133929,401,,0,0,lime,400,1,400,,horizontal,lime,Distractor2.bmp,cyan,Distractor2.bmp,yellow,Distractor1.bmp,blue,Distractor1.bmp,red,Target2.bmp,purple,Distractor2.bmp,,,,TrialProc,6,TrainingTrialList,1,2,-999999,1,134330,0,2,1101,135431,Target2.bmp,red,2,,,,11,1,20
KW_Experiment5A,11,1,"<?xml version=""1.0""?>\n<Clock xmlns:dt=""urn:schemas-microsoft-com:datatypes""><Description dt:dt=""string"">E-Prime Primary Realtime Clock</Description><StartTime><Timestamp dt:dt=""int"">0</Timestamp><DateUtc dt:dt=""string"">2018-10-10T18:01:02Z</DateUtc></StartTime><FrequencyChanges><FrequencyChange><Frequency dt:dt=""r8"">3215292</Frequency><Timestamp dt:dt=""r8"">3915201700379</Timestamp><Current dt:dt=""r8"">0</Current><DateUtc dt:dt=""string"">2018-10-10T18:01:02Z</DateUtc></FrequencyChange></FrequencyChanges></Clock>\n",KW_Experiment5A-11-1,59.945,1.0.0.105,1,-1807855114,Professional,2.0.10.353,2.0.10.353,10/10/2018,10/10/2018 18:01,14:01:02,2.0.10.248,2,2,1,2,,,,,,,,TrainingProc,BlockList,21,1,Distractor1.bmp,1,0,,0,1,136448,601,,0,0,purple,600,3,600,5,vertical,lime,Target1.bmp,purple,Distractor1.bmp,blue,Distractor1.bmp,yellow,Distractor2.bmp,red,Distractor2.bmp,cyan,Distractor2.bmp,,,,TrialProc,,TrainingTrialList,1,1,-999999,1,137049,0,1,942,137991,Target1.bmp,lime,1,,,,1,1,21
KW_Experiment5A,11,1,"<?xml version=""1.0""?>\n<Clock xmlns:dt=""urn:schemas-microsoft-com:datatypes""><Description dt:dt=""string"">E-Prime Primary Realtime Clock</Description><StartTime><Timestamp dt:dt=""int"">0</Timestamp><DateUtc dt:dt=""string"">2018-10-10T18:01:02Z</DateUtc></StartTime><FrequencyChanges><FrequencyChange><Frequency dt:dt=""r8"">3215292</Frequency><Timestamp dt:dt=""r8"">3915201700379</Timestamp><Current dt:dt=""r8"">0</Current><DateUtc dt:dt=""string"">2018-10-10T18:01:02Z</DateUtc></FrequencyChange></FrequencyChanges></Clock>\n",KW_Experiment5A-11-1,59.945,1.0.0.105,1,-1807855114,Professional,2.0.10.353,2.0.10.353,10/10/2018,10/10/2018 18:01,14:01:02,2.0.10.248,2,2,1,2,,,,,,,,TrainingProc,BlockList,22,1,Distractor2.bmp,2,0,,1,0,139000,501,,0,0,red,500,2,500,1,vertical,lime,Target1.bmp,red,Distractor2.bmp,yellow,Distractor1.bmp,purple,Distractor1.bmp,blue,Distractor1.bmp,cyan,Distractor1.bmp,,,,TrialProc,,TrainingTrialList,1,1,-999999,1,139501,0,1,922,140423,Target1.bmp,lime,1,,,,1,1,22
KW_Experiment5A,11,1,"<?xml version=""1.0""?>\n<Clock xmlns:dt=""urn:schemas-microsoft-com:datatypes""><Description dt:dt=""string"">E-Prime Primary Realtime Clock</Description><StartTime><Timestamp dt:dt=""int"">0</Timestamp><DateUtc dt:dt=""string"">2018-10-10T18:01:02Z</DateUtc></StartTime><FrequencyChanges><FrequencyChange><Frequency dt:dt=""r8"">3215292</Frequency><Timestamp dt:dt=""r8"">3915201700379</Timestamp><Current dt:dt=""r8"">0</Current><DateUtc dt:dt=""string"">2018-10-10T18:01:02Z</DateUtc></FrequencyChange></FrequencyChanges></Clock>\n",KW_Experiment5A-11-1,59.945,1.0.0.105,1,-1807855114,Professional,2.0.10.353,2.0.10.353,10/10/2018,10/10/2018 18:01,14:01:02,2.0.10.248,2,2,1,2,,,,,,,,TrainingProc,BlockList,23,1,Distractor1.bmp,1,0,,0,1,141436,601,,0,0,purple,600,3,600,,vertical,purple,Distractor1.bmp,red,Target1.bmp,cyan,Distractor1.bmp,blue,Distractor2.bmp,lime,Distractor2.bmp,yellow,Distractor2.bmp,,,,TrialProc,5,TrainingTrialList,1,1,-999999,1,142037,0,1,938,142975,Target1.bmp,red,1,,,,8,1,23
KW_Experiment5A,11,1,"<?xml version=""1.0""?>\n<Clock xmlns:dt=""urn:schemas-microsoft-com:datatypes""><Description dt:dt=""string"">E-Prime Primary Realtime Clock</Description><StartTime><Timestamp dt:dt=""int"">0</Timestamp><DateUtc dt:dt=""string"">2018-10-10T18:01:02Z</DateUtc></StartTime><FrequencyChanges><FrequencyChange><Frequency dt:dt=""r8"">3215292</Frequency><Timestamp dt:dt=""r8"">3915201700379</Timestamp><Current dt:dt=""r8"">0</Current><DateUtc dt:dt=""string"">2018-10-10T18:01:02Z</DateUtc></FrequencyChange></FrequencyChanges></Clock>\n",KW_Experiment5A-11-1,59.945,1.0.0.105,1,-1807855114,Professional,2.0.10.353,2.0.10.353,10/10/2018,10/10/2018 18:01,14:01:02,2.0.10.248,2,2,1,2,,,,,,,,TrainingProc,BlockList,24,2,Distractor2.bmp,2,0,,0,1,143988,601,,0,0,purple,600,3,600,5,horizontal,purple,Distractor2.bmp,blue,Distractor1.bmp,yellow,Distractor2.bmp,red,Distractor1.bmp,cyan,Distractor2.bmp,lime,Target2.bmp,,,,TrialProc,,TrainingTrialList,1,2,-999999,1,144589,0,2,810,145399,Target2.bmp,lime,2,,,,6,1,24
KW_Experiment5A,11,1,"<?xml version=""1.0""?>\n<Clock xmlns:dt=""urn:schemas-microsoft-com:datatypes""><Description dt:dt=""string"">E-Prime Primary Realtime Clock</Description><StartTime><Timestamp dt:dt=""int"">0</Timestamp><DateUtc dt:dt=""string"">2018-10-10T18:01:02Z</DateUtc></StartTime><FrequencyChanges><FrequencyChange><Frequency dt:dt=""r8"">3215292</Frequency><Timestamp dt:dt=""r8"">3915201700379</Timestamp><Current dt:dt=""r8"">0</Current><DateUtc dt:dt=""string"">2018-10-10T18:01:02Z</DateUtc></FrequencyChange></FrequencyChanges></Clock>\n",KW_Experiment5A-11-1,59.945,1.0.0.105,1,-1807855114,Professional,2.0.10.353,2.0.10.353,10/10/2018,10/10/2018 18:01,14:01:02,2.0.10.248,2,2,1,2,,,,,,,,TrainingProc,BlockList,25,1,Distractor2.bmp,2,0,,0,1,146424,400,,0,0,yellow,400,1,400,,vertical,yellow,Distractor1.bmp,cyan,Distractor2.bmp,blue,Distractor1.bmp,purple,Distractor2.bmp,red,Target1.bmp,lime,Distractor2.bmp,,,,TrialProc,2,TrainingTrialList,1,1,-999999,0,146824,0,1,527,147351,Target1.bmp,red,1,,,,11,2,25
KW_Experiment5A,11,1,"<?xml version=""1.0""?>\n<Clock xmlns:dt=""urn:schemas-microsoft-com:datatypes""><Description dt:dt=""string"">E-Prime Primary Realtime Clock</Description><StartTime><Timestamp dt:dt=""int"">0</Timestamp><DateUtc dt:dt=""string"">2018-10-10T18:01:02Z</DateUtc></StartTime><FrequencyChanges><FrequencyChange><Frequency dt:dt=""r8"">3215292</Frequency><Timestamp dt:dt=""r8"">3915201700379</Timestamp><Current dt:dt=""r8"">0</Current><DateUtc dt:dt=""string"">2018-10-10T18:01:02Z</DateUtc></FrequencyChange></FrequencyChanges></Clock>\n",KW_Experiment5A-11-1,59.945,1.0.0.105,1,-1807855114,Professional,2.0.10.353,2.0.10.353,10/10/2018,10/10/2018 18:01,14:01:02,2.0.10.248,2,2,1,2,,,,,,,,TrainingProc,BlockList,26,1,Distractor1.bmp,1,0,,0,1,148376,500,,0,0,blue,500,2,500,3,vertical,lime,Target1.bmp,blue,Distractor1.bmp,red,Distractor1.bmp,purple,Distractor2.bmp,yellow,Distractor2.bmp,cyan,Distractor2.bmp,,,,TrialProc,,TrainingTrialList,1,1,-999999,0,148876,0,1,867,149743,Target1.bmp,lime,1,,,,1,2,26
KW_Experiment5A,11,1,"<?xml version=""1.0""?>\n<Clock xmlns:dt=""urn:schemas-microsoft-com:datatypes""><Description dt:dt=""string"">E-Prime Primary Realtime Clock</Description><StartTime><Timestamp dt:dt=""int"">0</Timestamp><DateUtc dt:dt=""string"">2018-10-10T18:01:02Z</DateUtc></StartTime><FrequencyChanges><FrequencyChange><Frequency dt:dt=""r8"">3215292</Frequency><Timestamp dt:dt=""r8"">3915201700379</Timestamp><Current dt:dt=""r8"">0</Current><DateUtc dt:dt=""string"">2018-10-10T18:01:02Z</DateUtc></FrequencyChange></FrequencyChanges></Clock>\n",KW_Experiment5A-11-1,59.945,1.0.0.105,1,-1807855114,Professional,2.0.10.353,2.0.10.353,10/10/2018,10/10/2018 18:01,14:01:02,2.0.10.248,2,2,1,2,,,,,,,,TrainingProc,BlockList,27,1,Distractor1.bmp,1,0,,0,1,150761,501,,0,0,purple,500,2,500,5,vertical,purple,Distractor1.bmp,cyan,Distractor2.bmp,blue,Distractor1.bmp,red,Distractor1.bmp,lime,Target1.bmp,yellow,Distractor1.bmp,,,,TrialProc,,TrainingTrialList,1,1,-999999,1,151262,0,1,681,151943,Target1.bmp,lime,1,,,,5,2,27
KW_Experiment5A,11,1,"<?xml version=""1.0""?>\n<Clock xmlns:dt=""urn:schemas-microsoft-com:datatypes""><Description dt:dt=""string"">E-Prime Primary Realtime Clock</Description><StartTime><Timestamp dt:dt=""int"">0</Timestamp><DateUtc dt:dt=""string"">2018-10-10T18:01:02Z</DateUtc></StartTime><FrequencyChanges><FrequencyChange><Frequency dt:dt=""r8"">3215292</Frequency><Timestamp dt:dt=""r8"">3915201700379</Timestamp><Current dt:dt=""r8"">0</Current><DateUtc dt:dt=""string"">2018-10-10T18:01:02Z</DateUtc></FrequencyChange></FrequencyChanges></Clock>\n",KW_Experiment5A-11-1,59.945,1.0.0.105,1,-1807855114,Professional,2.0.10.353,2.0.10.353,10/10/2018,10/10/2018 18:01,14:01:02,2.0.10.248,2,2,1,2,,,,,,,,TrainingProc,BlockList,28,2,Distractor1.bmp,1,0,,0,1,152963,601,,0,0,red,600,3,600,1,horizontal,red,Distractor1.bmp,purple,Distractor1.bmp,blue,Distractor2.bmp,lime,Target2.bmp,cyan,Distractor1.bmp,yellow,Distractor2.bmp,,,,TrialProc,,TrainingTrialList,1,2,-999999,1,153564,0,2,787,154351,Target2.bmp,lime,2,,,,4,2,28
KW_Experiment5A,11,1,"<?xml version=""1.0""?>\n<Clock xmlns:dt=""urn:schemas-microsoft-com:datatypes""><Description dt:dt=""string"">E-Prime Primary Realtime Clock</Description><StartTime><Timestamp dt:dt=""int"">0</Timestamp><DateUtc dt:dt=""string"">2018-10-10T18:01:02Z</DateUtc></StartTime><FrequencyChanges><FrequencyChange><Frequency dt:dt=""r8"">3215292</Frequency><Timestamp dt:dt=""r8"">3915201700379</Timestamp><Current dt:dt=""r8"">0</Current><DateUtc dt:dt=""string"">2018-10-10T18:01:02Z</DateUtc></FrequencyChange></FrequencyChanges></Clock>\n",KW_Experiment5A-11-1,59.945,1.0.0.105,1,-1807855114,Professional,2.0.10.353,2.0.10.353,10/10/2018,10/10/2018 18:01,14:01:02,2.0.10.248,2,2,1,2,,,,,,,,TrainingProc,BlockList,29,1,Distractor2.bmp,2,0,,0,1,155365,401,,0,0,cyan,400,1,400,4,vertical,lime,Target1.bmp,cyan,Distractor2.bmp,yellow,Distractor1.bmp,blue,Distractor2.bmp,purple,Distractor2.bmp,red,Distractor1.bmp,,,,TrialProc,,TrainingTrialList,1,1,-999999,1,155766,0,1,640,156406,Target1.bmp,lime,1,,,,1,2,29
KW_Experiment5A,11,1,"<?xml version=""1.0""?>\n<Clock xmlns:dt=""urn:schemas-microsoft-com:datatypes""><Description dt:dt=""string"">E-Prime Primary Realtime Clock</Description><StartTime><Timestamp dt:dt=""int"">0</Timestamp><DateUtc dt:dt=""string"">2018-10-10T18:01:02Z</DateUtc></StartTime><FrequencyChanges><FrequencyChange><Frequency dt:dt=""r8"">3215292</Frequency><Timestamp dt:dt=""r8"">3915201700379</Timestamp><Current dt:dt=""r8"">0</Current><DateUtc dt:dt=""string"">2018-10-10T18:01:02Z</DateUtc></FrequencyChange></FrequencyChanges></Clock>\n",KW_Experiment5A-11-1,59.945,1.0.0.105,1,-1807855114,Professional,2.0.10.353,2.0.10.353,10/10/2018,10/10/2018 18:01,14:01:02,2.0.10.248,2,2,1,2,,,,,,,,TrainingProc,BlockList,30,2,Distractor2.bmp,2,0,,0,1,157417,401,,0,0,lime,400,1,400,,horizontal,lime,Distractor2.bmp,cyan,Distractor1.bmp,yellow,Distractor1.bmp,red,Target2.bmp,purple,Distractor2.bmp,blue,Distractor2.bmp,,,,TrialProc,6,TrainingTrialList,1,2,-999999,1,157818,0,2,764,158582,Target2.bmp,red,2,,,,10,2,30
KW_Experiment5A,11,1,"<?xml version=""1.0""?>\n<Clock xmlns:dt=""urn:schemas-microsoft-com:datatypes""><Description dt:dt=""string"">E-Prime Primary Realtime Clock</Description><StartTime><Timestamp dt:dt=""int"">0</Timestamp><DateUtc dt:dt=""string"">2018-10-10T18:01:02Z</DateUtc></StartTime><FrequencyChanges><FrequencyChange><Frequency dt:dt=""r8"">3215292</Frequency><Timestamp dt:dt=""r8"">3915201700379</Timestamp><Current dt:dt=""r8"">0</Current><DateUtc dt:dt=""string"">2018-10-10T18:01:02Z</DateUtc></FrequencyChange></FrequencyChanges></Clock>\n",KW_Experiment5A-11-1,59.945,1.0.0.105,1,-1807855114,Professional,2.0.10.353,2.0.10.353,10/10/2018,10/10/2018 18:01,14:01:02,2.0.10.248,2,2,1,2,,,,,,,,TrainingProc,BlockList,31,2,Distractor1.bmp,1,0,,0,1,159603,400,,0,0,cyan,400,1,400,4,horizontal,cyan,Distractor2.bmp,red,Distractor1.bmp,blue,Distractor1.bmp,purple,Distractor1.bmp,lime,Target2.bmp,yellow,Distractor1.bmp,,,,TrialProc,,TrainingTrialList,1,2,-999999,0,160003,0,2,779,160782,Target2.bmp,lime,2,,,,5,2,31
KW_Experiment5A,11,1,"<?xml version=""1.0""?>\n<Clock xmlns:dt=""urn:schemas-microsoft-com:datatypes""><Description dt:dt=""string"">E-Prime Primary Realtime Clock</Description><StartTime><Timestamp dt:dt=""int"">0</Timestamp><DateUtc dt:dt=""string"">2018-10-10T18:01:02Z</DateUtc></StartTime><FrequencyChanges><FrequencyChange><Frequency dt:dt=""r8"">3215292</Frequency><Timestamp dt:dt=""r8"">3915201700379</Timestamp><Current dt:dt=""r8"">0</Current><DateUtc dt:dt=""string"">2018-10-10T18:01:02Z</DateUtc></FrequencyChange></FrequencyChanges></Clock>\n",KW_Experiment5A-11-1,59.945,1.0.0.105,1,-1807855114,Professional,2.0.10.353,2.0.10.353,10/10/2018,10/10/2018 18:01,14:01:02,2.0.10.248,2,2,1,2,,,,,,,,TrainingProc,BlockList,32,1,Distractor1.bmp,1,0,,0,1,161805,500,,0,0,lime,500,2,500,,vertical,lime,Distractor1.bmp,cyan,Distractor1.bmp,blue,Distractor2.bmp,yellow,Distractor1.bmp,purple,Distractor1.bmp,red,Target1.bmp,,,,TrialProc,6,TrainingTrialList,1,1,-999999,0,162305,0,1,621,162926,Target1.bmp,red,1,,,,12,2,32
KW_Experiment5A,11,1,"<?xml version=""1.0""?>\n<Clock xmlns:dt=""urn:schemas-microsoft-com:datatypes""><Description dt:dt=""string"">E-Prime Primary Realtime Clock</Description><StartTime><Timestamp dt:dt=""int"">0</Timestamp><DateUtc dt:dt=""string"">2018-10-10T18:01:02Z</DateUtc></StartTime><FrequencyChanges><FrequencyChange><Frequency dt:dt=""r8"">3215292</Frequency><Timestamp dt:dt=""r8"">3915201700379</Timestamp><Current dt:dt=""r8"">0</Current><DateUtc dt:dt=""string"">2018-10-10T18:01:02Z</DateUtc></FrequencyChange></FrequencyChanges></Clock>\n",KW_Experiment5A-11-1,59.945,1.0.0.105,1,-1807855114,Professional,2.0.10.353,2.0.10.353,10/10/2018,10/10/2018 18:01,14:01:02,2.0.10.248,2,2,1,2,,,,,,,,TrainingProc,BlockList,33,1,Distractor2.bmp,2,0,,0,1,163940,500,,0,0,red,500,2,500,1,vertical,red,Distractor2.bmp,cyan,Distractor2.bmp,purple,Distractor2.bmp,blue,Distractor2.bmp,yellow,Distractor1.bmp,lime,Target1.bmp,,,,TrialProc,,TrainingTrialList,1,1,-999999,0,164440,0,1,510,164950,Target1.bmp,lime,1,,,,6,2,33
KW_Experiment5A,11,1,"<?xml version=""1.0""?>\n<Clock xmlns:dt=""urn:schemas-microsoft-com:datatypes""><Description dt:dt=""string"">E-Prime Primary Realtime Clock</Description><StartTime><Timestamp dt:dt=""int"">0</Timestamp><DateUtc dt:dt=""string"">2018-10-10T18:01:02Z</DateUtc></StartTime><FrequencyChanges><FrequencyChange><Frequency dt:dt=""r8"">3215292</Frequency><Timestamp dt:dt=""r8"">3915201700379</Timestamp><Current dt:dt=""r8"">0</Current><DateUtc dt:dt=""string"">2018-10-10T18:01:02Z</DateUtc></FrequencyChange></FrequencyChanges></Clock>\n",KW_Experiment5A-11-1,59.945,1.0.0.105,1,-1807855114,Professional,2.0.10.353,2.0.10.353,10/10/2018,10/10/2018 18:01,14:01:02,2.0.10.248,2,2,1,2,,,,,,,,TrainingProc,BlockList,34,1,Distractor1.bmp,1,0,,0,1,165975,400,,0,0,red,400,1,400,1,vertical,red,Distractor1.bmp,blue,Distractor2.bmp,purple,Distractor1.bmp,cyan,Distractor1.bmp,yellow,Distractor2.bmp,lime,Target1.bmp,,,,TrialProc,,TrainingTrialList,1,1,-999999,0,166375,0,1,479,166854,Target1.bmp,lime,1,,,,6,2,34
KW_Experiment5A,11,1,"<?xml version=""1.0""?>\n<Clock xmlns:dt=""urn:schemas-microsoft-com:datatypes""><Description dt:dt=""string"">E-Prime Primary Realtime Clock</Description><StartTime><Timestamp dt:dt=""int"">0</Timestamp><DateUtc dt:dt=""string"">2018-10-10T18:01:02Z</DateUtc></StartTime><FrequencyChanges><FrequencyChange><Frequency dt:dt=""r8"">3215292</Frequency><Timestamp dt:dt=""r8"">3915201700379</Timestamp><Current dt:dt=""r8"">0</Current><DateUtc dt:dt=""string"">2018-10-10T18:01:02Z</DateUtc></FrequencyChange></FrequencyChanges></Clock>\n",KW_Experiment5A-11-1,59.945,1.0.0.105,1,-1807855114,Professional,2.0.10.353,2.0.10.353,10/10/2018,10/10/2018 18:01,14:01:02,2.0.10.248,2,2,1,2,,,,,,,,TrainingProc,BlockList,35,1,Distractor2.bmp,2,0,,0,1,167877,400,,0,0,cyan,400,1,400,4,vertical,cyan,Distractor2.bmp,red,Distractor2.bmp,yellow,Distractor1.bmp,blue,Distractor2.bmp,purple,Distractor2.bmp,lime,Target1.bmp,,,,TrialProc,,TrainingTrialList,1,1,-999999,0,168277,0,1,649,168926,Target1.bmp,lime,1,,,,6,2,35
KW_Experiment5A,11,1,"<?xml version=""1.0""?>\n<Clock xmlns:dt=""urn:schemas-microsoft-com:datatypes""><Description dt:dt=""string"">E-Prime Primary Realtime Clock</Description><StartTime><Timestamp dt:dt=""int"">0</Timestamp><DateUtc dt:dt=""string"">2018-10-10T18:01:02Z</DateUtc></StartTime><FrequencyChanges><FrequencyChange><Frequency dt:dt=""r8"">3215292</Frequency><Timestamp dt:dt=""r8"">3915201700379</Timestamp><Current dt:dt=""r8"">0</Current><DateUtc dt:dt=""string"">2018-10-10T18:01:02Z</DateUtc></FrequencyChange></FrequencyChanges></Clock>\n",KW_Experiment5A-11-1,59.945,1.0.0.105,1,-1807855114,Professional,2.0.10.353,2.0.10.353,10/10/2018,10/10/2018 18:01,14:01:02,2.0.10.248,2,2,1,2,,,,,,,,TrainingProc,BlockList,36,2,Distractor1.bmp,1,0,,0,1,169945,401,,0,0,cyan,400,1,400,,horizontal,cyan,Distractor2.bmp,red,Target2.bmp,lime,Distractor1.bmp,purple,Distractor1.bmp,blue,Distractor1.bmp,yellow,Distractor2.bmp,,,,TrialProc,4,TrainingTrialList,1,2,-999999,1,170346,0,2,548,170894,Target2.bmp,red,2,,,,8,2,36
KW_Experiment5A,11,1,"<?xml version=""1.0""?>\n<Clock xmlns:dt=""urn:schemas-microsoft-com:datatypes""><Description dt:dt=""string"">E-Prime Primary Realtime Clock</Description><StartTime><Timestamp dt:dt=""int"">0</Timestamp><DateUtc dt:dt=""string"">2018-10-10T18:01:02Z</DateUtc></StartTime><FrequencyChanges><FrequencyChange><Frequency dt:dt=""r8"">3215292</Frequency><Timestamp dt:dt=""r8"">3915201700379</Timestamp><Current dt:dt=""r8"">0</Current><DateUtc dt:dt=""string"">2018-10-10T18:01:02Z</DateUtc></FrequencyChange></FrequencyChanges></Clock>\n",KW_Experiment5A-11-1,59.945,1.0.0.105,1,-1807855114,Professional,2.0.10.353,2.0.10.353,10/10/2018,10/10/2018 18:01,14:01:02,2.0.10.248,2,2,1,2,,,,,,,,TrainingProc,BlockList,37,2,Distractor2.bmp,2,0,,0,1,171914,400,,0,0,yellow,400,1,400,2,horizontal,lime,Target2.bmp,yellow,Distractor2.bmp,cyan,Distractor2.bmp,red,Distractor2.bmp,purple,Distractor1.bmp,blue,Distractor1.bmp,,,,TrialProc,,TrainingTrialList,1,2,-999999,0,172314,0,2,812,173126,Target2.bmp,lime,2,,,,1,2,37
KW_Experiment5A,11,1,"<?xml version=""1.0""?>\n<Clock xmlns:dt=""urn:schemas-microsoft-com:datatypes""><Description dt:dt=""string"">E-Prime Primary Realtime Clock</Description><StartTime><Timestamp dt:dt=""int"">0</Timestamp><DateUtc dt:dt=""string"">2018-10-10T18:01:02Z</DateUtc></StartTime><FrequencyChanges><FrequencyChange><Frequency dt:dt=""r8"">3215292</Frequency><Timestamp dt:dt=""r8"">3915201700379</Timestamp><Current dt:dt=""r8"">0</Current><DateUtc dt:dt=""string"">2018-10-10T18:01:02Z</DateUtc></FrequencyChange></FrequencyChanges></Clock>\n",KW_Experiment5A-11-1,59.945,1.0.0.105,1,-1807855114,Professional,2.0.10.353,2.0.10.353,10/10/2018,10/10/2018 18:01,14:01:02,2.0.10.248,2,2,1,2,,,,,,,,TrainingProc,BlockList,38,2,Distractor1.bmp,1,0,,0,1,174149,601,,0,0,blue,600,3,600,3,horizontal,blue,Distractor1.bmp,lime,Target2.bmp,cyan,Distractor1.bmp,purple,Distractor1.bmp,yellow,Distractor2.bmp,red,Distractor1.bmp,,,,TrialProc,,TrainingTrialList,1,2,-999999,1,174750,0,2,880,175630,Target2.bmp,lime,2,,,,2,2,38
KW_Experiment5A,11,1,"<?xml version=""1.0""?>\n<Clock xmlns:dt=""urn:schemas-microsoft-com:datatypes""><Description dt:dt=""string"">E-Prime Primary Realtime Clock</Description><StartTime><Timestamp dt:dt=""int"">0</Timestamp><DateUtc dt:dt=""string"">2018-10-10T18:01:02Z</DateUtc></StartTime><FrequencyChanges><FrequencyChange><Frequency dt:dt=""r8"">3215292</Frequency><Timestamp dt:dt=""r8"">3915201700379</Timestamp><Current dt:dt=""r8"">0</Current><DateUtc dt:dt=""string"">2018-10-10T18:01:02Z</DateUtc></FrequencyChange></FrequencyChanges></Clock>\n",KW_Experiment5A-11-1,59.945,1.0.0.105,1,-1807855114,Professional,2.0.10.353,2.0.10.353,10/10/2018,10/10/2018 18:01,14:01:02,2.0.10.248,2,2,1,2,,,,,,,,TrainingProc,BlockList,39,2,Distractor1.bmp,1,0,,0,1,176651,401,,0,0,red,400,1,400,1,horizontal,red,Distractor2.bmp,lime,Target2.bmp,yellow,Distractor1.bmp,cyan,Distractor1.bmp,blue,Distractor1.bmp,purple,Distractor2.bmp,,,,TrialProc,,TrainingTrialList,1,2,-999999,1,177052,0,2,810,177862,Target2.bmp,lime,2,,,,2,2,39
KW_Experiment5A,11,1,"<?xml version=""1.0""?>\n<Clock xmlns:dt=""urn:schemas-microsoft-com:datatypes""><Description dt:dt=""string"">E-Prime Primary Realtime Clock</Description><StartTime><Timestamp dt:dt=""int"">0</Timestamp><DateUtc dt:dt=""string"">2018-10-10T18:01:02Z</DateUtc></StartTime><FrequencyChanges><FrequencyChange><Frequency dt:dt=""r8"">3215292</Frequency><Timestamp dt:dt=""r8"">3915201700379</Timestamp><Current dt:dt=""r8"">0</Current><DateUtc dt:dt=""string"">2018-10-10T18:01:02Z</DateUtc></FrequencyChange></FrequencyChanges></Clock>\n",KW_Experiment5A-11-1,59.945,1.0.0.105,1,-1807855114,Professional,2.0.10.353,2.0.10.353,10/10/2018,10/10/2018 18:01,14:01:02,2.0.10.248,2,2,1,2,,,,,,,,TrainingProc,BlockList,40,2,Distractor2.bmp,2,0,,0,1,178887,600,,0,0,red,600,3,600,1,horizontal,red,Distractor1.bmp,blue,Distractor1.bmp,lime,Target2.bmp,purple,Distractor2.bmp,yellow,Distractor2.bmp,cyan,Distractor1.bmp,,,,TrialProc,,TrainingTrialList,1,2,-999999,0,179487,0,2,959,180446,Target2.bmp,lime,2,,,,3,2,40
KW_Experiment5A,11,1,"<?xml version=""1.0""?>\n<Clock xmlns:dt=""urn:schemas-microsoft-com:datatypes""><Description dt:dt=""string"">E-Prime Primary Realtime Clock</Description><StartTime><Timestamp dt:dt=""int"">0</Timestamp><DateUtc dt:dt=""string"">2018-10-10T18:01:02Z</DateUtc></StartTime><FrequencyChanges><FrequencyChange><Frequency dt:dt=""r8"">3215292</Frequency><Timestamp dt:dt=""r8"">3915201700379</Timestamp><Current dt:dt=""r8"">0</Current><DateUtc dt:dt=""string"">2018-10-10T18:01:02Z</DateUtc></FrequencyChange></FrequencyChanges></Clock>\n",KW_Experiment5A-11-1,59.945,1.0.0.105,1,-1807855114,Professional,2.0.10.353,2.0.10.353,10/10/2018,10/10/2018 18:01,14:01:02,2.0.10.248,2,2,1,2,,,,,,,,TrainingProc,BlockList,41,2,Distractor1.bmp,1,0,,0,1,181456,500,,0,0,red,500,2,500,1,horizontal,red,Distractor1.bmp,cyan,Distractor1.bmp,lime,Target2.bmp,yellow,Distractor1.bmp,blue,Distractor1.bmp,purple,Distractor1.bmp,,,,TrialProc,,TrainingTrialList,1,2,-999999,0,181956,0,2,826,182782,Target2.bmp,lime,2,,,,3,2,41
KW_Experiment5A,11,1,"<?xml version=""1.0""?>\n<Clock xmlns:dt=""urn:schemas-microsoft-com:datatypes""><Description dt:dt=""string"">E-Prime Primary Realtime Clock</Description><StartTime><Timestamp dt:dt=""int"">0</Timestamp><DateUtc dt:dt=""string"">2018-10-10T18:01:02Z</DateUtc></StartTime><FrequencyChanges><FrequencyChange><Frequency dt:dt=""r8"">3215292</Frequency><Timestamp dt:dt=""r8"">3915201700379</Timestamp><Current dt:dt=""r8"">0</Current><DateUtc dt:dt=""string"">2018-10-10T18:01:02Z</DateUtc></FrequencyChange></FrequencyChanges></Clock>\n",KW_Experiment5A-11-1,59.945,1.0.0.105,1,-1807855114,Professional,2.0.10.353,2.0.10.353,10/10/2018,10/10/2018 18:01,14:01:02,2.0.10.248,2,2,1,2,,,,,,,,TrainingProc,BlockList,42,1,Distractor1.bmp,1,0,,0,1,183791,401,,0,0,yellow,400,1,400,2,vertical,yellow,Distractor1.bmp,lime,Target1.bmp,blue,Distractor1.bmp,cyan,Distractor2.bmp,red,Distractor2.bmp,purple,Distractor1.bmp,,,,TrialProc,,TrainingTrialList,1,1,-999999,1,184192,0,1,630,184822,Target1.bmp,lime,1,,,,2,2,42
KW_Experiment5A,11,1,"<?xml version=""1.0""?>\n<Clock xmlns:dt=""urn:schemas-microsoft-com:datatypes""><Description dt:dt=""string"">E-Prime Primary Realtime Clock</Description><StartTime><Timestamp dt:dt=""int"">0</Timestamp><DateUtc dt:dt=""string"">2018-10-10T18:01:02Z</DateUtc></StartTime><FrequencyChanges><FrequencyChange><Frequency dt:dt=""r8"">3215292</Frequency><Timestamp dt:dt=""r8"">3915201700379</Timestamp><Current dt:dt=""r8"">0</Current><DateUtc dt:dt=""string"">2018-10-10T18:01:02Z</DateUtc></FrequencyChange></FrequencyChanges></Clock>\n",KW_Experiment5A-11-1,59.945,1.0.0.105,1,-1807855114,Professional,2.0.10.353,2.0.10.353,10/10/2018,10/10/2018 18:01,14:01:02,2.0.10.248,2,2,1,2,,,,,,,,TrainingProc,BlockList,43,1,Distractor1.bmp,1,0,,0,1,185843,400,,0,0,purple,400,1,400,,vertical,purple,Distractor2.bmp,cyan,Distractor2.bmp,red,Target1.bmp,lime,Distractor1.bmp,blue,Distractor2.bmp,yellow,Distractor1.bmp,,,,TrialProc,5,TrainingTrialList,1,1,-999999,0,186243,0,1,691,186934,Target1.bmp,red,1,,,,9,2,43
KW_Experiment5A,11,1,"<?xml version=""1.0""?>\n<Clock xmlns:dt=""urn:schemas-microsoft-com:datatypes""><Description dt:dt=""string"">E-Prime Primary Realtime Clock</Description><StartTime><Timestamp dt:dt=""int"">0</Timestamp><DateUtc dt:dt=""string"">2018-10-10T18:01:02Z</DateUtc></StartTime><FrequencyChanges><FrequencyChange><Frequency dt:dt=""r8"">3215292</Frequency><Timestamp dt:dt=""r8"">3915201700379</Timestamp><Current dt:dt=""r8"">0</Current><DateUtc dt:dt=""string"">2018-10-10T18:01:02Z</DateUtc></FrequencyChange></FrequencyChanges></Clock>\n",KW_Experiment5A-11-1,59.945,1.0.0.105,1,-1807855114,Professional,2.0.10.353,2.0.10.353,10/10/2018,10/10/2018 18:01,14:01:02,2.0.10.248,2,2,1,2,,,,,,,,TrainingProc,BlockList,44,2,Distractor1.bmp,1,0,,0,1,187945,400,,0,0,purple,400,1,400,5,horizontal,purple,Distractor2.bmp,red,Distractor1.bmp,blue,Distractor2.bmp,lime,Target2.bmp,cyan,Distractor1.bmp,yellow,Distractor1.bmp,,,,TrialProc,,TrainingTrialList,1,2,-999999,0,188345,0,2,1157,189502,Target2.bmp,lime,2,,,,4,2,44
KW_Experiment5A,11,1,"<?xml version=""1.0""?>\n<Clock xmlns:dt=""urn:schemas-microsoft-com:datatypes""><Description dt:dt=""string"">E-Prime Primary Realtime Clock</Description><StartTime><Timestamp dt:dt=""int"">0</Timestamp><DateUtc dt:dt=""string"">2018-10-10T18:01:02Z</DateUtc></StartTime><FrequencyChanges><FrequencyChange><Frequency dt:dt=""r8"">3215292</Frequency><Timestamp dt:dt=""r8"">3915201700379</Timestamp><Current dt:dt=""r8"">0</Current><DateUtc dt:dt=""string"">2018-10-10T18:01:02Z</DateUtc></FrequencyChange></FrequencyChanges></Clock>\n",KW_Experiment5A-11-1,59.945,1.0.0.105,1,-1807855114,Professional,2.0.10.353,2.0.10.353,10/10/2018,10/10/2018 18:01,14:01:02,2.0.10.248,2,2,1,2,,,,,,,,TrainingProc,BlockList,45,2,Distractor2.bmp,2,0,,0,1,190514,400,,0,0,yellow,400,1,400,2,horizontal,yellow,Distractor2.bmp,purple,Distractor2.bmp,lime,Target2.bmp,red,Distractor2.bmp,blue,Distractor1.bmp,cyan,Distractor1.bmp,,,,TrialProc,,TrainingTrialList,1,2,-999999,0,190914,0,2,964,191878,Target2.bmp,lime,2,,,,3,2,45
KW_Experiment5A,11,1,"<?xml version=""1.0""?>\n<Clock xmlns:dt=""urn:schemas-microsoft-com:datatypes""><Description dt:dt=""string"">E-Prime Primary Realtime Clock</Description><StartTime><Timestamp dt:dt=""int"">0</Timestamp><DateUtc dt:dt=""string"">2018-10-10T18:01:02Z</DateUtc></StartTime><FrequencyChanges><FrequencyChange><Frequency dt:dt=""r8"">3215292</Frequency><Timestamp dt:dt=""r8"">3915201700379</Timestamp><Current dt:dt=""r8"">0</Current><DateUtc dt:dt=""string"">2018-10-10T18:01:02Z</DateUtc></FrequencyChange></FrequencyChanges></Clock>\n",KW_Experiment5A-11-1,59.945,1.0.0.105,1,-1807855114,Professional,2.0.10.353,2.0.10.353,10/10/2018,10/10/2018 18:01,14:01:02,2.0.10.248,2,2,1,2,,,,,,,,TrainingProc,BlockList,46,2,Distractor2.bmp,2,0,,1,0,192899,401,,0,0,yellow,400,1,400,,horizontal,red,Target2.bmp,blue,Distractor2.bmp,cyan,Distractor1.bmp,purple,Distractor1.bmp,lime,Distractor1.bmp,yellow,Distractor1.bmp,,,,TrialProc,2,TrainingTrialList,1,2,-999999,1,193300,0,2,602,193902,Target2.bmp,red,2,,,,7,2,46
KW_Experiment5A,11,1,"<?xml version=""1.0""?>\n<Clock xmlns:dt=""urn:schemas-microsoft-com:datatypes""><Description dt:dt=""string"">E-Prime Primary Realtime Clock</Description><StartTime><Timestamp dt:dt=""int"">0</Timestamp><DateUtc dt:dt=""string"">2018-10-10T18:01:02Z</DateUtc></StartTime><FrequencyChanges><FrequencyChange><Frequency dt:dt=""r8"">3215292</Frequency><Timestamp dt:dt=""r8"">3915201700379</Timestamp><Current dt:dt=""r8"">0</Current><DateUtc dt:dt=""string"">2018-10-10T18:01:02Z</DateUtc></FrequencyChange></FrequencyChanges></Clock>\n",KW_Experiment5A-11-1,59.945,1.0.0.105,1,-1807855114,Professional,2.0.10.353,2.0.10.353,10/10/2018,10/10/2018 18:01,14:01:02,2.0.10.248,2,2,1,2,,,,,,,,TrainingProc,BlockList,47,1,Distractor1.bmp,1,0,,0,1,194918,500,,0,0,cyan,500,2,500,4,vertical,cyan,Distractor2.bmp,blue,Distractor2.bmp,yellow,Distractor1.bmp,purple,Distractor1.bmp,lime,Target1.bmp,red,Distractor1.bmp,,,,TrialProc,,TrainingTrialList,1,1,-999999,0,195418,0,1,580,195998,Target1.bmp,lime,1,,,,5,2,47
KW_Experiment5A,11,1,"<?xml version=""1.0""?>\n<Clock xmlns:dt=""urn:schemas-microsoft-com:datatypes""><Description dt:dt=""string"">E-Prime Primary Realtime Clock</Description><StartTime><Timestamp dt:dt=""int"">0</Timestamp><DateUtc dt:dt=""string"">2018-10-10T18:01:02Z</DateUtc></StartTime><FrequencyChanges><FrequencyChange><Frequency dt:dt=""r8"">3215292</Frequency><Timestamp dt:dt=""r8"">3915201700379</Timestamp><Current dt:dt=""r8"">0</Current><DateUtc dt:dt=""string"">2018-10-10T18:01:02Z</DateUtc></FrequencyChange></FrequencyChanges></Clock>\n",KW_Experiment5A-11-1,59.945,1.0.0.105,1,-1807855114,Professional,2.0.10.353,2.0.10.353,10/10/2018,10/10/2018 18:01,14:01:02,2.0.10.248,2,2,1,2,,,,,,,,TrainingProc,BlockList,48,2,Distractor1.bmp,1,0,,0,1,197020,500,,0,0,cyan,500,2,500,4,horizontal,cyan,Distractor2.bmp,yellow,Distractor1.bmp,blue,Distractor1.bmp,lime,Target2.bmp,purple,Distractor1.bmp,red,Distractor1.bmp,,,,TrialProc,,TrainingTrialList,1,2,-999999,0,197520,0,2,574,198094,Target2.bmp,lime,2,,,,4,2,48
KW_Experiment5A,11,1,"<?xml version=""1.0""?>\n<Clock xmlns:dt=""urn:schemas-microsoft-com:datatypes""><Description dt:dt=""string"">E-Prime Primary Realtime Clock</Description><StartTime><Timestamp dt:dt=""int"">0</Timestamp><DateUtc dt:dt=""string"">2018-10-10T18:01:02Z</DateUtc></StartTime><FrequencyChanges><FrequencyChange><Frequency dt:dt=""r8"">3215292</Frequency><Timestamp dt:dt=""r8"">3915201700379</Timestamp><Current dt:dt=""r8"">0</Current><DateUtc dt:dt=""string"">2018-10-10T18:01:02Z</DateUtc></FrequencyChange></FrequencyChanges></Clock>\n",KW_Experiment5A-11-1,59.945,1.0.0.105,1,-1807855114,Professional,2.0.10.353,2.0.10.353,10/10/2018,10/10/2018 18:01,14:01:02,2.0.10.248,3,2,1,3,,,,,,,,TrainingProc,BlockList,1,2,Distractor2.bmp,2,0,,0,19,201224,500,,0,0,cyan,500,2,500,,horizontal,cyan,Distractor1.bmp,blue,Distractor1.bmp,purple,Distractor1.bmp,red,Target2.bmp,yellow,Distractor2.bmp,lime,Distractor2.bmp,,,,TrialProc,4,TrainingTrialList,1,2,-999999,0,201724,0,2,793,202517,Target2.bmp,red,2,,,,10,3,49
KW_Experiment5A,11,1,"<?xml version=""1.0""?>\n<Clock xmlns:dt=""urn:schemas-microsoft-com:datatypes""><Description dt:dt=""string"">E-Prime Primary Realtime Clock</Description><StartTime><Timestamp dt:dt=""int"">0</Timestamp><DateUtc dt:dt=""string"">2018-10-10T18:01:02Z</DateUtc></StartTime><FrequencyChanges><FrequencyChange><Frequency dt:dt=""r8"">3215292</Frequency><Timestamp dt:dt=""r8"">3915201700379</Timestamp><Current dt:dt=""r8"">0</Current><DateUtc dt:dt=""string"">2018-10-10T18:01:02Z</DateUtc></FrequencyChange></FrequencyChanges></Clock>\n",KW_Experiment5A-11-1,59.945,1.0.0.105,1,-1807855114,Professional,2.0.10.353,2.0.10.353,10/10/2018,10/10/2018 18:01,14:01:02,2.0.10.248,3,2,1,3,,,,,,,,TrainingProc,BlockList,2,2,Distractor1.bmp,1,0,,1,0,203542,401,,0,0,red,400,1,400,1,horizontal,red,Distractor1.bmp,purple,Distractor1.bmp,blue,Distractor2.bmp,yellow,Distractor1.bmp,cyan,Distractor1.bmp,lime,Target2.bmp,,,,TrialProc,,TrainingTrialList,1,2,-999999,1,203943,0,2,822,204765,Target2.bmp,lime,2,,,,6,3,50
KW_Experiment5A,11,1,"<?xml version=""1.0""?>\n<Clock xmlns:dt=""urn:schemas-microsoft-com:datatypes""><Description dt:dt=""string"">E-Prime Primary Realtime Clock</Description><StartTime><Timestamp dt:dt=""int"">0</Timestamp><DateUtc dt:dt=""string"">2018-10-10T18:01:02Z</DateUtc></StartTime><FrequencyChanges><FrequencyChange><Frequency dt:dt=""r8"">3215292</Frequency><Timestamp dt:dt=""r8"">3915201700379</Timestamp><Current dt:dt=""r8"">0</Current><DateUtc dt:dt=""string"">2018-10-10T18:01:02Z</DateUtc></FrequencyChange></FrequencyChanges></Clock>\n",KW_Experiment5A-11-1,59.945,1.0.0.105,1,-1807855114,Professional,2.0.10.353,2.0.10.353,10/10/2018,10/10/2018 18:01,14:01:02,2.0.10.248,3,2,1,3,,,,,,,,TrainingProc,BlockList,3,2,Distractor2.bmp,2,0,,0,1,205778,600,,0,0,cyan,600,3,600,4,horizontal,lime,Target2.bmp,cyan,Distractor2.bmp,blue,Distractor1.bmp,yellow,Distractor2.bmp,red,Distractor2.bmp,purple,Distractor2.bmp,,,,TrialProc,,TrainingTrialList,1,2,-999999,0,206378,0,2,675,207053,Target2.bmp,lime,2,,,,1,3,51
KW_Experiment5A,11,1,"<?xml version=""1.0""?>\n<Clock xmlns:dt=""urn:schemas-microsoft-com:datatypes""><Description dt:dt=""string"">E-Prime Primary Realtime Clock</Description><StartTime><Timestamp dt:dt=""int"">0</Timestamp><DateUtc dt:dt=""string"">2018-10-10T18:01:02Z</DateUtc></StartTime><FrequencyChanges><FrequencyChange><Frequency dt:dt=""r8"">3215292</Frequency><Timestamp dt:dt=""r8"">3915201700379</Timestamp><Current dt:dt=""r8"">0</Current><DateUtc dt:dt=""string"">2018-10-10T18:01:02Z</DateUtc></FrequencyChange></FrequencyChanges></Clock>\n",KW_Experiment5A-11-1,59.945,1.0.0.105,1,-1807855114,Professional,2.0.10.353,2.0.10.353,10/10/2018,10/10/2018 18:01,14:01:02,2.0.10.248,3,2,1,3,,,,,,,,TrainingProc,BlockList,4,2,Distractor1.bmp,1,0,,0,1,208063,601,,0,0,yellow,600,3,600,2,horizontal,yellow,Distractor1.bmp,cyan,Distractor2.bmp,blue,Distractor2.bmp,red,Distractor1.bmp,purple,Distractor1.bmp,lime,Target2.bmp,,,,TrialProc,,TrainingTrialList,0,2,-999999,1,208664,0,1,493,209157,Target2.bmp,lime,2,,,,6,3,52
KW_Experiment5A,11,1,"<?xml version=""1.0""?>\n<Clock xmlns:dt=""urn:schemas-microsoft-com:datatypes""><Description dt:dt=""string"">E-Prime Primary Realtime Clock</Description><StartTime><Timestamp dt:dt=""int"">0</Timestamp><DateUtc dt:dt=""string"">2018-10-10T18:01:02Z</DateUtc></StartTime><FrequencyChanges><FrequencyChange><Frequency dt:dt=""r8"">3215292</Frequency><Timestamp dt:dt=""r8"">3915201700379</Timestamp><Current dt:dt=""r8"">0</Current><DateUtc dt:dt=""string"">2018-10-10T18:01:02Z</DateUtc></FrequencyChange></FrequencyChanges></Clock>\n",KW_Experiment5A-11-1,59.945,1.0.0.105,1,-1807855114,Professional,2.0.10.353,2.0.10.353,10/10/2018,10/10/2018 18:01,14:01:02,2.0.10.248,3,2,1,3,,,,,,,,TrainingProc,BlockList,5,1,Distractor1.bmp,1,0,,0,1,210182,400,,0,0,purple,400,1,400,5,vertical,purple,Distractor2.bmp,yellow,Distractor1.bmp,cyan,Distractor1.bmp,red,Distractor1.bmp,lime,Target1.bmp,blue,Distractor1.bmp,,,,TrialProc,,TrainingTrialList,1,1,-999999,0,210582,0,1,583,211165,Target1.bmp,lime,1,,,,5,3,53
KW_Experiment5A,11,1,"<?xml version=""1.0""?>\n<Clock xmlns:dt=""urn:schemas-microsoft-com:datatypes""><Description dt:dt=""string"">E-Prime Primary Realtime Clock</Description><StartTime><Timestamp dt:dt=""int"">0</Timestamp><DateUtc dt:dt=""string"">2018-10-10T18:01:02Z</DateUtc></StartTime><FrequencyChanges><FrequencyChange><Frequency dt:dt=""r8"">3215292</Frequency><Timestamp dt:dt=""r8"">3915201700379</Timestamp><Current dt:dt=""r8"">0</Current><DateUtc dt:dt=""string"">2018-10-10T18:01:02Z</DateUtc></FrequencyChange></FrequencyChanges></Clock>\n",KW_Experiment5A-11-1,59.945,1.0.0.105,1,-1807855114,Professional,2.0.10.353,2.0.10.353,10/10/2018,10/10/2018 18:01,14:01:02,2.0.10.248,3,2,1,3,,,,,,,,TrainingProc,BlockList,6,2,Distractor2.bmp,2,0,,0,1,212184,600,,0,0,blue,600,3,600,,horizontal,blue,Distractor2.bmp,red,Target2.bmp,cyan,Distractor2.bmp,lime,Distractor2.bmp,yellow,Distractor1.bmp,purple,Distractor1.bmp,,,,TrialProc,3,TrainingTrialList,1,2,-999999,0,212784,0,2,573,213357,Target2.bmp,red,2,,,,8,3,54
KW_Experiment5A,11,1,"<?xml version=""1.0""?>\n<Clock xmlns:dt=""urn:schemas-microsoft-com:datatypes""><Description dt:dt=""string"">E-Prime Primary Realtime Clock</Description><StartTime><Timestamp dt:dt=""int"">0</Timestamp><DateUtc dt:dt=""string"">2018-10-10T18:01:02Z</DateUtc></StartTime><FrequencyChanges><FrequencyChange><Frequency dt:dt=""r8"">3215292</Frequency><Timestamp dt:dt=""r8"">3915201700379</Timestamp><Current dt:dt=""r8"">0</Current><DateUtc dt:dt=""string"">2018-10-10T18:01:02Z</DateUtc></FrequencyChange></FrequencyChanges></Clock>\n",KW_Experiment5A-11-1,59.945,1.0.0.105,1,-1807855114,Professional,2.0.10.353,2.0.10.353,10/10/2018,10/10/2018 18:01,14:01:02,2.0.10.248,3,2,1,3,,,,,,,,TrainingProc,BlockList,7,2,Distractor1.bmp,1,0,,0,1,214369,500,,0,0,purple,500,2,500,5,horizontal,purple,Distractor1.bmp,red,Distractor1.bmp,cyan,Distractor2.bmp,lime,Target2.bmp,yellow,Distractor1.bmp,blue,Distractor2.bmp,,,,TrialProc,,TrainingTrialList,1,2,-999999,0,214869,0,2,592,215461,Target2.bmp,lime,2,,,,4,3,55
KW_Experiment5A,11,1,"<?xml version=""1.0""?>\n<Clock xmlns:dt=""urn:schemas-microsoft-com:datatypes""><Description dt:dt=""string"">E-Prime Primary Realtime Clock</Description><StartTime><Timestamp dt:dt=""int"">0</Timestamp><DateUtc dt:dt=""string"">2018-10-10T18:01:02Z</DateUtc></StartTime><FrequencyChanges><FrequencyChange><Frequency dt:dt=""r8"">3215292</Frequency><Timestamp dt:dt=""r8"">3915201700379</Timestamp><Current dt:dt=""r8"">0</Current><DateUtc dt:dt=""string"">2018-10-10T18:01:02Z</DateUtc></FrequencyChange></FrequencyChanges></Clock>\n",KW_Experiment5A-11-1,59.945,1.0.0.105,1,-1807855114,Professional,2.0.10.353,2.0.10.353,10/10/2018,10/10/2018 18:01,14:01:02,2.0.10.248,3,2,1,3,,,,,,,,TrainingProc,BlockList,8,1,Distractor1.bmp,1,0,,0,1,216471,600,,0,0,red,600,3,600,1,vertical,red,Distractor2.bmp,blue,Distractor1.bmp,cyan,Distractor2.bmp,lime,Target1.bmp,yellow,Distractor1.bmp,purple,Distractor2.bmp,,,,TrialProc,,TrainingTrialList,0,1,-999999,0,217071,0,2,454,217525,Target1.bmp,lime,1,,,,4,3,56
KW_Experiment5A,11,1,"<?xml version=""1.0""?>\n<Clock xmlns:dt=""urn:schemas-microsoft-com:datatypes""><Description dt:dt=""string"">E-Prime Primary Realtime Clock</Description><StartTime><Timestamp dt:dt=""int"">0</Timestamp><DateUtc dt:dt=""string"">2018-10-10T18:01:02Z</DateUtc></StartTime><FrequencyChanges><FrequencyChange><Frequency dt:dt=""r8"">3215292</Frequency><Timestamp dt:dt=""r8"">3915201700379</Timestamp><Current dt:dt=""r8"">0</Current><DateUtc dt:dt=""string"">2018-10-10T18:01:02Z</DateUtc></FrequencyChange></FrequencyChanges></Clock>\n",KW_Experiment5A-11-1,59.945,1.0.0.105,1,-1807855114,Professional,2.0.10.353,2.0.10.353,10/10/2018,10/10/2018 18:01,14:01:02,2.0.10.248,3,2,1,3,,,,,,,,TrainingProc,BlockList,9,1,Distractor1.bmp,1,0,,1,0,218539,401,,0,0,yellow,400,1,400,2,vertical,yellow,Distractor1.bmp,lime,Target1.bmp,blue,Distractor1.bmp,purple,Distractor1.bmp,cyan,Distractor2.bmp,red,Distractor2.bmp,,,,TrialProc,,TrainingTrialList,1,1,-999999,1,218940,0,1,609,219549,Target1.bmp,lime,1,,,,2,3,57
KW_Experiment5A,11,1,"<?xml version=""1.0""?>\n<Clock xmlns:dt=""urn:schemas-microsoft-com:datatypes""><Description dt:dt=""string"">E-Prime Primary Realtime Clock</Description><StartTime><Timestamp dt:dt=""int"">0</Timestamp><DateUtc dt:dt=""string"">2018-10-10T18:01:02Z</DateUtc></StartTime><FrequencyChanges><FrequencyChange><Frequency dt:dt=""r8"">3215292</Frequency><Timestamp dt:dt=""r8"">3915201700379</Timestamp><Current dt:dt=""r8"">0</Current><DateUtc dt:dt=""string"">2018-10-10T18:01:02Z</DateUtc></FrequencyChange></FrequencyChanges></Clock>\n",KW_Experiment5A-11-1,59.945,1.0.0.105,1,-1807855114,Professional,2.0.10.353,2.0.10.353,10/10/2018,10/10/2018 18:01,14:01:02,2.0.10.248,3,2,1,3,,,,,,,,TrainingProc,BlockList,10,2,Distractor2.bmp,2,0,,0,1,220575,600,,0,0,blue,600,3,600,,horizontal,red,Target2.bmp,lime,Distractor2.bmp,purple,Distractor2.bmp,yellow,Distractor1.bmp,cyan,Distractor1.bmp,blue,Distractor2.bmp,,,,TrialProc,3,TrainingTrialList,1,2,-999999,0,221175,0,2,582,221757,Target2.bmp,red,2,,,,7,3,58
KW_Experiment5A,11,1,"<?xml version=""1.0""?>\n<Clock xmlns:dt=""urn:schemas-microsoft-com:datatypes""><Description dt:dt=""string"">E-Prime Primary Realtime Clock</Description><StartTime><Timestamp dt:dt=""int"">0</Timestamp><DateUtc dt:dt=""string"">2018-10-10T18:01:02Z</DateUtc></StartTime><FrequencyChanges><FrequencyChange><Frequency dt:dt=""r8"">3215292</Frequency><Timestamp dt:dt=""r8"">3915201700379</Timestamp><Current dt:dt=""r8"">0</Current><DateUtc dt:dt=""string"">2018-10-10T18:01:02Z</DateUtc></FrequencyChange></FrequencyChanges></Clock>\n",KW_Experiment5A-11-1,59.945,1.0.0.105,1,-1807855114,Professional,2.0.10.353,2.0.10.353,10/10/2018,10/10/2018 18:01,14:01:02,2.0.10.248,3,2,1,3,,,,,,,,TrainingProc,BlockList,11,1,Distractor2.bmp,2,0,,0,1,222777,600,,0,0,blue,600,3,600,,vertical,blue,Distractor2.bmp,lime,Distractor2.bmp,yellow,Distractor1.bmp,purple,Distractor2.bmp,red,Target1.bmp,cyan,Distractor2.bmp,,,,TrialProc,3,TrainingTrialList,1,1,-999999,0,223377,0,1,428,223805,Target1.bmp,red,1,,,,11,3,59
KW_Experiment5A,11,1,"<?xml version=""1.0""?>\n<Clock xmlns:dt=""urn:schemas-microsoft-com:datatypes""><Description dt:dt=""string"">E-Prime Primary Realtime Clock</Description><StartTime><Timestamp dt:dt=""int"">0</Timestamp><DateUtc dt:dt=""string"">2018-10-10T18:01:02Z</DateUtc></StartTime><FrequencyChanges><FrequencyChange><Frequency dt:dt=""r8"">3215292</Frequency><Timestamp dt:dt=""r8"">3915201700379</Timestamp><Current dt:dt=""r8"">0</Current><DateUtc dt:dt=""string"">2018-10-10T18:01:02Z</DateUtc></FrequencyChange></FrequencyChanges></Clock>\n",KW_Experiment5A-11-1,59.945,1.0.0.105,1,-1807855114,Professional,2.0.10.353,2.0.10.353,10/10/2018,10/10/2018 18:01,14:01:02,2.0.10.248,3,2,1,3,,,,,,,,TrainingProc,BlockList,12,2,Distractor2.bmp,2,0,,0,1,224829,400,,0,0,yellow,400,1,400,2,horizontal,yellow,Distractor2.bmp,red,Distractor2.bmp,cyan,Distractor1.bmp,purple,Distractor1.bmp,lime,Target2.bmp,blue,Distractor2.bmp,,,,TrialProc,,TrainingTrialList,1,2,-999999,0,225229,0,2,680,225909,Target2.bmp,lime,2,,,,5,3,60
KW_Experiment5A,11,1,"<?xml version=""1.0""?>\n<Clock xmlns:dt=""urn:schemas-microsoft-com:datatypes""><Description dt:dt=""string"">E-Prime Primary Realtime Clock</Description><StartTime><Timestamp dt:dt=""int"">0</Timestamp><DateUtc dt:dt=""string"">2018-10-10T18:01:02Z</DateUtc></StartTime><FrequencyChanges><FrequencyChange><Frequency dt:dt=""r8"">3215292</Frequency><Timestamp dt:dt=""r8"">3915201700379</Timestamp><Current dt:dt=""r8"">0</Current><DateUtc dt:dt=""string"">2018-10-10T18:01:02Z</DateUtc></FrequencyChange></FrequencyChanges></Clock>\n",KW_Experiment5A-11-1,59.945,1.0.0.105,1,-1807855114,Professional,2.0.10.353,2.0.10.353,10/10/2018,10/10/2018 18:01,14:01:02,2.0.10.248,3,2,1,3,,,,,,,,TrainingProc,BlockList,13,2,Distractor2.bmp,2,0,,0,0,226930,501,,0,0,red,500,2,500,1,horizontal,red,Distractor2.bmp,blue,Distractor1.bmp,cyan,Distractor1.bmp,yellow,Distractor2.bmp,purple,Distractor1.bmp,lime,Target2.bmp,,,,TrialProc,,TrainingTrialList,1,2,-999999,1,227431,0,2,590,228021,Target2.bmp,lime,2,,,,6,3,61
KW_Experiment5A,11,1,"<?xml version=""1.0""?>\n<Clock xmlns:dt=""urn:schemas-microsoft-com:datatypes""><Description dt:dt=""string"">E-Prime Primary Realtime Clock</Description><StartTime><Timestamp dt:dt=""int"">0</Timestamp><DateUtc dt:dt=""string"">2018-10-10T18:01:02Z</DateUtc></StartTime><FrequencyChanges><FrequencyChange><Frequency dt:dt=""r8"">3215292</Frequency><Timestamp dt:dt=""r8"">3915201700379</Timestamp><Current dt:dt=""r8"">0</Current><DateUtc dt:dt=""string"">2018-10-10T18:01:02Z</DateUtc></FrequencyChange></FrequencyChanges></Clock>\n",KW_Experiment5A-11-1,59.945,1.0.0.105,1,-1807855114,Professional,2.0.10.353,2.0.10.353,10/10/2018,10/10/2018 18:01,14:01:02,2.0.10.248,3,2,1,3,,,,,,,,TrainingProc,BlockList,14,2,Distractor2.bmp,2,0,,0,1,229032,601,,0,0,blue,600,3,600,3,horizontal,blue,Distractor2.bmp,purple,Distractor2.bmp,red,Distractor2.bmp,lime,Target2.bmp,cyan,Distractor2.bmp,yellow,Distractor1.bmp,,,,TrialProc,,TrainingTrialList,1,2,-999999,1,229633,0,2,684,230317,Target2.bmp,lime,2,,,,4,3,62
KW_Experiment5A,11,1,"<?xml version=""1.0""?>\n<Clock xmlns:dt=""urn:schemas-microsoft-com:datatypes""><Description dt:dt=""string"">E-Prime Primary Realtime Clock</Description><StartTime><Timestamp dt:dt=""int"">0</Timestamp><DateUtc dt:dt=""string"">2018-10-10T18:01:02Z</DateUtc></StartTime><FrequencyChanges><FrequencyChange><Frequency dt:dt=""r8"">3215292</Frequency><Timestamp dt:dt=""r8"">3915201700379</Timestamp><Current dt:dt=""r8"">0</Current><DateUtc dt:dt=""string"">2018-10-10T18:01:02Z</DateUtc></FrequencyChange></FrequencyChanges></Clock>\n",KW_Experiment5A-11-1,59.945,1.0.0.105,1,-1807855114,Professional,2.0.10.353,2.0.10.353,10/10/2018,10/10/2018 18:01,14:01:02,2.0.10.248,3,2,1,3,,,,,,,,TrainingProc,BlockList,15,1,Distractor2.bmp,2,0,,1,1,231334,601,,0,0,blue,600,3,600,3,vertical,blue,Distractor2.bmp,yellow,Distractor2.bmp,lime,Target1.bmp,red,Distractor2.bmp,cyan,Distractor2.bmp,purple,Distractor1.bmp,,,,TrialProc,,TrainingTrialList,1,1,-999999,1,231935,0,1,598,232533,Target1.bmp,lime,1,,,,3,3,63
KW_Experiment5A,11,1,"<?xml version=""1.0""?>\n<Clock xmlns:dt=""urn:schemas-microsoft-com:datatypes""><Description dt:dt=""string"">E-Prime Primary Realtime Clock</Description><StartTime><Timestamp dt:dt=""int"">0</Timestamp><DateUtc dt:dt=""string"">2018-10-10T18:01:02Z</DateUtc></StartTime><FrequencyChanges><FrequencyChange><Frequency dt:dt=""r8"">3215292</Frequency><Timestamp dt:dt=""r8"">3915201700379</Timestamp><Current dt:dt=""r8"">0</Current><DateUtc dt:dt=""string"">2018-10-10T18:01:02Z</DateUtc></FrequencyChange></FrequencyChanges></Clock>\n",KW_Experiment5A-11-1,59.945,1.0.0.105,1,-1807855114,Professional,2.0.10.353,2.0.10.353,10/10/2018,10/10/2018 18:01,14:01:02,2.0.10.248,3,2,1,3,,,,,,,,TrainingProc,BlockList,16,1,Distractor2.bmp,2,0,,0,1,233553,400,,0,0,blue,400,1,400,3,vertical,blue,Distractor2.bmp,red,Distractor1.bmp,lime,Target1.bmp,yellow,Distractor2.bmp,cyan,Distractor1.bmp,purple,Distractor1.bmp,,,,TrialProc,,TrainingTrialList,0,1,-999999,0,233953,0,2,580,234533,Target1.bmp,lime,1,,,,3,3,64
KW_Experiment5A,11,1,"<?xml version=""1.0""?>\n<Clock xmlns:dt=""urn:schemas-microsoft-com:datatypes""><Description dt:dt=""string"">E-Prime Primary Realtime Clock</Description><StartTime><Timestamp dt:dt=""int"">0</Timestamp><DateUtc dt:dt=""string"">2018-10-10T18:01:02Z</DateUtc></StartTime><FrequencyChanges><FrequencyChange><Frequency dt:dt=""r8"">3215292</Frequency><Timestamp dt:dt=""r8"">3915201700379</Timestamp><Current dt:dt=""r8"">0</Current><DateUtc dt:dt=""string"">2018-10-10T18:01:02Z</DateUtc></FrequencyChange></FrequencyChanges></Clock>\n",KW_Experiment5A-11-1,59.945,1.0.0.105,1,-1807855114,Professional,2.0.10.353,2.0.10.353,10/10/2018,10/10/2018 18:01,14:01:02,2.0.10.248,3,2,1,3,,,,,,,,TrainingProc,BlockList,17,1,Distractor1.bmp,1,0,,0,1,235555,600,,0,0,red,600,3,600,1,vertical,red,Distractor2.bmp,blue,Distractor1.bmp,lime,Target1.bmp,cyan,Distractor1.bmp,purple,Distractor2.bmp,yellow,Distractor2.bmp,,,,TrialProc,,TrainingTrialList,1,1,-999999,0,236155,0,1,898,237053,Target1.bmp,lime,1,,,,3,3,65
KW_Experiment5A,11,1,"<?xml version=""1.0""?>\n<Clock xmlns:dt=""urn:schemas-microsoft-com:datatypes""><Description dt:dt=""string"">E-Prime Primary Realtime Clock</Description><StartTime><Timestamp dt:dt=""int"">0</Timestamp><DateUtc dt:dt=""string"">2018-10-10T18:01:02Z</DateUtc></StartTime><FrequencyChanges><FrequencyChange><Frequency dt:dt=""r8"">3215292</Frequency><Timestamp dt:dt=""r8"">3915201700379</Timestamp><Current dt:dt=""r8"">0</Current><DateUtc dt:dt=""string"">2018-10-10T18:01:02Z</DateUtc></FrequencyChange></FrequencyChanges></Clock>\n",KW_Experiment5A-11-1,59.945,1.0.0.105,1,-1807855114,Professional,2.0.10.353,2.0.10.353,10/10/2018,10/10/2018 18:01,14:01:02,2.0.10.248,3,2,1,3,,,,,,,,TrainingProc,BlockList,18,1,Distractor2.bmp,2,0,,0,1,238074,400,,0,0,yellow,400,1,400,,vertical,yellow,Distractor2.bmp,cyan,Distractor2.bmp,blue,Distractor1.bmp,purple,Distractor1.bmp,lime,Distractor1.bmp,red,Target1.bmp,,,,TrialProc,2,TrainingTrialList,1,1,-999999,0,238474,0,1,906,239380,Target1.bmp,red,1,,,,12,3,66
KW_Experiment5A,11,1,"<?xml version=""1.0""?>\n<Clock xmlns:dt=""urn:schemas-microsoft-com:datatypes""><Description dt:dt=""string"">E-Prime Primary Realtime Clock</Description><StartTime><Timestamp dt:dt=""int"">0</Timestamp><DateUtc dt:dt=""string"">2018-10-10T18:01:02Z</DateUtc></StartTime><FrequencyChanges><FrequencyChange><Frequency dt:dt=""r8"">3215292</Frequency><Timestamp dt:dt=""r8"">3915201700379</Timestamp><Current dt:dt=""r8"">0</Current><DateUtc dt:dt=""string"">2018-10-10T18:01:02Z</DateUtc></FrequencyChange></FrequencyChanges></Clock>\n",KW_Experiment5A-11-1,59.945,1.0.0.105,1,-1807855114,Professional,2.0.10.353,2.0.10.353,10/10/2018,10/10/2018 18:01,14:01:02,2.0.10.248,3,2,1,3,,,,,,,,TrainingProc,BlockList,19,1,Distractor2.bmp,2,0,,0,1,240393,500,,0,0,red,500,2,500,1,vertical,red,Distractor2.bmp,lime,Target1.bmp,purple,Distractor2.bmp,yellow,Distractor1.bmp,blue,Distractor1.bmp,cyan,Distractor2.bmp,,,,TrialProc,,TrainingTrialList,1,1,-999999,0,240893,0,1,703,241596,Target1.bmp,lime,1,,,,2,3,67
KW_Experiment5A,11,1,"<?xml version=""1.0""?>\n<Clock xmlns:dt=""urn:schemas-microsoft-com:datatypes""><Description dt:dt=""string"">E-Prime Primary Realtime Clock</Description><StartTime><Timestamp dt:dt=""int"">0</Timestamp><DateUtc dt:dt=""string"">2018-10-10T18:01:02Z</DateUtc></StartTime><FrequencyChanges><FrequencyChange><Frequency dt:dt=""r8"">3215292</Frequency><Timestamp dt:dt=""r8"">3915201700379</Timestamp><Current dt:dt=""r8"">0</Current><DateUtc dt:dt=""string"">2018-10-10T18:01:02Z</DateUtc></FrequencyChange></FrequencyChanges></Clock>\n",KW_Experiment5A-11-1,59.945,1.0.0.105,1,-1807855114,Professional,2.0.10.353,2.0.10.353,10/10/2018,10/10/2018 18:01,14:01:02,2.0.10.248,3,2,1,3,,,,,,,,TrainingProc,BlockList,20,2,Distractor2.bmp,2,0,,0,1,242611,601,,0,0,red,600,3,600,1,horizontal,lime,Target2.bmp,red,Distractor2.bmp,blue,Distractor1.bmp,yellow,Distractor1.bmp,purple,Distractor2.bmp,cyan,Distractor1.bmp,,,,TrialProc,,TrainingTrialList,1,2,-999999,1,243212,0,2,688,243900,Target2.bmp,lime,2,,,,1,3,68
KW_Experiment5A,11,1,"<?xml version=""1.0""?>\n<Clock xmlns:dt=""urn:schemas-microsoft-com:datatypes""><Description dt:dt=""string"">E-Prime Primary Realtime Clock</Description><StartTime><Timestamp dt:dt=""int"">0</Timestamp><DateUtc dt:dt=""string"">2018-10-10T18:01:02Z</DateUtc></StartTime><FrequencyChanges><FrequencyChange><Frequency dt:dt=""r8"">3215292</Frequency><Timestamp dt:dt=""r8"">3915201700379</Timestamp><Current dt:dt=""r8"">0</Current><DateUtc dt:dt=""string"">2018-10-10T18:01:02Z</DateUtc></FrequencyChange></FrequencyChanges></Clock>\n",KW_Experiment5A-11-1,59.945,1.0.0.105,1,-1807855114,Professional,2.0.10.353,2.0.10.353,10/10/2018,10/10/2018 18:01,14:01:02,2.0.10.248,3,2,1,3,,,,,,,,TrainingProc,BlockList,21,2,Distractor1.bmp,1,0,,1,0,244913,501,,0,0,blue,500,2,500,3,horizontal,blue,Distractor1.bmp,lime,Target2.bmp,purple,Distractor1.bmp,yellow,Distractor1.bmp,red,Distractor1.bmp,cyan,Distractor2.bmp,,,,TrialProc,,TrainingTrialList,1,2,-999999,1,245414,0,2,606,246020,Target2.bmp,lime,2,,,,2,3,69
KW_Experiment5A,11,1,"<?xml version=""1.0""?>\n<Clock xmlns:dt=""urn:schemas-microsoft-com:datatypes""><Description dt:dt=""string"">E-Prime Primary Realtime Clock</Description><StartTime><Timestamp dt:dt=""int"">0</Timestamp><DateUtc dt:dt=""string"">2018-10-10T18:01:02Z</DateUtc></StartTime><FrequencyChanges><FrequencyChange><Frequency dt:dt=""r8"">3215292</Frequency><Timestamp dt:dt=""r8"">3915201700379</Timestamp><Current dt:dt=""r8"">0</Current><DateUtc dt:dt=""string"">2018-10-10T18:01:02Z</DateUtc></FrequencyChange></FrequencyChanges></Clock>\n",KW_Experiment5A-11-1,59.945,1.0.0.105,1,-1807855114,Professional,2.0.10.353,2.0.10.353,10/10/2018,10/10/2018 18:01,14:01:02,2.0.10.248,3,2,1,3,,,,,,,,TrainingProc,BlockList,22,1,Distractor2.bmp,2,0,,0,1,247032,601,,0,0,cyan,600,3,600,4,vertical,cyan,Distractor1.bmp,blue,Distractor1.bmp,red,Distractor2.bmp,yellow,Distractor2.bmp,lime,Target1.bmp,purple,Distractor2.bmp,,,,TrialProc,,TrainingTrialList,1,1,-999999,1,247633,0,1,451,248084,Target1.bmp,lime,1,,,,5,3,70
KW_Experiment5A,11,1,"<?xml version=""1.0""?>\n<Clock xmlns:dt=""urn:schemas-microsoft-com:datatypes""><Description dt:dt=""string"">E-Prime Primary Realtime Clock</Description><StartTime><Timestamp dt:dt=""int"">0</Timestamp><DateUtc dt:dt=""string"">2018-10-10T18:01:02Z</DateUtc></StartTime><FrequencyChanges><FrequencyChange><Frequency dt:dt=""r8"">3215292</Frequency><Timestamp dt:dt=""r8"">3915201700379</Timestamp><Current dt:dt=""r8"">0</Current><DateUtc dt:dt=""string"">2018-10-10T18:01:02Z</DateUtc></FrequencyChange></FrequencyChanges></Clock>\n",KW_Experiment5A-11-1,59.945,1.0.0.105,1,-1807855114,Professional,2.0.10.353,2.0.10.353,10/10/2018,10/10/2018 18:01,14:01:02,2.0.10.248,3,2,1,3,,,,,,,,TrainingProc,BlockList,23,2,Distractor1.bmp,1,0,,0,1,249101,500,,0,0,blue,500,2,500,,horizontal,blue,Distractor1.bmp,purple,Distractor2.bmp,red,Target2.bmp,lime,Distractor1.bmp,yellow,Distractor1.bmp,cyan,Distractor2.bmp,,,,TrialProc,3,TrainingTrialList,1,2,-999999,0,249601,0,2,739,250340,Target2.bmp,red,2,,,,9,3,71
KW_Experiment5A,11,1,"<?xml version=""1.0""?>\n<Clock xmlns:dt=""urn:schemas-microsoft-com:datatypes""><Description dt:dt=""string"">E-Prime Primary Realtime Clock</Description><StartTime><Timestamp dt:dt=""int"">0</Timestamp><DateUtc dt:dt=""string"">2018-10-10T18:01:02Z</DateUtc></StartTime><FrequencyChanges><FrequencyChange><Frequency dt:dt=""r8"">3215292</Frequency><Timestamp dt:dt=""r8"">3915201700379</Timestamp><Current dt:dt=""r8"">0</Current><DateUtc dt:dt=""string"">2018-10-10T18:01:02Z</DateUtc></FrequencyChange></FrequencyChanges></Clock>\n",KW_Experiment5A-11-1,59.945,1.0.0.105,1,-1807855114,Professional,2.0.10.353,2.0.10.353,10/10/2018,10/10/2018 18:01,14:01:02,2.0.10.248,3,2,1,3,,,,,,,,TrainingProc,BlockList,24,1,Distractor2.bmp,2,0,,0,1,251353,500,,0,0,yellow,500,2,500,2,vertical,lime,Target1.bmp,yellow,Distractor2.bmp,blue,Distractor1.bmp,purple,Distractor1.bmp,red,Distractor1.bmp,cyan,Distractor2.bmp,,,,TrialProc,,TrainingTrialList,1,1,-999999,0,251853,0,1,495,252348,Target1.bmp,lime,1,,,,1,3,72
KW_Experiment5A,11,1,"<?xml version=""1.0""?>\n<Clock xmlns:dt=""urn:schemas-microsoft-com:datatypes""><Description dt:dt=""string"">E-Prime Primary Realtime Clock</Description><StartTime><Timestamp dt:dt=""int"">0</Timestamp><DateUtc dt:dt=""string"">2018-10-10T18:01:02Z</DateUtc></StartTime><FrequencyChanges><FrequencyChange><Frequency dt:dt=""r8"">3215292</Frequency><Timestamp dt:dt=""r8"">3915201700379</Timestamp><Current dt:dt=""r8"">0</Current><DateUtc dt:dt=""string"">2018-10-10T18:01:02Z</DateUtc></FrequencyChange></FrequencyChanges></Clock>\n",KW_Experiment5A-11-1,59.945,1.0.0.105,1,-1807855114,Professional,2.0.10.353,2.0.10.353,10/10/2018,10/10/2018 18:01,14:01:02,2.0.10.248,3,2,1,3,,,,,,,,TrainingProc,BlockList,25,2,Distractor2.bmp,2,0,,0,1,253371,501,,0,0,cyan,500,2,500,4,horizontal,lime,Target2.bmp,cyan,Distractor2.bmp,yellow,Distractor1.bmp,purple,Distractor1.bmp,blue,Distractor2.bmp,red,Distractor2.bmp,,,,TrialProc,,TrainingTrialList,1,2,-999999,1,253872,0,2,764,254636,Target2.bmp,lime,2,,,,1,4,73
KW_Experiment5A,11,1,"<?xml version=""1.0""?>\n<Clock xmlns:dt=""urn:schemas-microsoft-com:datatypes""><Description dt:dt=""string"">E-Prime Primary Realtime Clock</Description><StartTime><Timestamp dt:dt=""int"">0</Timestamp><DateUtc dt:dt=""string"">2018-10-10T18:01:02Z</DateUtc></StartTime><FrequencyChanges><FrequencyChange><Frequency dt:dt=""r8"">3215292</Frequency><Timestamp dt:dt=""r8"">3915201700379</Timestamp><Current dt:dt=""r8"">0</Current><DateUtc dt:dt=""string"">2018-10-10T18:01:02Z</DateUtc></FrequencyChange></FrequencyChanges></Clock>\n",KW_Experiment5A-11-1,59.945,1.0.0.105,1,-1807855114,Professional,2.0.10.353,2.0.10.353,10/10/2018,10/10/2018 18:01,14:01:02,2.0.10.248,3,2,1,3,,,,,,,,TrainingProc,BlockList,26,2,Distractor1.bmp,1,0,,0,1,255657,600,,0,0,purple,600,3,600,5,horizontal,purple,Distractor1.bmp,lime,Target2.bmp,cyan,Distractor1.bmp,yellow,Distractor1.bmp,red,Distractor2.bmp,blue,Distractor1.bmp,,,,TrialProc,,TrainingTrialList,1,2,-999999,0,256257,0,2,707,256964,Target2.bmp,lime,2,,,,2,4,74
KW_Experiment5A,11,1,"<?xml version=""1.0""?>\n<Clock xmlns:dt=""urn:schemas-microsoft-com:datatypes""><Description dt:dt=""string"">E-Prime Primary Realtime Clock</Description><StartTime><Timestamp dt:dt=""int"">0</Timestamp><DateUtc dt:dt=""string"">2018-10-10T18:01:02Z</DateUtc></StartTime><FrequencyChanges><FrequencyChange><Frequency dt:dt=""r8"">3215292</Frequency><Timestamp dt:dt=""r8"">3915201700379</Timestamp><Current dt:dt=""r8"">0</Current><DateUtc dt:dt=""string"">2018-10-10T18:01:02Z</DateUtc></FrequencyChange></FrequencyChanges></Clock>\n",KW_Experiment5A-11-1,59.945,1.0.0.105,1,-1807855114,Professional,2.0.10.353,2.0.10.353,10/10/2018,10/10/2018 18:01,14:01:02,2.0.10.248,3,2,1,3,,,,,,,,TrainingProc,BlockList,27,1,Distractor2.bmp,2,0,,0,1,257975,401,,0,0,red,400,1,400,1,vertical,red,Distractor1.bmp,cyan,Distractor1.bmp,lime,Target1.bmp,blue,Distractor2.bmp,purple,Distractor1.bmp,yellow,Distractor1.bmp,,,,TrialProc,,TrainingTrialList,1,1,-999999,1,258376,0,1,596,258972,Target1.bmp,lime,1,,,,3,4,75
KW_Experiment5A,11,1,"<?xml version=""1.0""?>\n<Clock xmlns:dt=""urn:schemas-microsoft-com:datatypes""><Description dt:dt=""string"">E-Prime Primary Realtime Clock</Description><StartTime><Timestamp dt:dt=""int"">0</Timestamp><DateUtc dt:dt=""string"">2018-10-10T18:01:02Z</DateUtc></StartTime><FrequencyChanges><FrequencyChange><Frequency dt:dt=""r8"">3215292</Frequency><Timestamp dt:dt=""r8"">3915201700379</Timestamp><Current dt:dt=""r8"">0</Current><DateUtc dt:dt=""string"">2018-10-10T18:01:02Z</DateUtc></FrequencyChange></FrequencyChanges></Clock>\n",KW_Experiment5A-11-1,59.945,1.0.0.105,1,-1807855114,Professional,2.0.10.353,2.0.10.353,10/10/2018,10/10/2018 18:01,14:01:02,2.0.10.248,3,2,1,3,,,,,,,,TrainingProc,BlockList,28,1,Distractor1.bmp,1,0,,0,1,259994,500,,0,0,purple,500,2,500,5,vertical,purple,Distractor1.bmp,blue,Distractor2.bmp,red,Distractor1.bmp,lime,Target1.bmp,cyan,Distractor1.bmp,yellow,Distractor1.bmp,,,,TrialProc,,TrainingTrialList,1,1,-999999,0,260494,0,1,822,261316,Target1.bmp,lime,1,,,,4,4,76
KW_Experiment5A,11,1,"<?xml version=""1.0""?>\n<Clock xmlns:dt=""urn:schemas-microsoft-com:datatypes""><Description dt:dt=""string"">E-Prime Primary Realtime Clock</Description><StartTime><Timestamp dt:dt=""int"">0</Timestamp><DateUtc dt:dt=""string"">2018-10-10T18:01:02Z</DateUtc></StartTime><FrequencyChanges><FrequencyChange><Frequency dt:dt=""r8"">3215292</Frequency><Timestamp dt:dt=""r8"">3915201700379</Timestamp><Current dt:dt=""r8"">0</Current><DateUtc dt:dt=""string"">2018-10-10T18:01:02Z</DateUtc></FrequencyChange></FrequencyChanges></Clock>\n",KW_Experiment5A-11-1,59.945,1.0.0.105,1,-1807855114,Professional,2.0.10.353,2.0.10.353,10/10/2018,10/10/2018 18:01,14:01:02,2.0.10.248,3,2,1,3,,,,,,,,TrainingProc,BlockList,29,1,Distractor2.bmp,2,0,,0,1,262329,401,,0,0,yellow,400,1,400,2,vertical,yellow,Distractor2.bmp,blue,Distractor2.bmp,lime,Target1.bmp,purple,Distractor2.bmp,red,Distractor1.bmp,cyan,Distractor2.bmp,,,,TrialProc,,TrainingTrialList,1,1,-999999,1,262730,0,1,482,263212,Target1.bmp,lime,1,,,,3,4,77
KW_Experiment5A,11,1,"<?xml version=""1.0""?>\n<Clock xmlns:dt=""urn:schemas-microsoft-com:datatypes""><Description dt:dt=""string"">E-Prime Primary Realtime Clock</Description><StartTime><Timestamp dt:dt=""int"">0</Timestamp><DateUtc dt:dt=""string"">2018-10-10T18:01:02Z</DateUtc></StartTime><FrequencyChanges><FrequencyChange><Frequency dt:dt=""r8"">3215292</Frequency><Timestamp dt:dt=""r8"">3915201700379</Timestamp><Current dt:dt=""r8"">0</Current><DateUtc dt:dt=""string"">2018-10-10T18:01:02Z</DateUtc></FrequencyChange></FrequencyChanges></Clock>\n",KW_Experiment5A-11-1,59.945,1.0.0.105,1,-1807855114,Professional,2.0.10.353,2.0.10.353,10/10/2018,10/10/2018 18:01,14:01:02,2.0.10.248,3,2,1,3,,,,,,,,TrainingProc,BlockList,30,1,Distractor1.bmp,1,0,,0,1,264231,601,,0,0,yellow,600,3,600,,vertical,yellow,Distractor1.bmp,purple,Distractor1.bmp,blue,Distractor1.bmp,lime,Distractor2.bmp,cyan,Distractor2.bmp,red,Target1.bmp,,,,TrialProc,2,TrainingTrialList,1,1,-999999,1,264832,0,1,588,265420,Target1.bmp,red,1,,,,12,4,78
KW_Experiment5A,11,1,"<?xml version=""1.0""?>\n<Clock xmlns:dt=""urn:schemas-microsoft-com:datatypes""><Description dt:dt=""string"">E-Prime Primary Realtime Clock</Description><StartTime><Timestamp dt:dt=""int"">0</Timestamp><DateUtc dt:dt=""string"">2018-10-10T18:01:02Z</DateUtc></StartTime><FrequencyChanges><FrequencyChange><Frequency dt:dt=""r8"">3215292</Frequency><Timestamp dt:dt=""r8"">3915201700379</Timestamp><Current dt:dt=""r8"">0</Current><DateUtc dt:dt=""string"">2018-10-10T18:01:02Z</DateUtc></FrequencyChange></FrequencyChanges></Clock>\n",KW_Experiment5A-11-1,59.945,1.0.0.105,1,-1807855114,Professional,2.0.10.353,2.0.10.353,10/10/2018,10/10/2018 18:01,14:01:02,2.0.10.248,3,2,1,3,,,,,,,,TrainingProc,BlockList,31,1,Distractor2.bmp,2,0,,0,1,266433,400,,0,0,cyan,400,1,400,4,vertical,cyan,Distractor2.bmp,purple,Distractor2.bmp,yellow,Distractor2.bmp,red,Distractor2.bmp,lime,Target1.bmp,blue,Distractor2.bmp,,,,TrialProc,,TrainingTrialList,1,1,-999999,0,266833,0,1,467,267300,Target1.bmp,lime,1,,,,5,4,79
KW_Experiment5A,11,1,"<?xml version=""1.0""?>\n<Clock xmlns:dt=""urn:schemas-microsoft-com:datatypes""><Description dt:dt=""string"">E-Prime Primary Realtime Clock</Description><StartTime><Timestamp dt:dt=""int"">0</Timestamp><DateUtc dt:dt=""string"">2018-10-10T18:01:02Z</DateUtc></StartTime><FrequencyChanges><FrequencyChange><Frequency dt:dt=""r8"">3215292</Frequency><Timestamp dt:dt=""r8"">3915201700379</Timestamp><Current dt:dt=""r8"">0</Current><DateUtc dt:dt=""string"">2018-10-10T18:01:02Z</DateUtc></FrequencyChange></FrequencyChanges></Clock>\n",KW_Experiment5A-11-1,59.945,1.0.0.105,1,-1807855114,Professional,2.0.10.353,2.0.10.353,10/10/2018,10/10/2018 18:01,14:01:02,2.0.10.248,3,2,1,3,,,,,,,,TrainingProc,BlockList,32,1,Distractor2.bmp,2,0,,0,1,268318,400,,0,0,red,400,1,400,1,vertical,red,Distractor2.bmp,yellow,Distractor1.bmp,blue,Distractor2.bmp,purple,Distractor2.bmp,cyan,Distractor1.bmp,lime,Target1.bmp,,,,TrialProc,,TrainingTrialList,1,1,-999999,0,268718,0,1,534,269252,Target1.bmp,lime,1,,,,6,4,80
KW_Experiment5A,11,1,"<?xml version=""1.0""?>\n<Clock xmlns:dt=""urn:schemas-microsoft-com:datatypes""><Description dt:dt=""string"">E-Prime Primary Realtime Clock</Description><StartTime><Timestamp dt:dt=""int"">0</Timestamp><DateUtc dt:dt=""string"">2018-10-10T18:01:02Z</DateUtc></StartTime><FrequencyChanges><FrequencyChange><Frequency dt:dt=""r8"">3215292</Frequency><Timestamp dt:dt=""r8"">3915201700379</Timestamp><Current dt:dt=""r8"">0</Current><DateUtc dt:dt=""string"">2018-10-10T18:01:02Z</DateUtc></FrequencyChange></FrequencyChanges></Clock>\n",KW_Experiment5A-11-1,59.945,1.0.0.105,1,-1807855114,Professional,2.0.10.353,2.0.10.353,10/10/2018,10/10/2018 18:01,14:01:02,2.0.10.248,3,2,1,3,,,,,,,,TrainingProc,BlockList,33,2,Distractor2.bmp,2,0,,0,1,270270,400,,0,0,purple,400,1,400,5,horizontal,purple,Distractor1.bmp,blue,Distractor2.bmp,red,Distractor1.bmp,cyan,Distractor1.bmp,lime,Target2.bmp,yellow,Distractor2.bmp,,,,TrialProc,,TrainingTrialList,1,2,-999999,0,270670,0,2,782,271452,Target2.bmp,lime,2,,,,5,4,81
KW_Experiment5A,11,1,"<?xml version=""1.0""?>\n<Clock xmlns:dt=""urn:schemas-microsoft-com:datatypes""><Description dt:dt=""string"">E-Prime Primary Realtime Clock</Description><StartTime><Timestamp dt:dt=""int"">0</Timestamp><DateUtc dt:dt=""string"">2018-10-10T18:01:02Z</DateUtc></StartTime><FrequencyChanges><FrequencyChange><Frequency dt:dt=""r8"">3215292</Frequency><Timestamp dt:dt=""r8"">3915201700379</Timestamp><Current dt:dt=""r8"">0</Current><DateUtc dt:dt=""string"">2018-10-10T18:01:02Z</DateUtc></FrequencyChange></FrequencyChanges></Clock>\n",KW_Experiment5A-11-1,59.945,1.0.0.105,1,-1807855114,Professional,2.0.10.353,2.0.10.353,10/10/2018,10/10/2018 18:01,14:01:02,2.0.10.248,3,2,1,3,,,,,,,,TrainingProc,BlockList,34,1,Distractor1.bmp,1,0,,0,1,272472,600,,0,0,lime,600,3,600,,vertical,lime,Distractor2.bmp,yellow,Distractor2.bmp,purple,Distractor2.bmp,blue,Distractor1.bmp,red,Target1.bmp,cyan,Distractor1.bmp,,,,TrialProc,6,TrainingTrialList,1,1,-999999,0,273072,0,1,516,273588,Target1.bmp,red,1,,,,11,4,82
KW_Experiment5A,11,1,"<?xml version=""1.0""?>\n<Clock xmlns:dt=""urn:schemas-microsoft-com:datatypes""><Description dt:dt=""string"">E-Prime Primary Realtime Clock</Description><StartTime><Timestamp dt:dt=""int"">0</Timestamp><DateUtc dt:dt=""string"">2018-10-10T18:01:02Z</DateUtc></StartTime><FrequencyChanges><FrequencyChange><Frequency dt:dt=""r8"">3215292</Frequency><Timestamp dt:dt=""r8"">3915201700379</Timestamp><Current dt:dt=""r8"">0</Current><DateUtc dt:dt=""string"">2018-10-10T18:01:02Z</DateUtc></FrequencyChange></FrequencyChanges></Clock>\n",KW_Experiment5A-11-1,59.945,1.0.0.105,1,-1807855114,Professional,2.0.10.353,2.0.10.353,10/10/2018,10/10/2018 18:01,14:01:02,2.0.10.248,3,2,1,3,,,,,,,,TrainingProc,BlockList,35,2,Distractor1.bmp,1,0,,0,1,274607,601,,0,0,yellow,600,3,600,,horizontal,yellow,Distractor1.bmp,purple,Distractor1.bmp,cyan,Distractor1.bmp,red,Target2.bmp,lime,Distractor1.bmp,blue,Distractor2.bmp,,,,TrialProc,2,TrainingTrialList,1,2,-999999,1,275208,0,2,740,275948,Target2.bmp,red,2,,,,10,4,83
KW_Experiment5A,11,1,"<?xml version=""1.0""?>\n<Clock xmlns:dt=""urn:schemas-microsoft-com:datatypes""><Description dt:dt=""string"">E-Prime Primary Realtime Clock</Description><StartTime><Timestamp dt:dt=""int"">0</Timestamp><DateUtc dt:dt=""string"">2018-10-10T18:01:02Z</DateUtc></StartTime><FrequencyChanges><FrequencyChange><Frequency dt:dt=""r8"">3215292</Frequency><Timestamp dt:dt=""r8"">3915201700379</Timestamp><Current dt:dt=""r8"">0</Current><DateUtc dt:dt=""string"">2018-10-10T18:01:02Z</DateUtc></FrequencyChange></FrequencyChanges></Clock>\n",KW_Experiment5A-11-1,59.945,1.0.0.105,1,-1807855114,Professional,2.0.10.353,2.0.10.353,10/10/2018,10/10/2018 18:01,14:01:02,2.0.10.248,3,2,1,3,,,,,,,,TrainingProc,BlockList,36,1,Distractor2.bmp,2,0,,0,1,276959,401,,0,0,red,400,1,400,1,vertical,red,Distractor2.bmp,lime,Target1.bmp,blue,Distractor2.bmp,yellow,Distractor2.bmp,cyan,Distractor1.bmp,purple,Distractor2.bmp,,,,TrialProc,,TrainingTrialList,1,1,-999999,1,277360,0,1,732,278092,Target1.bmp,lime,1,,,,2,4,84
KW_Experiment5A,11,1,"<?xml version=""1.0""?>\n<Clock xmlns:dt=""urn:schemas-microsoft-com:datatypes""><Description dt:dt=""string"">E-Prime Primary Realtime Clock</Description><StartTime><Timestamp dt:dt=""int"">0</Timestamp><DateUtc dt:dt=""string"">2018-10-10T18:01:02Z</DateUtc></StartTime><FrequencyChanges><FrequencyChange><Frequency dt:dt=""r8"">3215292</Frequency><Timestamp dt:dt=""r8"">3915201700379</Timestamp><Current dt:dt=""r8"">0</Current><DateUtc dt:dt=""string"">2018-10-10T18:01:02Z</DateUtc></FrequencyChange></FrequencyChanges></Clock>\n",KW_Experiment5A-11-1,59.945,1.0.0.105,1,-1807855114,Professional,2.0.10.353,2.0.10.353,10/10/2018,10/10/2018 18:01,14:01:02,2.0.10.248,3,2,1,3,,,,,,,,TrainingProc,BlockList,37,2,Distractor1.bmp,1,0,,0,1,279111,501,,0,0,yellow,500,2,500,2,horizontal,yellow,Distractor2.bmp,purple,Distractor2.bmp,lime,Target2.bmp,red,Distractor1.bmp,blue,Distractor1.bmp,cyan,Distractor1.bmp,,,,TrialProc,,TrainingTrialList,1,2,-999999,1,279612,0,2,639,280251,Target2.bmp,lime,2,,,,3,4,85
KW_Experiment5A,11,1,"<?xml version=""1.0""?>\n<Clock xmlns:dt=""urn:schemas-microsoft-com:datatypes""><Description dt:dt=""string"">E-Prime Primary Realtime Clock</Description><StartTime><Timestamp dt:dt=""int"">0</Timestamp><DateUtc dt:dt=""string"">2018-10-10T18:01:02Z</DateUtc></StartTime><FrequencyChanges><FrequencyChange><Frequency dt:dt=""r8"">3215292</Frequency><Timestamp dt:dt=""r8"">3915201700379</Timestamp><Current dt:dt=""r8"">0</Current><DateUtc dt:dt=""string"">2018-10-10T18:01:02Z</DateUtc></FrequencyChange></FrequencyChanges></Clock>\n",KW_Experiment5A-11-1,59.945,1.0.0.105,1,-1807855114,Professional,2.0.10.353,2.0.10.353,10/10/2018,10/10/2018 18:01,14:01:02,2.0.10.248,3,2,1,3,,,,,,,,TrainingProc,BlockList,38,2,Distractor2.bmp,2,0,,0,1,281263,601,,0,0,yellow,600,3,600,2,horizontal,yellow,Distractor2.bmp,purple,Distractor1.bmp,cyan,Distractor1.bmp,lime,Target2.bmp,red,Distractor2.bmp,blue,Distractor2.bmp,,,,TrialProc,,TrainingTrialList,1,2,-999999,1,281864,0,2,771,282635,Target2.bmp,lime,2,,,,4,4,86
KW_Experiment5A,11,1,"<?xml version=""1.0""?>\n<Clock xmlns:dt=""urn:schemas-microsoft-com:datatypes""><Description dt:dt=""string"">E-Prime Primary Realtime Clock</Description><StartTime><Timestamp dt:dt=""int"">0</Timestamp><DateUtc dt:dt=""string"">2018-10-10T18:01:02Z</DateUtc></StartTime><FrequencyChanges><FrequencyChange><Frequency dt:dt=""r8"">3215292</Frequency><Timestamp dt:dt=""r8"">3915201700379</Timestamp><Current dt:dt=""r8"">0</Current><DateUtc dt:dt=""string"">2018-10-10T18:01:02Z</DateUtc></FrequencyChange></FrequencyChanges></Clock>\n",KW_Experiment5A-11-1,59.945,1.0.0.105,1,-1807855114,Professional,2.0.10.353,2.0.10.353,10/10/2018,10/10/2018 18:01,14:01:02,2.0.10.248,3,2,1,3,,,,,,,,TrainingProc,BlockList,39,1,Distractor2.bmp,2,0,,0,1,283649,500,,0,0,blue,500,2,500,,vertical,red,Target1.bmp,yellow,Distractor2.bmp,purple,Distractor1.bmp,cyan,Distractor1.bmp,lime,Distractor1.bmp,blue,Distractor1.bmp,,,,TrialProc,3,TrainingTrialList,1,1,-999999,0,284149,0,1,694,284843,Target1.bmp,red,1,,,,7,4,87
KW_Experiment5A,11,1,"<?xml version=""1.0""?>\n<Clock xmlns:dt=""urn:schemas-microsoft-com:datatypes""><Description dt:dt=""string"">E-Prime Primary Realtime Clock</Description><StartTime><Timestamp dt:dt=""int"">0</Timestamp><DateUtc dt:dt=""string"">2018-10-10T18:01:02Z</DateUtc></StartTime><FrequencyChanges><FrequencyChange><Frequency dt:dt=""r8"">3215292</Frequency><Timestamp dt:dt=""r8"">3915201700379</Timestamp><Current dt:dt=""r8"">0</Current><DateUtc dt:dt=""string"">2018-10-10T18:01:02Z</DateUtc></FrequencyChange></FrequencyChanges></Clock>\n",KW_Experiment5A-11-1,59.945,1.0.0.105,1,-1807855114,Professional,2.0.10.353,2.0.10.353,10/10/2018,10/10/2018 18:01,14:01:02,2.0.10.248,3,2,1,3,,,,,,,,TrainingProc,BlockList,40,2,Distractor2.bmp,2,0,,0,1,285867,601,,0,0,blue,600,3,600,3,horizontal,lime,Target2.bmp,blue,Distractor2.bmp,purple,Distractor1.bmp,yellow,Distractor1.bmp,cyan,Distractor1.bmp,red,Distractor1.bmp,,,,TrialProc,,TrainingTrialList,1,2,-999999,1,286468,0,2,711,287179,Target2.bmp,lime,2,,,,1,4,88
KW_Experiment5A,11,1,"<?xml version=""1.0""?>\n<Clock xmlns:dt=""urn:schemas-microsoft-com:datatypes""><Description dt:dt=""string"">E-Prime Primary Realtime Clock</Description><StartTime><Timestamp dt:dt=""int"">0</Timestamp><DateUtc dt:dt=""string"">2018-10-10T18:01:02Z</DateUtc></StartTime><FrequencyChanges><FrequencyChange><Frequency dt:dt=""r8"">3215292</Frequency><Timestamp dt:dt=""r8"">3915201700379</Timestamp><Current dt:dt=""r8"">0</Current><DateUtc dt:dt=""string"">2018-10-10T18:01:02Z</DateUtc></FrequencyChange></FrequencyChanges></Clock>\n",KW_Experiment5A-11-1,59.945,1.0.0.105,1,-1807855114,Professional,2.0.10.353,2.0.10.353,10/10/2018,10/10/2018 18:01,14:01:02,2.0.10.248,3,2,1,3,,,,,,,,TrainingProc,BlockList,41,1,Distractor2.bmp,2,0,,0,1,288203,600,,0,0,blue,600,3,600,,vertical,blue,Distractor1.bmp,cyan,Distractor2.bmp,red,Target1.bmp,purple,Distractor2.bmp,yellow,Distractor1.bmp,lime,Distractor2.bmp,,,,TrialProc,3,TrainingTrialList,1,1,-999999,0,288803,0,1,616,289419,Target1.bmp,red,1,,,,9,4,89
KW_Experiment5A,11,1,"<?xml version=""1.0""?>\n<Clock xmlns:dt=""urn:schemas-microsoft-com:datatypes""><Description dt:dt=""string"">E-Prime Primary Realtime Clock</Description><StartTime><Timestamp dt:dt=""int"">0</Timestamp><DateUtc dt:dt=""string"">2018-10-10T18:01:02Z</DateUtc></StartTime><FrequencyChanges><FrequencyChange><Frequency dt:dt=""r8"">3215292</Frequency><Timestamp dt:dt=""r8"">3915201700379</Timestamp><Current dt:dt=""r8"">0</Current><DateUtc dt:dt=""string"">2018-10-10T18:01:02Z</DateUtc></FrequencyChange></FrequencyChanges></Clock>\n",KW_Experiment5A-11-1,59.945,1.0.0.105,1,-1807855114,Professional,2.0.10.353,2.0.10.353,10/10/2018,10/10/2018 18:01,14:01:02,2.0.10.248,3,2,1,3,,,,,,,,TrainingProc,BlockList,42,1,Distractor1.bmp,1,0,,0,1,290438,401,,0,0,purple,400,1,400,5,vertical,lime,Target1.bmp,purple,Distractor1.bmp,cyan,Distractor2.bmp,red,Distractor1.bmp,yellow,Distractor2.bmp,blue,Distractor1.bmp,,,,TrialProc,,TrainingTrialList,1,1,-999999,1,290839,0,1,564,291403,Target1.bmp,lime,1,,,,1,4,90
