ExperimentName,Subject,Session,Clock.Information,DataFile.Basename,Display.RefreshRate,ExperimentVersion,Group,RandomSeed,RuntimeCapabilities,RuntimeVersion,RuntimeVersionExpected,SessionDate,SessionStartDateTimeUtc,SessionTime,StudioVersion,Block,BlockList,BlockList.Cycle,BlockList.Sample,PostTestQ1.RESP,PostTestQ1CJ.RESP,PostTestQ2.RESP,PostTestQ2CJ.RESP,PostTestQ3.RESP,PostTestQ3CJ.RESP,PostTestSlide.RESP,Procedure[Block],Running[Block],Trial,CorrectResponse,Distractor,DistractorList,Fixation.ACC,Fixation.CRESP,Fixation.DurationError,Fixation.OnsetDelay,Fixation.OnsetTime,Fixation.OnsetToOnsetTime,Fixation.RESP,Fixation.RT,Fixation.RTTime,ItemColor,Jitter,JitterList,JitterTime,Lime0List,Orientation,Pos1Color,Pos1Item,Pos2Color,Pos2Item,Pos3Color,Pos3Item,Pos4Color,Pos4Item,Pos5Color,Pos5Item,Pos6Color,Pos6Item,PracticeTrialList,PracticeTrialList.Cycle,PracticeTrialList.Sample,Procedure[Trial],Red0List,Running[Trial],Stimulus.ACC,Stimulus.CRESP,Stimulus.DurationError,Stimulus.OnsetDelay,Stimulus.OnsetTime,Stimulus.OnsetToOnsetTime,Stimulus.RESP,Stimulus.RT,Stimulus.RTTime,Target,TargetColor,TargetList,TestTrialList,TestTrialList.Cycle,TestTrialList.Sample,TrainingTrialList,TrainingTrialList.Cycle,TrainingTrialList.Sample
KW_Experiment5A,16,1,"<?xml version=""1.0""?>\n<Clock xmlns:dt=""urn:schemas-microsoft-com:datatypes""><Description dt:dt=""string"">E-Prime Primary Realtime Clock</Description><StartTime><Timestamp dt:dt=""int"">0</Timestamp><DateUtc dt:dt=""string"">2018-10-11T20:30:40Z</DateUtc></StartTime><FrequencyChanges><FrequencyChange><Frequency dt:dt=""r8"">3215244</Frequency><Timestamp dt:dt=""r8"">5505293858305</Timestamp><Current dt:dt=""r8"">0</Current><DateUtc dt:dt=""string"">2018-10-11T20:30:40Z</DateUtc></FrequencyChange></FrequencyChanges></Clock>\n",KW_Experiment5A-16-1,59.944,1.0.0.105,2,-853564987,Professional,2.0.10.353,2.0.10.353,10/11/2018,10/11/2018 20:30,16:30:40,2.0.10.248,1,1,1,1,,,,,,,,PracticeProc,BlockList,1,1,Distractor2.bmp,2,0,,0,51,68367,401,,0,0,cyan,400,1,400,4,vertical,blue,Distractor1.bmp,cyan,Distractor1.bmp,lime,Target1.bmp,yellow,Distractor2.bmp,purple,Distractor2.bmp,red,Distractor1.bmp,3,1,1,TrialProc,,PracticeTrialList,1,1,-999999,1,68768,0,1,1324,70092,Target1.bmp,lime,1,,,,,,
KW_Experiment5A,16,1,"<?xml version=""1.0""?>\n<Clock xmlns:dt=""urn:schemas-microsoft-com:datatypes""><Description dt:dt=""string"">E-Prime Primary Realtime Clock</Description><StartTime><Timestamp dt:dt=""int"">0</Timestamp><DateUtc dt:dt=""string"">2018-10-11T20:30:40Z</DateUtc></StartTime><FrequencyChanges><FrequencyChange><Frequency dt:dt=""r8"">3215244</Frequency><Timestamp dt:dt=""r8"">5505293858305</Timestamp><Current dt:dt=""r8"">0</Current><DateUtc dt:dt=""string"">2018-10-11T20:30:40Z</DateUtc></FrequencyChange></FrequencyChanges></Clock>\n",KW_Experiment5A-16-1,59.944,1.0.0.105,2,-853564987,Professional,2.0.10.353,2.0.10.353,10/11/2018,10/11/2018 20:30,16:30:40,2.0.10.248,1,1,1,1,,,,,,,,PracticeProc,BlockList,2,2,Distractor2.bmp,2,0,,0,1,71120,400,,0,0,yellow,400,1,400,2,horizontal,lime,Target2.bmp,purple,Distractor2.bmp,blue,Distractor2.bmp,red,Distractor2.bmp,cyan,Distractor2.bmp,yellow,Distractor2.bmp,1,1,2,TrialProc,,PracticeTrialList,1,2,-999999,0,71520,0,2,764,72284,Target2.bmp,lime,2,,,,,,
KW_Experiment5A,16,1,"<?xml version=""1.0""?>\n<Clock xmlns:dt=""urn:schemas-microsoft-com:datatypes""><Description dt:dt=""string"">E-Prime Primary Realtime Clock</Description><StartTime><Timestamp dt:dt=""int"">0</Timestamp><DateUtc dt:dt=""string"">2018-10-11T20:30:40Z</DateUtc></StartTime><FrequencyChanges><FrequencyChange><Frequency dt:dt=""r8"">3215244</Frequency><Timestamp dt:dt=""r8"">5505293858305</Timestamp><Current dt:dt=""r8"">0</Current><DateUtc dt:dt=""string"">2018-10-11T20:30:40Z</DateUtc></FrequencyChange></FrequencyChanges></Clock>\n",KW_Experiment5A-16-1,59.944,1.0.0.105,2,-853564987,Professional,2.0.10.353,2.0.10.353,10/11/2018,10/11/2018 20:30,16:30:40,2.0.10.248,1,1,1,1,,,,,,,,PracticeProc,BlockList,3,2,Distractor1.bmp,1,0,,0,1,73305,601,,0,0,lime,600,3,600,,horizontal,purple,Distractor2.bmp,cyan,Distractor1.bmp,lime,Distractor1.bmp,red,Target2.bmp,blue,Distractor1.bmp,yellow,Distractor1.bmp,4,1,3,TrialProc,6,PracticeTrialList,1,2,-999999,1,73906,0,2,818,74724,Target2.bmp,red,2,,,,,,
KW_Experiment5A,16,1,"<?xml version=""1.0""?>\n<Clock xmlns:dt=""urn:schemas-microsoft-com:datatypes""><Description dt:dt=""string"">E-Prime Primary Realtime Clock</Description><StartTime><Timestamp dt:dt=""int"">0</Timestamp><DateUtc dt:dt=""string"">2018-10-11T20:30:40Z</DateUtc></StartTime><FrequencyChanges><FrequencyChange><Frequency dt:dt=""r8"">3215244</Frequency><Timestamp dt:dt=""r8"">5505293858305</Timestamp><Current dt:dt=""r8"">0</Current><DateUtc dt:dt=""string"">2018-10-11T20:30:40Z</DateUtc></FrequencyChange></FrequencyChanges></Clock>\n",KW_Experiment5A-16-1,59.944,1.0.0.105,2,-853564987,Professional,2.0.10.353,2.0.10.353,10/11/2018,10/11/2018 20:30,16:30:40,2.0.10.248,1,1,1,1,,,,,,,,PracticeProc,BlockList,4,2,Distractor2.bmp,2,0,,0,1,75741,400,,0,0,blue,400,1,400,3,horizontal,purple,Distractor2.bmp,cyan,Distractor2.bmp,red,Distractor1.bmp,blue,Distractor2.bmp,lime,Target2.bmp,yellow,Distractor2.bmp,5,1,4,TrialProc,,PracticeTrialList,1,2,-999999,0,76141,0,2,903,77044,Target2.bmp,lime,2,,,,,,
KW_Experiment5A,16,1,"<?xml version=""1.0""?>\n<Clock xmlns:dt=""urn:schemas-microsoft-com:datatypes""><Description dt:dt=""string"">E-Prime Primary Realtime Clock</Description><StartTime><Timestamp dt:dt=""int"">0</Timestamp><DateUtc dt:dt=""string"">2018-10-11T20:30:40Z</DateUtc></StartTime><FrequencyChanges><FrequencyChange><Frequency dt:dt=""r8"">3215244</Frequency><Timestamp dt:dt=""r8"">5505293858305</Timestamp><Current dt:dt=""r8"">0</Current><DateUtc dt:dt=""string"">2018-10-11T20:30:40Z</DateUtc></FrequencyChange></FrequencyChanges></Clock>\n",KW_Experiment5A-16-1,59.944,1.0.0.105,2,-853564987,Professional,2.0.10.353,2.0.10.353,10/11/2018,10/11/2018 20:30,16:30:40,2.0.10.248,1,1,1,1,,,,,,,,PracticeProc,BlockList,5,1,Distractor2.bmp,2,0,,0,1,78060,400,,0,0,purple,400,1,400,,vertical,purple,Distractor2.bmp,red,Target1.bmp,blue,Distractor2.bmp,lime,Distractor2.bmp,yellow,Distractor1.bmp,cyan,Distractor2.bmp,2,1,5,TrialProc,5,PracticeTrialList,1,1,-999999,0,78460,0,1,504,78964,Target1.bmp,red,1,,,,,,
KW_Experiment5A,16,1,"<?xml version=""1.0""?>\n<Clock xmlns:dt=""urn:schemas-microsoft-com:datatypes""><Description dt:dt=""string"">E-Prime Primary Realtime Clock</Description><StartTime><Timestamp dt:dt=""int"">0</Timestamp><DateUtc dt:dt=""string"">2018-10-11T20:30:40Z</DateUtc></StartTime><FrequencyChanges><FrequencyChange><Frequency dt:dt=""r8"">3215244</Frequency><Timestamp dt:dt=""r8"">5505293858305</Timestamp><Current dt:dt=""r8"">0</Current><DateUtc dt:dt=""string"">2018-10-11T20:30:40Z</DateUtc></FrequencyChange></FrequencyChanges></Clock>\n",KW_Experiment5A-16-1,59.944,1.0.0.105,2,-853564987,Professional,2.0.10.353,2.0.10.353,10/11/2018,10/11/2018 20:30,16:30:40,2.0.10.248,1,1,1,1,,,,,,,,PracticeProc,BlockList,6,2,Distractor2.bmp,2,0,,0,1,79978,500,,0,0,cyan,500,2,500,,horizontal,yellow,Distractor2.bmp,purple,Distractor1.bmp,lime,Distractor1.bmp,blue,Distractor2.bmp,cyan,Distractor2.bmp,red,Target2.bmp,6,1,6,TrialProc,4,PracticeTrialList,0,2,-999999,0,80478,0,1,598,81076,Target2.bmp,red,2,,,,,,
KW_Experiment5A,16,1,"<?xml version=""1.0""?>\n<Clock xmlns:dt=""urn:schemas-microsoft-com:datatypes""><Description dt:dt=""string"">E-Prime Primary Realtime Clock</Description><StartTime><Timestamp dt:dt=""int"">0</Timestamp><DateUtc dt:dt=""string"">2018-10-11T20:30:40Z</DateUtc></StartTime><FrequencyChanges><FrequencyChange><Frequency dt:dt=""r8"">3215244</Frequency><Timestamp dt:dt=""r8"">5505293858305</Timestamp><Current dt:dt=""r8"">0</Current><DateUtc dt:dt=""string"">2018-10-11T20:30:40Z</DateUtc></FrequencyChange></FrequencyChanges></Clock>\n",KW_Experiment5A-16-1,59.944,1.0.0.105,2,-853564987,Professional,2.0.10.353,2.0.10.353,10/11/2018,10/11/2018 20:30,16:30:40,2.0.10.248,2,2,1,2,,,,,,,,TrainingProc,BlockList,1,2,Distractor1.bmp,1,0,,0,20,87368,601,,0,0,lime,600,3,600,,horizontal,red,Target2.bmp,cyan,Distractor1.bmp,purple,Distractor1.bmp,yellow,Distractor1.bmp,blue,Distractor1.bmp,lime,Distractor1.bmp,,,,TrialProc,6,TrainingTrialList,1,2,-999999,1,87969,0,2,515,88484,Target2.bmp,red,2,,,,7,2,1
KW_Experiment5A,16,1,"<?xml version=""1.0""?>\n<Clock xmlns:dt=""urn:schemas-microsoft-com:datatypes""><Description dt:dt=""string"">E-Prime Primary Realtime Clock</Description><StartTime><Timestamp dt:dt=""int"">0</Timestamp><DateUtc dt:dt=""string"">2018-10-11T20:30:40Z</DateUtc></StartTime><FrequencyChanges><FrequencyChange><Frequency dt:dt=""r8"">3215244</Frequency><Timestamp dt:dt=""r8"">5505293858305</Timestamp><Current dt:dt=""r8"">0</Current><DateUtc dt:dt=""string"">2018-10-11T20:30:40Z</DateUtc></FrequencyChange></FrequencyChanges></Clock>\n",KW_Experiment5A-16-1,59.944,1.0.0.105,2,-853564987,Professional,2.0.10.353,2.0.10.353,10/11/2018,10/11/2018 20:30,16:30:40,2.0.10.248,2,2,1,2,,,,,,,,TrainingProc,BlockList,2,1,Distractor1.bmp,1,0,,0,1,89503,401,,0,0,cyan,400,1,400,,vertical,cyan,Distractor1.bmp,purple,Distractor2.bmp,red,Target1.bmp,lime,Distractor1.bmp,blue,Distractor1.bmp,yellow,Distractor2.bmp,,,,TrialProc,4,TrainingTrialList,1,1,-999999,1,89904,0,1,796,90700,Target1.bmp,red,1,,,,9,2,2
KW_Experiment5A,16,1,"<?xml version=""1.0""?>\n<Clock xmlns:dt=""urn:schemas-microsoft-com:datatypes""><Description dt:dt=""string"">E-Prime Primary Realtime Clock</Description><StartTime><Timestamp dt:dt=""int"">0</Timestamp><DateUtc dt:dt=""string"">2018-10-11T20:30:40Z</DateUtc></StartTime><FrequencyChanges><FrequencyChange><Frequency dt:dt=""r8"">3215244</Frequency><Timestamp dt:dt=""r8"">5505293858305</Timestamp><Current dt:dt=""r8"">0</Current><DateUtc dt:dt=""string"">2018-10-11T20:30:40Z</DateUtc></FrequencyChange></FrequencyChanges></Clock>\n",KW_Experiment5A-16-1,59.944,1.0.0.105,2,-853564987,Professional,2.0.10.353,2.0.10.353,10/11/2018,10/11/2018 20:30,16:30:40,2.0.10.248,2,2,1,2,,,,,,,,TrainingProc,BlockList,3,1,Distractor2.bmp,2,0,,0,1,91722,400,,0,0,red,400,1,400,1,vertical,lime,Target1.bmp,red,Distractor2.bmp,blue,Distractor1.bmp,purple,Distractor2.bmp,yellow,Distractor2.bmp,cyan,Distractor2.bmp,,,,TrialProc,,TrainingTrialList,0,1,-999999,0,92122,0,2,594,92716,Target1.bmp,lime,1,,,,1,2,3
KW_Experiment5A,16,1,"<?xml version=""1.0""?>\n<Clock xmlns:dt=""urn:schemas-microsoft-com:datatypes""><Description dt:dt=""string"">E-Prime Primary Realtime Clock</Description><StartTime><Timestamp dt:dt=""int"">0</Timestamp><DateUtc dt:dt=""string"">2018-10-11T20:30:40Z</DateUtc></StartTime><FrequencyChanges><FrequencyChange><Frequency dt:dt=""r8"">3215244</Frequency><Timestamp dt:dt=""r8"">5505293858305</Timestamp><Current dt:dt=""r8"">0</Current><DateUtc dt:dt=""string"">2018-10-11T20:30:40Z</DateUtc></FrequencyChange></FrequencyChanges></Clock>\n",KW_Experiment5A-16-1,59.944,1.0.0.105,2,-853564987,Professional,2.0.10.353,2.0.10.353,10/11/2018,10/11/2018 20:30,16:30:40,2.0.10.248,2,2,1,2,,,,,,,,TrainingProc,BlockList,4,1,Distractor2.bmp,2,0,,0,1,93741,500,,0,0,purple,500,2,500,,vertical,purple,Distractor1.bmp,blue,Distractor2.bmp,lime,Distractor2.bmp,red,Target1.bmp,cyan,Distractor2.bmp,yellow,Distractor1.bmp,,,,TrialProc,5,TrainingTrialList,1,1,-999999,0,94241,0,1,779,95020,Target1.bmp,red,1,,,,10,2,4
KW_Experiment5A,16,1,"<?xml version=""1.0""?>\n<Clock xmlns:dt=""urn:schemas-microsoft-com:datatypes""><Description dt:dt=""string"">E-Prime Primary Realtime Clock</Description><StartTime><Timestamp dt:dt=""int"">0</Timestamp><DateUtc dt:dt=""string"">2018-10-11T20:30:40Z</DateUtc></StartTime><FrequencyChanges><FrequencyChange><Frequency dt:dt=""r8"">3215244</Frequency><Timestamp dt:dt=""r8"">5505293858305</Timestamp><Current dt:dt=""r8"">0</Current><DateUtc dt:dt=""string"">2018-10-11T20:30:40Z</DateUtc></FrequencyChange></FrequencyChanges></Clock>\n",KW_Experiment5A-16-1,59.944,1.0.0.105,2,-853564987,Professional,2.0.10.353,2.0.10.353,10/11/2018,10/11/2018 20:30,16:30:40,2.0.10.248,2,2,1,2,,,,,,,,TrainingProc,BlockList,5,1,Distractor1.bmp,1,0,,0,1,96043,600,,0,0,blue,600,3,600,,vertical,blue,Distractor1.bmp,purple,Distractor2.bmp,yellow,Distractor2.bmp,cyan,Distractor2.bmp,lime,Distractor2.bmp,red,Target1.bmp,,,,TrialProc,3,TrainingTrialList,1,1,-999999,0,96643,0,1,7185,103828,Target1.bmp,red,1,,,,12,2,5
KW_Experiment5A,16,1,"<?xml version=""1.0""?>\n<Clock xmlns:dt=""urn:schemas-microsoft-com:datatypes""><Description dt:dt=""string"">E-Prime Primary Realtime Clock</Description><StartTime><Timestamp dt:dt=""int"">0</Timestamp><DateUtc dt:dt=""string"">2018-10-11T20:30:40Z</DateUtc></StartTime><FrequencyChanges><FrequencyChange><Frequency dt:dt=""r8"">3215244</Frequency><Timestamp dt:dt=""r8"">5505293858305</Timestamp><Current dt:dt=""r8"">0</Current><DateUtc dt:dt=""string"">2018-10-11T20:30:40Z</DateUtc></FrequencyChange></FrequencyChanges></Clock>\n",KW_Experiment5A-16-1,59.944,1.0.0.105,2,-853564987,Professional,2.0.10.353,2.0.10.353,10/11/2018,10/11/2018 20:30,16:30:40,2.0.10.248,2,2,1,2,,,,,,,,TrainingProc,BlockList,6,1,Distractor2.bmp,2,0,,0,1,104851,600,,0,0,yellow,600,3,600,,vertical,yellow,Distractor2.bmp,purple,Distractor1.bmp,cyan,Distractor2.bmp,blue,Distractor2.bmp,red,Target1.bmp,lime,Distractor2.bmp,,,,TrialProc,2,TrainingTrialList,1,1,-999999,0,105451,0,1,624,106075,Target1.bmp,red,1,,,,11,2,6
KW_Experiment5A,16,1,"<?xml version=""1.0""?>\n<Clock xmlns:dt=""urn:schemas-microsoft-com:datatypes""><Description dt:dt=""string"">E-Prime Primary Realtime Clock</Description><StartTime><Timestamp dt:dt=""int"">0</Timestamp><DateUtc dt:dt=""string"">2018-10-11T20:30:40Z</DateUtc></StartTime><FrequencyChanges><FrequencyChange><Frequency dt:dt=""r8"">3215244</Frequency><Timestamp dt:dt=""r8"">5505293858305</Timestamp><Current dt:dt=""r8"">0</Current><DateUtc dt:dt=""string"">2018-10-11T20:30:40Z</DateUtc></FrequencyChange></FrequencyChanges></Clock>\n",KW_Experiment5A-16-1,59.944,1.0.0.105,2,-853564987,Professional,2.0.10.353,2.0.10.353,10/11/2018,10/11/2018 20:30,16:30:40,2.0.10.248,2,2,1,2,,,,,,,,TrainingProc,BlockList,7,1,Distractor2.bmp,2,0,,0,1,107086,601,,0,0,blue,600,3,600,,vertical,blue,Distractor2.bmp,lime,Distractor2.bmp,purple,Distractor1.bmp,yellow,Distractor2.bmp,red,Target1.bmp,cyan,Distractor2.bmp,,,,TrialProc,3,TrainingTrialList,1,1,-999999,1,107687,0,1,572,108259,Target1.bmp,red,1,,,,11,2,7
KW_Experiment5A,16,1,"<?xml version=""1.0""?>\n<Clock xmlns:dt=""urn:schemas-microsoft-com:datatypes""><Description dt:dt=""string"">E-Prime Primary Realtime Clock</Description><StartTime><Timestamp dt:dt=""int"">0</Timestamp><DateUtc dt:dt=""string"">2018-10-11T20:30:40Z</DateUtc></StartTime><FrequencyChanges><FrequencyChange><Frequency dt:dt=""r8"">3215244</Frequency><Timestamp dt:dt=""r8"">5505293858305</Timestamp><Current dt:dt=""r8"">0</Current><DateUtc dt:dt=""string"">2018-10-11T20:30:40Z</DateUtc></FrequencyChange></FrequencyChanges></Clock>\n",KW_Experiment5A-16-1,59.944,1.0.0.105,2,-853564987,Professional,2.0.10.353,2.0.10.353,10/11/2018,10/11/2018 20:30,16:30:40,2.0.10.248,2,2,1,2,,,,,,,,TrainingProc,BlockList,8,2,Distractor1.bmp,1,0,,0,1,109272,600,,0,0,yellow,600,3,600,2,horizontal,yellow,Distractor2.bmp,red,Distractor1.bmp,blue,Distractor1.bmp,purple,Distractor2.bmp,lime,Target2.bmp,cyan,Distractor1.bmp,,,,TrialProc,,TrainingTrialList,1,2,-999999,0,109872,0,2,635,110507,Target2.bmp,lime,2,,,,5,2,8
KW_Experiment5A,16,1,"<?xml version=""1.0""?>\n<Clock xmlns:dt=""urn:schemas-microsoft-com:datatypes""><Description dt:dt=""string"">E-Prime Primary Realtime Clock</Description><StartTime><Timestamp dt:dt=""int"">0</Timestamp><DateUtc dt:dt=""string"">2018-10-11T20:30:40Z</DateUtc></StartTime><FrequencyChanges><FrequencyChange><Frequency dt:dt=""r8"">3215244</Frequency><Timestamp dt:dt=""r8"">5505293858305</Timestamp><Current dt:dt=""r8"">0</Current><DateUtc dt:dt=""string"">2018-10-11T20:30:40Z</DateUtc></FrequencyChange></FrequencyChanges></Clock>\n",KW_Experiment5A-16-1,59.944,1.0.0.105,2,-853564987,Professional,2.0.10.353,2.0.10.353,10/11/2018,10/11/2018 20:30,16:30:40,2.0.10.248,2,2,1,2,,,,,,,,TrainingProc,BlockList,9,1,Distractor2.bmp,2,0,,0,1,111524,600,,0,0,purple,600,3,600,,vertical,purple,Distractor2.bmp,yellow,Distractor2.bmp,cyan,Distractor1.bmp,red,Target1.bmp,lime,Distractor2.bmp,blue,Distractor1.bmp,,,,TrialProc,5,TrainingTrialList,1,1,-999999,0,112124,0,1,1103,113227,Target1.bmp,red,1,,,,10,2,9
KW_Experiment5A,16,1,"<?xml version=""1.0""?>\n<Clock xmlns:dt=""urn:schemas-microsoft-com:datatypes""><Description dt:dt=""string"">E-Prime Primary Realtime Clock</Description><StartTime><Timestamp dt:dt=""int"">0</Timestamp><DateUtc dt:dt=""string"">2018-10-11T20:30:40Z</DateUtc></StartTime><FrequencyChanges><FrequencyChange><Frequency dt:dt=""r8"">3215244</Frequency><Timestamp dt:dt=""r8"">5505293858305</Timestamp><Current dt:dt=""r8"">0</Current><DateUtc dt:dt=""string"">2018-10-11T20:30:40Z</DateUtc></FrequencyChange></FrequencyChanges></Clock>\n",KW_Experiment5A-16-1,59.944,1.0.0.105,2,-853564987,Professional,2.0.10.353,2.0.10.353,10/11/2018,10/11/2018 20:30,16:30:40,2.0.10.248,2,2,1,2,,,,,,,,TrainingProc,BlockList,10,1,Distractor2.bmp,2,0,,0,1,114243,500,,0,0,yellow,500,2,500,2,vertical,yellow,Distractor2.bmp,lime,Target1.bmp,purple,Distractor2.bmp,red,Distractor1.bmp,cyan,Distractor1.bmp,blue,Distractor2.bmp,,,,TrialProc,,TrainingTrialList,0,1,-999999,0,114743,0,2,628,115371,Target1.bmp,lime,1,,,,2,2,10
KW_Experiment5A,16,1,"<?xml version=""1.0""?>\n<Clock xmlns:dt=""urn:schemas-microsoft-com:datatypes""><Description dt:dt=""string"">E-Prime Primary Realtime Clock</Description><StartTime><Timestamp dt:dt=""int"">0</Timestamp><DateUtc dt:dt=""string"">2018-10-11T20:30:40Z</DateUtc></StartTime><FrequencyChanges><FrequencyChange><Frequency dt:dt=""r8"">3215244</Frequency><Timestamp dt:dt=""r8"">5505293858305</Timestamp><Current dt:dt=""r8"">0</Current><DateUtc dt:dt=""string"">2018-10-11T20:30:40Z</DateUtc></FrequencyChange></FrequencyChanges></Clock>\n",KW_Experiment5A-16-1,59.944,1.0.0.105,2,-853564987,Professional,2.0.10.353,2.0.10.353,10/11/2018,10/11/2018 20:30,16:30:40,2.0.10.248,2,2,1,2,,,,,,,,TrainingProc,BlockList,11,1,Distractor1.bmp,1,0,,0,1,116395,500,,0,0,blue,500,2,500,3,vertical,blue,Distractor1.bmp,cyan,Distractor1.bmp,purple,Distractor2.bmp,red,Distractor1.bmp,yellow,Distractor1.bmp,lime,Target1.bmp,,,,TrialProc,,TrainingTrialList,1,1,-999999,0,116895,0,1,644,117539,Target1.bmp,lime,1,,,,6,2,11
KW_Experiment5A,16,1,"<?xml version=""1.0""?>\n<Clock xmlns:dt=""urn:schemas-microsoft-com:datatypes""><Description dt:dt=""string"">E-Prime Primary Realtime Clock</Description><StartTime><Timestamp dt:dt=""int"">0</Timestamp><DateUtc dt:dt=""string"">2018-10-11T20:30:40Z</DateUtc></StartTime><FrequencyChanges><FrequencyChange><Frequency dt:dt=""r8"">3215244</Frequency><Timestamp dt:dt=""r8"">5505293858305</Timestamp><Current dt:dt=""r8"">0</Current><DateUtc dt:dt=""string"">2018-10-11T20:30:40Z</DateUtc></FrequencyChange></FrequencyChanges></Clock>\n",KW_Experiment5A-16-1,59.944,1.0.0.105,2,-853564987,Professional,2.0.10.353,2.0.10.353,10/11/2018,10/11/2018 20:30,16:30:40,2.0.10.248,2,2,1,2,,,,,,,,TrainingProc,BlockList,12,1,Distractor2.bmp,2,0,,1,0,118563,601,,0,0,purple,600,3,600,,vertical,purple,Distractor1.bmp,blue,Distractor1.bmp,red,Target1.bmp,lime,Distractor2.bmp,yellow,Distractor2.bmp,cyan,Distractor2.bmp,,,,TrialProc,5,TrainingTrialList,1,1,-999999,1,119164,0,1,743,119907,Target1.bmp,red,1,,,,9,2,12
KW_Experiment5A,16,1,"<?xml version=""1.0""?>\n<Clock xmlns:dt=""urn:schemas-microsoft-com:datatypes""><Description dt:dt=""string"">E-Prime Primary Realtime Clock</Description><StartTime><Timestamp dt:dt=""int"">0</Timestamp><DateUtc dt:dt=""string"">2018-10-11T20:30:40Z</DateUtc></StartTime><FrequencyChanges><FrequencyChange><Frequency dt:dt=""r8"">3215244</Frequency><Timestamp dt:dt=""r8"">5505293858305</Timestamp><Current dt:dt=""r8"">0</Current><DateUtc dt:dt=""string"">2018-10-11T20:30:40Z</DateUtc></FrequencyChange></FrequencyChanges></Clock>\n",KW_Experiment5A-16-1,59.944,1.0.0.105,2,-853564987,Professional,2.0.10.353,2.0.10.353,10/11/2018,10/11/2018 20:30,16:30:40,2.0.10.248,2,2,1,2,,,,,,,,TrainingProc,BlockList,13,1,Distractor2.bmp,2,0,,0,1,120932,501,,0,0,blue,500,2,500,,vertical,blue,Distractor2.bmp,lime,Distractor2.bmp,cyan,Distractor2.bmp,yellow,Distractor2.bmp,purple,Distractor2.bmp,red,Target1.bmp,,,,TrialProc,3,TrainingTrialList,1,1,-999999,1,121433,0,1,482,121915,Target1.bmp,red,1,,,,12,2,13
KW_Experiment5A,16,1,"<?xml version=""1.0""?>\n<Clock xmlns:dt=""urn:schemas-microsoft-com:datatypes""><Description dt:dt=""string"">E-Prime Primary Realtime Clock</Description><StartTime><Timestamp dt:dt=""int"">0</Timestamp><DateUtc dt:dt=""string"">2018-10-11T20:30:40Z</DateUtc></StartTime><FrequencyChanges><FrequencyChange><Frequency dt:dt=""r8"">3215244</Frequency><Timestamp dt:dt=""r8"">5505293858305</Timestamp><Current dt:dt=""r8"">0</Current><DateUtc dt:dt=""string"">2018-10-11T20:30:40Z</DateUtc></FrequencyChange></FrequencyChanges></Clock>\n",KW_Experiment5A-16-1,59.944,1.0.0.105,2,-853564987,Professional,2.0.10.353,2.0.10.353,10/11/2018,10/11/2018 20:30,16:30:40,2.0.10.248,2,2,1,2,,,,,,,,TrainingProc,BlockList,14,1,Distractor1.bmp,1,0,,0,1,122934,501,,0,0,purple,500,2,500,,vertical,purple,Distractor2.bmp,red,Target1.bmp,yellow,Distractor1.bmp,cyan,Distractor2.bmp,lime,Distractor1.bmp,blue,Distractor1.bmp,,,,TrialProc,5,TrainingTrialList,1,1,-999999,1,123435,0,1,456,123891,Target1.bmp,red,1,,,,8,2,14
KW_Experiment5A,16,1,"<?xml version=""1.0""?>\n<Clock xmlns:dt=""urn:schemas-microsoft-com:datatypes""><Description dt:dt=""string"">E-Prime Primary Realtime Clock</Description><StartTime><Timestamp dt:dt=""int"">0</Timestamp><DateUtc dt:dt=""string"">2018-10-11T20:30:40Z</DateUtc></StartTime><FrequencyChanges><FrequencyChange><Frequency dt:dt=""r8"">3215244</Frequency><Timestamp dt:dt=""r8"">5505293858305</Timestamp><Current dt:dt=""r8"">0</Current><DateUtc dt:dt=""string"">2018-10-11T20:30:40Z</DateUtc></FrequencyChange></FrequencyChanges></Clock>\n",KW_Experiment5A-16-1,59.944,1.0.0.105,2,-853564987,Professional,2.0.10.353,2.0.10.353,10/11/2018,10/11/2018 20:30,16:30:40,2.0.10.248,2,2,1,2,,,,,,,,TrainingProc,BlockList,15,2,Distractor1.bmp,1,0,,0,1,124903,600,,0,0,blue,600,3,600,,horizontal,red,Target2.bmp,lime,Distractor1.bmp,cyan,Distractor2.bmp,yellow,Distractor2.bmp,purple,Distractor2.bmp,blue,Distractor1.bmp,,,,TrialProc,3,TrainingTrialList,1,2,-999999,0,125503,0,2,508,126011,Target2.bmp,red,2,,,,7,2,15
KW_Experiment5A,16,1,"<?xml version=""1.0""?>\n<Clock xmlns:dt=""urn:schemas-microsoft-com:datatypes""><Description dt:dt=""string"">E-Prime Primary Realtime Clock</Description><StartTime><Timestamp dt:dt=""int"">0</Timestamp><DateUtc dt:dt=""string"">2018-10-11T20:30:40Z</DateUtc></StartTime><FrequencyChanges><FrequencyChange><Frequency dt:dt=""r8"">3215244</Frequency><Timestamp dt:dt=""r8"">5505293858305</Timestamp><Current dt:dt=""r8"">0</Current><DateUtc dt:dt=""string"">2018-10-11T20:30:40Z</DateUtc></FrequencyChange></FrequencyChanges></Clock>\n",KW_Experiment5A-16-1,59.944,1.0.0.105,2,-853564987,Professional,2.0.10.353,2.0.10.353,10/11/2018,10/11/2018 20:30,16:30:40,2.0.10.248,2,2,1,2,,,,,,,,TrainingProc,BlockList,16,1,Distractor2.bmp,2,0,,0,1,127021,601,,0,0,purple,600,3,600,,vertical,purple,Distractor1.bmp,lime,Distractor2.bmp,yellow,Distractor1.bmp,red,Target1.bmp,blue,Distractor2.bmp,cyan,Distractor2.bmp,,,,TrialProc,5,TrainingTrialList,1,1,-999999,1,127622,0,1,493,128115,Target1.bmp,red,1,,,,10,2,16
KW_Experiment5A,16,1,"<?xml version=""1.0""?>\n<Clock xmlns:dt=""urn:schemas-microsoft-com:datatypes""><Description dt:dt=""string"">E-Prime Primary Realtime Clock</Description><StartTime><Timestamp dt:dt=""int"">0</Timestamp><DateUtc dt:dt=""string"">2018-10-11T20:30:40Z</DateUtc></StartTime><FrequencyChanges><FrequencyChange><Frequency dt:dt=""r8"">3215244</Frequency><Timestamp dt:dt=""r8"">5505293858305</Timestamp><Current dt:dt=""r8"">0</Current><DateUtc dt:dt=""string"">2018-10-11T20:30:40Z</DateUtc></FrequencyChange></FrequencyChanges></Clock>\n",KW_Experiment5A-16-1,59.944,1.0.0.105,2,-853564987,Professional,2.0.10.353,2.0.10.353,10/11/2018,10/11/2018 20:30,16:30:40,2.0.10.248,2,2,1,2,,,,,,,,TrainingProc,BlockList,17,2,Distractor2.bmp,2,0,,0,1,129140,400,,0,0,cyan,400,1,400,,horizontal,cyan,Distractor1.bmp,yellow,Distractor1.bmp,blue,Distractor1.bmp,lime,Distractor2.bmp,red,Target2.bmp,purple,Distractor2.bmp,,,,TrialProc,4,TrainingTrialList,1,2,-999999,0,129540,0,2,495,130035,Target2.bmp,red,2,,,,11,2,17
KW_Experiment5A,16,1,"<?xml version=""1.0""?>\n<Clock xmlns:dt=""urn:schemas-microsoft-com:datatypes""><Description dt:dt=""string"">E-Prime Primary Realtime Clock</Description><StartTime><Timestamp dt:dt=""int"">0</Timestamp><DateUtc dt:dt=""string"">2018-10-11T20:30:40Z</DateUtc></StartTime><FrequencyChanges><FrequencyChange><Frequency dt:dt=""r8"">3215244</Frequency><Timestamp dt:dt=""r8"">5505293858305</Timestamp><Current dt:dt=""r8"">0</Current><DateUtc dt:dt=""string"">2018-10-11T20:30:40Z</DateUtc></FrequencyChange></FrequencyChanges></Clock>\n",KW_Experiment5A-16-1,59.944,1.0.0.105,2,-853564987,Professional,2.0.10.353,2.0.10.353,10/11/2018,10/11/2018 20:30,16:30:40,2.0.10.248,2,2,1,2,,,,,,,,TrainingProc,BlockList,18,2,Distractor2.bmp,2,0,,0,1,131058,601,,0,0,red,600,3,600,1,horizontal,red,Distractor2.bmp,blue,Distractor1.bmp,lime,Target2.bmp,purple,Distractor2.bmp,cyan,Distractor2.bmp,yellow,Distractor2.bmp,,,,TrialProc,,TrainingTrialList,1,2,-999999,1,131659,0,2,1088,132747,Target2.bmp,lime,2,,,,3,2,18
KW_Experiment5A,16,1,"<?xml version=""1.0""?>\n<Clock xmlns:dt=""urn:schemas-microsoft-com:datatypes""><Description dt:dt=""string"">E-Prime Primary Realtime Clock</Description><StartTime><Timestamp dt:dt=""int"">0</Timestamp><DateUtc dt:dt=""string"">2018-10-11T20:30:40Z</DateUtc></StartTime><FrequencyChanges><FrequencyChange><Frequency dt:dt=""r8"">3215244</Frequency><Timestamp dt:dt=""r8"">5505293858305</Timestamp><Current dt:dt=""r8"">0</Current><DateUtc dt:dt=""string"">2018-10-11T20:30:40Z</DateUtc></FrequencyChange></FrequencyChanges></Clock>\n",KW_Experiment5A-16-1,59.944,1.0.0.105,2,-853564987,Professional,2.0.10.353,2.0.10.353,10/11/2018,10/11/2018 20:30,16:30:40,2.0.10.248,2,2,1,2,,,,,,,,TrainingProc,BlockList,19,2,Distractor1.bmp,1,0,,0,1,133761,400,,0,0,yellow,400,1,400,,horizontal,yellow,Distractor2.bmp,blue,Distractor2.bmp,red,Target2.bmp,purple,Distractor1.bmp,cyan,Distractor1.bmp,lime,Distractor2.bmp,,,,TrialProc,2,TrainingTrialList,1,2,-999999,0,134161,0,2,530,134691,Target2.bmp,red,2,,,,9,2,19
KW_Experiment5A,16,1,"<?xml version=""1.0""?>\n<Clock xmlns:dt=""urn:schemas-microsoft-com:datatypes""><Description dt:dt=""string"">E-Prime Primary Realtime Clock</Description><StartTime><Timestamp dt:dt=""int"">0</Timestamp><DateUtc dt:dt=""string"">2018-10-11T20:30:40Z</DateUtc></StartTime><FrequencyChanges><FrequencyChange><Frequency dt:dt=""r8"">3215244</Frequency><Timestamp dt:dt=""r8"">5505293858305</Timestamp><Current dt:dt=""r8"">0</Current><DateUtc dt:dt=""string"">2018-10-11T20:30:40Z</DateUtc></FrequencyChange></FrequencyChanges></Clock>\n",KW_Experiment5A-16-1,59.944,1.0.0.105,2,-853564987,Professional,2.0.10.353,2.0.10.353,10/11/2018,10/11/2018 20:30,16:30:40,2.0.10.248,2,2,1,2,,,,,,,,TrainingProc,BlockList,20,2,Distractor2.bmp,2,0,,0,1,135713,400,,0,0,purple,400,1,400,,horizontal,red,Target2.bmp,blue,Distractor2.bmp,cyan,Distractor2.bmp,lime,Distractor1.bmp,yellow,Distractor1.bmp,purple,Distractor1.bmp,,,,TrialProc,5,TrainingTrialList,1,2,-999999,0,136113,0,2,450,136563,Target2.bmp,red,2,,,,7,2,20
KW_Experiment5A,16,1,"<?xml version=""1.0""?>\n<Clock xmlns:dt=""urn:schemas-microsoft-com:datatypes""><Description dt:dt=""string"">E-Prime Primary Realtime Clock</Description><StartTime><Timestamp dt:dt=""int"">0</Timestamp><DateUtc dt:dt=""string"">2018-10-11T20:30:40Z</DateUtc></StartTime><FrequencyChanges><FrequencyChange><Frequency dt:dt=""r8"">3215244</Frequency><Timestamp dt:dt=""r8"">5505293858305</Timestamp><Current dt:dt=""r8"">0</Current><DateUtc dt:dt=""string"">2018-10-11T20:30:40Z</DateUtc></FrequencyChange></FrequencyChanges></Clock>\n",KW_Experiment5A-16-1,59.944,1.0.0.105,2,-853564987,Professional,2.0.10.353,2.0.10.353,10/11/2018,10/11/2018 20:30,16:30:40,2.0.10.248,2,2,1,2,,,,,,,,TrainingProc,BlockList,21,2,Distractor2.bmp,2,0,,0,1,137581,500,,0,0,purple,500,2,500,,horizontal,purple,Distractor2.bmp,blue,Distractor2.bmp,cyan,Distractor1.bmp,yellow,Distractor1.bmp,lime,Distractor1.bmp,red,Target2.bmp,,,,TrialProc,5,TrainingTrialList,0,2,-999999,0,138081,0,1,522,138603,Target2.bmp,red,2,,,,12,2,21
KW_Experiment5A,16,1,"<?xml version=""1.0""?>\n<Clock xmlns:dt=""urn:schemas-microsoft-com:datatypes""><Description dt:dt=""string"">E-Prime Primary Realtime Clock</Description><StartTime><Timestamp dt:dt=""int"">0</Timestamp><DateUtc dt:dt=""string"">2018-10-11T20:30:40Z</DateUtc></StartTime><FrequencyChanges><FrequencyChange><Frequency dt:dt=""r8"">3215244</Frequency><Timestamp dt:dt=""r8"">5505293858305</Timestamp><Current dt:dt=""r8"">0</Current><DateUtc dt:dt=""string"">2018-10-11T20:30:40Z</DateUtc></FrequencyChange></FrequencyChanges></Clock>\n",KW_Experiment5A-16-1,59.944,1.0.0.105,2,-853564987,Professional,2.0.10.353,2.0.10.353,10/11/2018,10/11/2018 20:30,16:30:40,2.0.10.248,2,2,1,2,,,,,,,,TrainingProc,BlockList,22,2,Distractor1.bmp,1,0,,0,1,139616,401,,0,0,yellow,400,1,400,,horizontal,yellow,Distractor1.bmp,red,Target2.bmp,blue,Distractor1.bmp,cyan,Distractor1.bmp,lime,Distractor1.bmp,purple,Distractor1.bmp,,,,TrialProc,2,TrainingTrialList,1,2,-999999,1,140017,0,2,594,140611,Target2.bmp,red,2,,,,8,2,22
KW_Experiment5A,16,1,"<?xml version=""1.0""?>\n<Clock xmlns:dt=""urn:schemas-microsoft-com:datatypes""><Description dt:dt=""string"">E-Prime Primary Realtime Clock</Description><StartTime><Timestamp dt:dt=""int"">0</Timestamp><DateUtc dt:dt=""string"">2018-10-11T20:30:40Z</DateUtc></StartTime><FrequencyChanges><FrequencyChange><Frequency dt:dt=""r8"">3215244</Frequency><Timestamp dt:dt=""r8"">5505293858305</Timestamp><Current dt:dt=""r8"">0</Current><DateUtc dt:dt=""string"">2018-10-11T20:30:40Z</DateUtc></FrequencyChange></FrequencyChanges></Clock>\n",KW_Experiment5A-16-1,59.944,1.0.0.105,2,-853564987,Professional,2.0.10.353,2.0.10.353,10/11/2018,10/11/2018 20:30,16:30:40,2.0.10.248,2,2,1,2,,,,,,,,TrainingProc,BlockList,23,1,Distractor2.bmp,2,0,,0,1,141635,400,,0,0,yellow,400,1,400,,vertical,yellow,Distractor1.bmp,red,Target1.bmp,purple,Distractor2.bmp,cyan,Distractor2.bmp,lime,Distractor2.bmp,blue,Distractor1.bmp,,,,TrialProc,2,TrainingTrialList,1,1,-999999,0,142035,0,1,504,142539,Target1.bmp,red,1,,,,8,2,23
KW_Experiment5A,16,1,"<?xml version=""1.0""?>\n<Clock xmlns:dt=""urn:schemas-microsoft-com:datatypes""><Description dt:dt=""string"">E-Prime Primary Realtime Clock</Description><StartTime><Timestamp dt:dt=""int"">0</Timestamp><DateUtc dt:dt=""string"">2018-10-11T20:30:40Z</DateUtc></StartTime><FrequencyChanges><FrequencyChange><Frequency dt:dt=""r8"">3215244</Frequency><Timestamp dt:dt=""r8"">5505293858305</Timestamp><Current dt:dt=""r8"">0</Current><DateUtc dt:dt=""string"">2018-10-11T20:30:40Z</DateUtc></FrequencyChange></FrequencyChanges></Clock>\n",KW_Experiment5A-16-1,59.944,1.0.0.105,2,-853564987,Professional,2.0.10.353,2.0.10.353,10/11/2018,10/11/2018 20:30,16:30:40,2.0.10.248,2,2,1,2,,,,,,,,TrainingProc,BlockList,24,1,Distractor1.bmp,1,0,,0,1,143553,601,,0,0,purple,600,3,600,5,vertical,purple,Distractor1.bmp,yellow,Distractor1.bmp,blue,Distractor1.bmp,lime,Target1.bmp,red,Distractor1.bmp,cyan,Distractor1.bmp,,,,TrialProc,,TrainingTrialList,1,1,-999999,1,144154,0,1,465,144619,Target1.bmp,lime,1,,,,4,2,24
KW_Experiment5A,16,1,"<?xml version=""1.0""?>\n<Clock xmlns:dt=""urn:schemas-microsoft-com:datatypes""><Description dt:dt=""string"">E-Prime Primary Realtime Clock</Description><StartTime><Timestamp dt:dt=""int"">0</Timestamp><DateUtc dt:dt=""string"">2018-10-11T20:30:40Z</DateUtc></StartTime><FrequencyChanges><FrequencyChange><Frequency dt:dt=""r8"">3215244</Frequency><Timestamp dt:dt=""r8"">5505293858305</Timestamp><Current dt:dt=""r8"">0</Current><DateUtc dt:dt=""string"">2018-10-11T20:30:40Z</DateUtc></FrequencyChange></FrequencyChanges></Clock>\n",KW_Experiment5A-16-1,59.944,1.0.0.105,2,-853564987,Professional,2.0.10.353,2.0.10.353,10/11/2018,10/11/2018 20:30,16:30:40,2.0.10.248,2,2,1,2,,,,,,,,TrainingProc,BlockList,25,2,Distractor1.bmp,1,0,,1,0,145638,601,,0,0,yellow,600,3,600,,horizontal,yellow,Distractor1.bmp,blue,Distractor2.bmp,lime,Distractor1.bmp,cyan,Distractor1.bmp,purple,Distractor2.bmp,red,Target2.bmp,,,,TrialProc,2,TrainingTrialList,1,2,-999999,1,146239,0,2,644,146883,Target2.bmp,red,2,,,,12,3,25
KW_Experiment5A,16,1,"<?xml version=""1.0""?>\n<Clock xmlns:dt=""urn:schemas-microsoft-com:datatypes""><Description dt:dt=""string"">E-Prime Primary Realtime Clock</Description><StartTime><Timestamp dt:dt=""int"">0</Timestamp><DateUtc dt:dt=""string"">2018-10-11T20:30:40Z</DateUtc></StartTime><FrequencyChanges><FrequencyChange><Frequency dt:dt=""r8"">3215244</Frequency><Timestamp dt:dt=""r8"">5505293858305</Timestamp><Current dt:dt=""r8"">0</Current><DateUtc dt:dt=""string"">2018-10-11T20:30:40Z</DateUtc></FrequencyChange></FrequencyChanges></Clock>\n",KW_Experiment5A-16-1,59.944,1.0.0.105,2,-853564987,Professional,2.0.10.353,2.0.10.353,10/11/2018,10/11/2018 20:30,16:30:40,2.0.10.248,2,2,1,2,,,,,,,,TrainingProc,BlockList,26,1,Distractor2.bmp,2,0,,0,1,147907,601,,0,0,blue,600,3,600,,vertical,blue,Distractor2.bmp,lime,Distractor2.bmp,cyan,Distractor1.bmp,yellow,Distractor1.bmp,purple,Distractor2.bmp,red,Target1.bmp,,,,TrialProc,3,TrainingTrialList,1,1,-999999,1,148508,0,1,455,148963,Target1.bmp,red,1,,,,12,3,26
KW_Experiment5A,16,1,"<?xml version=""1.0""?>\n<Clock xmlns:dt=""urn:schemas-microsoft-com:datatypes""><Description dt:dt=""string"">E-Prime Primary Realtime Clock</Description><StartTime><Timestamp dt:dt=""int"">0</Timestamp><DateUtc dt:dt=""string"">2018-10-11T20:30:40Z</DateUtc></StartTime><FrequencyChanges><FrequencyChange><Frequency dt:dt=""r8"">3215244</Frequency><Timestamp dt:dt=""r8"">5505293858305</Timestamp><Current dt:dt=""r8"">0</Current><DateUtc dt:dt=""string"">2018-10-11T20:30:40Z</DateUtc></FrequencyChange></FrequencyChanges></Clock>\n",KW_Experiment5A-16-1,59.944,1.0.0.105,2,-853564987,Professional,2.0.10.353,2.0.10.353,10/11/2018,10/11/2018 20:30,16:30:40,2.0.10.248,2,2,1,2,,,,,,,,TrainingProc,BlockList,27,2,Distractor2.bmp,2,0,,0,1,149976,400,,0,0,blue,400,1,400,,horizontal,blue,Distractor1.bmp,lime,Distractor2.bmp,red,Target2.bmp,cyan,Distractor2.bmp,purple,Distractor2.bmp,yellow,Distractor2.bmp,,,,TrialProc,3,TrainingTrialList,1,2,-999999,0,150376,0,2,435,150811,Target2.bmp,red,2,,,,9,3,27
KW_Experiment5A,16,1,"<?xml version=""1.0""?>\n<Clock xmlns:dt=""urn:schemas-microsoft-com:datatypes""><Description dt:dt=""string"">E-Prime Primary Realtime Clock</Description><StartTime><Timestamp dt:dt=""int"">0</Timestamp><DateUtc dt:dt=""string"">2018-10-11T20:30:40Z</DateUtc></StartTime><FrequencyChanges><FrequencyChange><Frequency dt:dt=""r8"">3215244</Frequency><Timestamp dt:dt=""r8"">5505293858305</Timestamp><Current dt:dt=""r8"">0</Current><DateUtc dt:dt=""string"">2018-10-11T20:30:40Z</DateUtc></FrequencyChange></FrequencyChanges></Clock>\n",KW_Experiment5A-16-1,59.944,1.0.0.105,2,-853564987,Professional,2.0.10.353,2.0.10.353,10/11/2018,10/11/2018 20:30,16:30:40,2.0.10.248,2,2,1,2,,,,,,,,TrainingProc,BlockList,28,1,Distractor2.bmp,2,0,,0,1,151828,500,,0,0,purple,500,2,500,5,vertical,lime,Target1.bmp,purple,Distractor2.bmp,cyan,Distractor1.bmp,yellow,Distractor1.bmp,blue,Distractor2.bmp,red,Distractor1.bmp,,,,TrialProc,,TrainingTrialList,1,1,-999999,0,152328,0,1,571,152899,Target1.bmp,lime,1,,,,1,3,28
KW_Experiment5A,16,1,"<?xml version=""1.0""?>\n<Clock xmlns:dt=""urn:schemas-microsoft-com:datatypes""><Description dt:dt=""string"">E-Prime Primary Realtime Clock</Description><StartTime><Timestamp dt:dt=""int"">0</Timestamp><DateUtc dt:dt=""string"">2018-10-11T20:30:40Z</DateUtc></StartTime><FrequencyChanges><FrequencyChange><Frequency dt:dt=""r8"">3215244</Frequency><Timestamp dt:dt=""r8"">5505293858305</Timestamp><Current dt:dt=""r8"">0</Current><DateUtc dt:dt=""string"">2018-10-11T20:30:40Z</DateUtc></FrequencyChange></FrequencyChanges></Clock>\n",KW_Experiment5A-16-1,59.944,1.0.0.105,2,-853564987,Professional,2.0.10.353,2.0.10.353,10/11/2018,10/11/2018 20:30,16:30:40,2.0.10.248,2,2,1,2,,,,,,,,TrainingProc,BlockList,29,2,Distractor1.bmp,1,0,,0,1,153913,500,,0,0,blue,500,2,500,3,horizontal,blue,Distractor1.bmp,yellow,Distractor2.bmp,cyan,Distractor1.bmp,purple,Distractor1.bmp,red,Distractor1.bmp,lime,Target2.bmp,,,,TrialProc,,TrainingTrialList,0,2,-999999,0,154413,0,1,486,154899,Target2.bmp,lime,2,,,,6,3,29
KW_Experiment5A,16,1,"<?xml version=""1.0""?>\n<Clock xmlns:dt=""urn:schemas-microsoft-com:datatypes""><Description dt:dt=""string"">E-Prime Primary Realtime Clock</Description><StartTime><Timestamp dt:dt=""int"">0</Timestamp><DateUtc dt:dt=""string"">2018-10-11T20:30:40Z</DateUtc></StartTime><FrequencyChanges><FrequencyChange><Frequency dt:dt=""r8"">3215244</Frequency><Timestamp dt:dt=""r8"">5505293858305</Timestamp><Current dt:dt=""r8"">0</Current><DateUtc dt:dt=""string"">2018-10-11T20:30:40Z</DateUtc></FrequencyChange></FrequencyChanges></Clock>\n",KW_Experiment5A-16-1,59.944,1.0.0.105,2,-853564987,Professional,2.0.10.353,2.0.10.353,10/11/2018,10/11/2018 20:30,16:30:40,2.0.10.248,2,2,1,2,,,,,,,,TrainingProc,BlockList,30,2,Distractor1.bmp,1,0,,0,1,155915,500,,0,0,cyan,500,2,500,,horizontal,red,Target2.bmp,purple,Distractor1.bmp,yellow,Distractor2.bmp,lime,Distractor2.bmp,blue,Distractor2.bmp,cyan,Distractor2.bmp,,,,TrialProc,4,TrainingTrialList,1,2,-999999,0,156415,0,2,684,157099,Target2.bmp,red,2,,,,7,3,30
KW_Experiment5A,16,1,"<?xml version=""1.0""?>\n<Clock xmlns:dt=""urn:schemas-microsoft-com:datatypes""><Description dt:dt=""string"">E-Prime Primary Realtime Clock</Description><StartTime><Timestamp dt:dt=""int"">0</Timestamp><DateUtc dt:dt=""string"">2018-10-11T20:30:40Z</DateUtc></StartTime><FrequencyChanges><FrequencyChange><Frequency dt:dt=""r8"">3215244</Frequency><Timestamp dt:dt=""r8"">5505293858305</Timestamp><Current dt:dt=""r8"">0</Current><DateUtc dt:dt=""string"">2018-10-11T20:30:40Z</DateUtc></FrequencyChange></FrequencyChanges></Clock>\n",KW_Experiment5A-16-1,59.944,1.0.0.105,2,-853564987,Professional,2.0.10.353,2.0.10.353,10/11/2018,10/11/2018 20:30,16:30:40,2.0.10.248,2,2,1,2,,,,,,,,TrainingProc,BlockList,31,1,Distractor1.bmp,1,0,,0,1,158117,600,,0,0,lime,600,3,600,,vertical,red,Target1.bmp,cyan,Distractor1.bmp,yellow,Distractor1.bmp,purple,Distractor1.bmp,blue,Distractor2.bmp,lime,Distractor1.bmp,,,,TrialProc,6,TrainingTrialList,1,1,-999999,0,158717,0,1,558,159275,Target1.bmp,red,1,,,,7,3,31
KW_Experiment5A,16,1,"<?xml version=""1.0""?>\n<Clock xmlns:dt=""urn:schemas-microsoft-com:datatypes""><Description dt:dt=""string"">E-Prime Primary Realtime Clock</Description><StartTime><Timestamp dt:dt=""int"">0</Timestamp><DateUtc dt:dt=""string"">2018-10-11T20:30:40Z</DateUtc></StartTime><FrequencyChanges><FrequencyChange><Frequency dt:dt=""r8"">3215244</Frequency><Timestamp dt:dt=""r8"">5505293858305</Timestamp><Current dt:dt=""r8"">0</Current><DateUtc dt:dt=""string"">2018-10-11T20:30:40Z</DateUtc></FrequencyChange></FrequencyChanges></Clock>\n",KW_Experiment5A-16-1,59.944,1.0.0.105,2,-853564987,Professional,2.0.10.353,2.0.10.353,10/11/2018,10/11/2018 20:30,16:30:40,2.0.10.248,2,2,1,2,,,,,,,,TrainingProc,BlockList,32,1,Distractor2.bmp,2,0,,0,1,160285,501,,0,0,yellow,500,2,500,,vertical,yellow,Distractor2.bmp,red,Target1.bmp,lime,Distractor2.bmp,blue,Distractor2.bmp,purple,Distractor2.bmp,cyan,Distractor2.bmp,,,,TrialProc,2,TrainingTrialList,1,1,-999999,1,160786,0,1,665,161451,Target1.bmp,red,1,,,,8,3,32
KW_Experiment5A,16,1,"<?xml version=""1.0""?>\n<Clock xmlns:dt=""urn:schemas-microsoft-com:datatypes""><Description dt:dt=""string"">E-Prime Primary Realtime Clock</Description><StartTime><Timestamp dt:dt=""int"">0</Timestamp><DateUtc dt:dt=""string"">2018-10-11T20:30:40Z</DateUtc></StartTime><FrequencyChanges><FrequencyChange><Frequency dt:dt=""r8"">3215244</Frequency><Timestamp dt:dt=""r8"">5505293858305</Timestamp><Current dt:dt=""r8"">0</Current><DateUtc dt:dt=""string"">2018-10-11T20:30:40Z</DateUtc></FrequencyChange></FrequencyChanges></Clock>\n",KW_Experiment5A-16-1,59.944,1.0.0.105,2,-853564987,Professional,2.0.10.353,2.0.10.353,10/11/2018,10/11/2018 20:30,16:30:40,2.0.10.248,2,2,1,2,,,,,,,,TrainingProc,BlockList,33,2,Distractor1.bmp,1,0,,0,1,162471,400,,0,0,purple,400,1,400,,horizontal,purple,Distractor2.bmp,blue,Distractor1.bmp,lime,Distractor2.bmp,cyan,Distractor2.bmp,red,Target2.bmp,yellow,Distractor1.bmp,,,,TrialProc,5,TrainingTrialList,1,2,-999999,0,162871,0,2,564,163435,Target2.bmp,red,2,,,,11,3,33
KW_Experiment5A,16,1,"<?xml version=""1.0""?>\n<Clock xmlns:dt=""urn:schemas-microsoft-com:datatypes""><Description dt:dt=""string"">E-Prime Primary Realtime Clock</Description><StartTime><Timestamp dt:dt=""int"">0</Timestamp><DateUtc dt:dt=""string"">2018-10-11T20:30:40Z</DateUtc></StartTime><FrequencyChanges><FrequencyChange><Frequency dt:dt=""r8"">3215244</Frequency><Timestamp dt:dt=""r8"">5505293858305</Timestamp><Current dt:dt=""r8"">0</Current><DateUtc dt:dt=""string"">2018-10-11T20:30:40Z</DateUtc></FrequencyChange></FrequencyChanges></Clock>\n",KW_Experiment5A-16-1,59.944,1.0.0.105,2,-853564987,Professional,2.0.10.353,2.0.10.353,10/11/2018,10/11/2018 20:30,16:30:40,2.0.10.248,2,2,1,2,,,,,,,,TrainingProc,BlockList,34,1,Distractor2.bmp,2,0,,0,1,164456,600,,0,0,blue,600,3,600,,vertical,blue,Distractor2.bmp,cyan,Distractor2.bmp,red,Target1.bmp,purple,Distractor2.bmp,yellow,Distractor2.bmp,lime,Distractor2.bmp,,,,TrialProc,3,TrainingTrialList,1,1,-999999,0,165056,0,1,523,165579,Target1.bmp,red,1,,,,9,3,34
KW_Experiment5A,16,1,"<?xml version=""1.0""?>\n<Clock xmlns:dt=""urn:schemas-microsoft-com:datatypes""><Description dt:dt=""string"">E-Prime Primary Realtime Clock</Description><StartTime><Timestamp dt:dt=""int"">0</Timestamp><DateUtc dt:dt=""string"">2018-10-11T20:30:40Z</DateUtc></StartTime><FrequencyChanges><FrequencyChange><Frequency dt:dt=""r8"">3215244</Frequency><Timestamp dt:dt=""r8"">5505293858305</Timestamp><Current dt:dt=""r8"">0</Current><DateUtc dt:dt=""string"">2018-10-11T20:30:40Z</DateUtc></FrequencyChange></FrequencyChanges></Clock>\n",KW_Experiment5A-16-1,59.944,1.0.0.105,2,-853564987,Professional,2.0.10.353,2.0.10.353,10/11/2018,10/11/2018 20:30,16:30:40,2.0.10.248,2,2,1,2,,,,,,,,TrainingProc,BlockList,35,1,Distractor2.bmp,2,0,,0,1,166591,601,,0,0,yellow,600,3,600,,vertical,red,Target1.bmp,purple,Distractor2.bmp,lime,Distractor2.bmp,blue,Distractor2.bmp,cyan,Distractor2.bmp,yellow,Distractor2.bmp,,,,TrialProc,2,TrainingTrialList,1,1,-999999,1,167192,0,1,395,167587,Target1.bmp,red,1,,,,7,3,35
KW_Experiment5A,16,1,"<?xml version=""1.0""?>\n<Clock xmlns:dt=""urn:schemas-microsoft-com:datatypes""><Description dt:dt=""string"">E-Prime Primary Realtime Clock</Description><StartTime><Timestamp dt:dt=""int"">0</Timestamp><DateUtc dt:dt=""string"">2018-10-11T20:30:40Z</DateUtc></StartTime><FrequencyChanges><FrequencyChange><Frequency dt:dt=""r8"">3215244</Frequency><Timestamp dt:dt=""r8"">5505293858305</Timestamp><Current dt:dt=""r8"">0</Current><DateUtc dt:dt=""string"">2018-10-11T20:30:40Z</DateUtc></FrequencyChange></FrequencyChanges></Clock>\n",KW_Experiment5A-16-1,59.944,1.0.0.105,2,-853564987,Professional,2.0.10.353,2.0.10.353,10/11/2018,10/11/2018 20:30,16:30:40,2.0.10.248,2,2,1,2,,,,,,,,TrainingProc,BlockList,36,2,Distractor1.bmp,1,0,,0,1,168610,400,,0,0,yellow,400,1,400,2,horizontal,yellow,Distractor2.bmp,red,Distractor2.bmp,cyan,Distractor1.bmp,purple,Distractor2.bmp,lime,Target2.bmp,blue,Distractor1.bmp,,,,TrialProc,,TrainingTrialList,1,2,-999999,0,169010,0,2,721,169731,Target2.bmp,lime,2,,,,5,3,36
KW_Experiment5A,16,1,"<?xml version=""1.0""?>\n<Clock xmlns:dt=""urn:schemas-microsoft-com:datatypes""><Description dt:dt=""string"">E-Prime Primary Realtime Clock</Description><StartTime><Timestamp dt:dt=""int"">0</Timestamp><DateUtc dt:dt=""string"">2018-10-11T20:30:40Z</DateUtc></StartTime><FrequencyChanges><FrequencyChange><Frequency dt:dt=""r8"">3215244</Frequency><Timestamp dt:dt=""r8"">5505293858305</Timestamp><Current dt:dt=""r8"">0</Current><DateUtc dt:dt=""string"">2018-10-11T20:30:40Z</DateUtc></FrequencyChange></FrequencyChanges></Clock>\n",KW_Experiment5A-16-1,59.944,1.0.0.105,2,-853564987,Professional,2.0.10.353,2.0.10.353,10/11/2018,10/11/2018 20:30,16:30:40,2.0.10.248,2,2,1,2,,,,,,,,TrainingProc,BlockList,37,1,Distractor2.bmp,2,0,,0,1,170745,500,,0,0,purple,500,2,500,,vertical,purple,Distractor1.bmp,lime,Distractor1.bmp,yellow,Distractor2.bmp,blue,Distractor1.bmp,red,Target1.bmp,cyan,Distractor2.bmp,,,,TrialProc,5,TrainingTrialList,1,1,-999999,0,171245,0,1,446,171691,Target1.bmp,red,1,,,,11,3,37
KW_Experiment5A,16,1,"<?xml version=""1.0""?>\n<Clock xmlns:dt=""urn:schemas-microsoft-com:datatypes""><Description dt:dt=""string"">E-Prime Primary Realtime Clock</Description><StartTime><Timestamp dt:dt=""int"">0</Timestamp><DateUtc dt:dt=""string"">2018-10-11T20:30:40Z</DateUtc></StartTime><FrequencyChanges><FrequencyChange><Frequency dt:dt=""r8"">3215244</Frequency><Timestamp dt:dt=""r8"">5505293858305</Timestamp><Current dt:dt=""r8"">0</Current><DateUtc dt:dt=""string"">2018-10-11T20:30:40Z</DateUtc></FrequencyChange></FrequencyChanges></Clock>\n",KW_Experiment5A-16-1,59.944,1.0.0.105,2,-853564987,Professional,2.0.10.353,2.0.10.353,10/11/2018,10/11/2018 20:30,16:30:40,2.0.10.248,2,2,1,2,,,,,,,,TrainingProc,BlockList,38,2,Distractor1.bmp,1,0,,0,0,172713,601,,0,0,lime,600,3,600,,horizontal,lime,Distractor1.bmp,cyan,Distractor2.bmp,yellow,Distractor2.bmp,red,Target2.bmp,purple,Distractor1.bmp,blue,Distractor2.bmp,,,,TrialProc,6,TrainingTrialList,1,2,-999999,1,173314,0,2,585,173899,Target2.bmp,red,2,,,,10,3,38
KW_Experiment5A,16,1,"<?xml version=""1.0""?>\n<Clock xmlns:dt=""urn:schemas-microsoft-com:datatypes""><Description dt:dt=""string"">E-Prime Primary Realtime Clock</Description><StartTime><Timestamp dt:dt=""int"">0</Timestamp><DateUtc dt:dt=""string"">2018-10-11T20:30:40Z</DateUtc></StartTime><FrequencyChanges><FrequencyChange><Frequency dt:dt=""r8"">3215244</Frequency><Timestamp dt:dt=""r8"">5505293858305</Timestamp><Current dt:dt=""r8"">0</Current><DateUtc dt:dt=""string"">2018-10-11T20:30:40Z</DateUtc></FrequencyChange></FrequencyChanges></Clock>\n",KW_Experiment5A-16-1,59.944,1.0.0.105,2,-853564987,Professional,2.0.10.353,2.0.10.353,10/11/2018,10/11/2018 20:30,16:30:40,2.0.10.248,2,2,1,2,,,,,,,,TrainingProc,BlockList,39,2,Distractor2.bmp,2,0,,1,0,174915,501,,0,0,purple,500,2,500,,horizontal,purple,Distractor1.bmp,blue,Distractor1.bmp,cyan,Distractor2.bmp,red,Target2.bmp,yellow,Distractor2.bmp,lime,Distractor2.bmp,,,,TrialProc,5,TrainingTrialList,1,2,-999999,1,175416,0,2,491,175907,Target2.bmp,red,2,,,,10,3,39
KW_Experiment5A,16,1,"<?xml version=""1.0""?>\n<Clock xmlns:dt=""urn:schemas-microsoft-com:datatypes""><Description dt:dt=""string"">E-Prime Primary Realtime Clock</Description><StartTime><Timestamp dt:dt=""int"">0</Timestamp><DateUtc dt:dt=""string"">2018-10-11T20:30:40Z</DateUtc></StartTime><FrequencyChanges><FrequencyChange><Frequency dt:dt=""r8"">3215244</Frequency><Timestamp dt:dt=""r8"">5505293858305</Timestamp><Current dt:dt=""r8"">0</Current><DateUtc dt:dt=""string"">2018-10-11T20:30:40Z</DateUtc></FrequencyChange></FrequencyChanges></Clock>\n",KW_Experiment5A-16-1,59.944,1.0.0.105,2,-853564987,Professional,2.0.10.353,2.0.10.353,10/11/2018,10/11/2018 20:30,16:30:40,2.0.10.248,2,2,1,2,,,,,,,,TrainingProc,BlockList,40,1,Distractor1.bmp,1,0,,0,1,176917,601,,0,0,blue,600,3,600,,vertical,blue,Distractor2.bmp,cyan,Distractor1.bmp,yellow,Distractor2.bmp,red,Target1.bmp,purple,Distractor1.bmp,lime,Distractor2.bmp,,,,TrialProc,3,TrainingTrialList,0,1,-999999,1,177518,0,2,525,178043,Target1.bmp,red,1,,,,10,3,40
KW_Experiment5A,16,1,"<?xml version=""1.0""?>\n<Clock xmlns:dt=""urn:schemas-microsoft-com:datatypes""><Description dt:dt=""string"">E-Prime Primary Realtime Clock</Description><StartTime><Timestamp dt:dt=""int"">0</Timestamp><DateUtc dt:dt=""string"">2018-10-11T20:30:40Z</DateUtc></StartTime><FrequencyChanges><FrequencyChange><Frequency dt:dt=""r8"">3215244</Frequency><Timestamp dt:dt=""r8"">5505293858305</Timestamp><Current dt:dt=""r8"">0</Current><DateUtc dt:dt=""string"">2018-10-11T20:30:40Z</DateUtc></FrequencyChange></FrequencyChanges></Clock>\n",KW_Experiment5A-16-1,59.944,1.0.0.105,2,-853564987,Professional,2.0.10.353,2.0.10.353,10/11/2018,10/11/2018 20:30,16:30:40,2.0.10.248,2,2,1,2,,,,,,,,TrainingProc,BlockList,41,2,Distractor2.bmp,2,0,,0,1,179069,501,,0,0,red,500,2,500,1,horizontal,red,Distractor2.bmp,lime,Target2.bmp,purple,Distractor2.bmp,cyan,Distractor2.bmp,yellow,Distractor1.bmp,blue,Distractor2.bmp,,,,TrialProc,,TrainingTrialList,1,2,-999999,1,179570,0,2,1065,180635,Target2.bmp,lime,2,,,,2,3,41
KW_Experiment5A,16,1,"<?xml version=""1.0""?>\n<Clock xmlns:dt=""urn:schemas-microsoft-com:datatypes""><Description dt:dt=""string"">E-Prime Primary Realtime Clock</Description><StartTime><Timestamp dt:dt=""int"">0</Timestamp><DateUtc dt:dt=""string"">2018-10-11T20:30:40Z</DateUtc></StartTime><FrequencyChanges><FrequencyChange><Frequency dt:dt=""r8"">3215244</Frequency><Timestamp dt:dt=""r8"">5505293858305</Timestamp><Current dt:dt=""r8"">0</Current><DateUtc dt:dt=""string"">2018-10-11T20:30:40Z</DateUtc></FrequencyChange></FrequencyChanges></Clock>\n",KW_Experiment5A-16-1,59.944,1.0.0.105,2,-853564987,Professional,2.0.10.353,2.0.10.353,10/11/2018,10/11/2018 20:30,16:30:40,2.0.10.248,2,2,1,2,,,,,,,,TrainingProc,BlockList,42,2,Distractor1.bmp,1,0,,0,1,181655,400,,0,0,lime,400,1,400,,horizontal,lime,Distractor2.bmp,yellow,Distractor2.bmp,red,Target2.bmp,purple,Distractor1.bmp,cyan,Distractor1.bmp,blue,Distractor1.bmp,,,,TrialProc,6,TrainingTrialList,1,2,-999999,0,182055,0,2,1044,183099,Target2.bmp,red,2,,,,9,3,42
KW_Experiment5A,16,1,"<?xml version=""1.0""?>\n<Clock xmlns:dt=""urn:schemas-microsoft-com:datatypes""><Description dt:dt=""string"">E-Prime Primary Realtime Clock</Description><StartTime><Timestamp dt:dt=""int"">0</Timestamp><DateUtc dt:dt=""string"">2018-10-11T20:30:40Z</DateUtc></StartTime><FrequencyChanges><FrequencyChange><Frequency dt:dt=""r8"">3215244</Frequency><Timestamp dt:dt=""r8"">5505293858305</Timestamp><Current dt:dt=""r8"">0</Current><DateUtc dt:dt=""string"">2018-10-11T20:30:40Z</DateUtc></FrequencyChange></FrequencyChanges></Clock>\n",KW_Experiment5A-16-1,59.944,1.0.0.105,2,-853564987,Professional,2.0.10.353,2.0.10.353,10/11/2018,10/11/2018 20:30,16:30:40,2.0.10.248,2,2,1,2,,,,,,,,TrainingProc,BlockList,43,2,Distractor1.bmp,1,0,,0,1,184124,400,,0,0,cyan,400,1,400,4,horizontal,cyan,Distractor2.bmp,purple,Distractor2.bmp,yellow,Distractor2.bmp,lime,Target2.bmp,blue,Distractor1.bmp,red,Distractor2.bmp,,,,TrialProc,,TrainingTrialList,1,2,-999999,0,184524,0,2,471,184995,Target2.bmp,lime,2,,,,4,3,43
KW_Experiment5A,16,1,"<?xml version=""1.0""?>\n<Clock xmlns:dt=""urn:schemas-microsoft-com:datatypes""><Description dt:dt=""string"">E-Prime Primary Realtime Clock</Description><StartTime><Timestamp dt:dt=""int"">0</Timestamp><DateUtc dt:dt=""string"">2018-10-11T20:30:40Z</DateUtc></StartTime><FrequencyChanges><FrequencyChange><Frequency dt:dt=""r8"">3215244</Frequency><Timestamp dt:dt=""r8"">5505293858305</Timestamp><Current dt:dt=""r8"">0</Current><DateUtc dt:dt=""string"">2018-10-11T20:30:40Z</DateUtc></FrequencyChange></FrequencyChanges></Clock>\n",KW_Experiment5A-16-1,59.944,1.0.0.105,2,-853564987,Professional,2.0.10.353,2.0.10.353,10/11/2018,10/11/2018 20:30,16:30:40,2.0.10.248,2,2,1,2,,,,,,,,TrainingProc,BlockList,44,1,Distractor1.bmp,1,0,,0,1,186009,500,,0,0,cyan,500,2,500,,vertical,cyan,Distractor1.bmp,red,Target1.bmp,lime,Distractor1.bmp,yellow,Distractor2.bmp,purple,Distractor2.bmp,blue,Distractor2.bmp,,,,TrialProc,4,TrainingTrialList,0,1,-999999,0,186509,0,2,742,187251,Target1.bmp,red,1,,,,8,3,44
KW_Experiment5A,16,1,"<?xml version=""1.0""?>\n<Clock xmlns:dt=""urn:schemas-microsoft-com:datatypes""><Description dt:dt=""string"">E-Prime Primary Realtime Clock</Description><StartTime><Timestamp dt:dt=""int"">0</Timestamp><DateUtc dt:dt=""string"">2018-10-11T20:30:40Z</DateUtc></StartTime><FrequencyChanges><FrequencyChange><Frequency dt:dt=""r8"">3215244</Frequency><Timestamp dt:dt=""r8"">5505293858305</Timestamp><Current dt:dt=""r8"">0</Current><DateUtc dt:dt=""string"">2018-10-11T20:30:40Z</DateUtc></FrequencyChange></FrequencyChanges></Clock>\n",KW_Experiment5A-16-1,59.944,1.0.0.105,2,-853564987,Professional,2.0.10.353,2.0.10.353,10/11/2018,10/11/2018 20:30,16:30:40,2.0.10.248,2,2,1,2,,,,,,,,TrainingProc,BlockList,45,1,Distractor2.bmp,2,0,,0,1,188278,500,,0,0,blue,500,2,500,,vertical,blue,Distractor2.bmp,red,Target1.bmp,cyan,Distractor2.bmp,purple,Distractor2.bmp,yellow,Distractor2.bmp,lime,Distractor2.bmp,,,,TrialProc,3,TrainingTrialList,1,1,-999999,0,188778,0,1,449,189227,Target1.bmp,red,1,,,,8,3,45
KW_Experiment5A,16,1,"<?xml version=""1.0""?>\n<Clock xmlns:dt=""urn:schemas-microsoft-com:datatypes""><Description dt:dt=""string"">E-Prime Primary Realtime Clock</Description><StartTime><Timestamp dt:dt=""int"">0</Timestamp><DateUtc dt:dt=""string"">2018-10-11T20:30:40Z</DateUtc></StartTime><FrequencyChanges><FrequencyChange><Frequency dt:dt=""r8"">3215244</Frequency><Timestamp dt:dt=""r8"">5505293858305</Timestamp><Current dt:dt=""r8"">0</Current><DateUtc dt:dt=""string"">2018-10-11T20:30:40Z</DateUtc></FrequencyChange></FrequencyChanges></Clock>\n",KW_Experiment5A-16-1,59.944,1.0.0.105,2,-853564987,Professional,2.0.10.353,2.0.10.353,10/11/2018,10/11/2018 20:30,16:30:40,2.0.10.248,2,2,1,2,,,,,,,,TrainingProc,BlockList,46,1,Distractor1.bmp,1,0,,0,1,190246,501,,0,0,cyan,500,2,500,,vertical,cyan,Distractor1.bmp,yellow,Distractor1.bmp,lime,Distractor1.bmp,blue,Distractor2.bmp,purple,Distractor2.bmp,red,Target1.bmp,,,,TrialProc,4,TrainingTrialList,1,1,-999999,1,190747,0,1,472,191219,Target1.bmp,red,1,,,,12,3,46
KW_Experiment5A,16,1,"<?xml version=""1.0""?>\n<Clock xmlns:dt=""urn:schemas-microsoft-com:datatypes""><Description dt:dt=""string"">E-Prime Primary Realtime Clock</Description><StartTime><Timestamp dt:dt=""int"">0</Timestamp><DateUtc dt:dt=""string"">2018-10-11T20:30:40Z</DateUtc></StartTime><FrequencyChanges><FrequencyChange><Frequency dt:dt=""r8"">3215244</Frequency><Timestamp dt:dt=""r8"">5505293858305</Timestamp><Current dt:dt=""r8"">0</Current><DateUtc dt:dt=""string"">2018-10-11T20:30:40Z</DateUtc></FrequencyChange></FrequencyChanges></Clock>\n",KW_Experiment5A-16-1,59.944,1.0.0.105,2,-853564987,Professional,2.0.10.353,2.0.10.353,10/11/2018,10/11/2018 20:30,16:30:40,2.0.10.248,2,2,1,2,,,,,,,,TrainingProc,BlockList,47,2,Distractor1.bmp,1,0,,1,0,192231,501,,0,0,yellow,500,2,500,,horizontal,yellow,Distractor1.bmp,blue,Distractor2.bmp,cyan,Distractor2.bmp,lime,Distractor1.bmp,red,Target2.bmp,purple,Distractor1.bmp,,,,TrialProc,2,TrainingTrialList,1,2,-999999,1,192732,0,2,583,193315,Target2.bmp,red,2,,,,11,3,47
KW_Experiment5A,16,1,"<?xml version=""1.0""?>\n<Clock xmlns:dt=""urn:schemas-microsoft-com:datatypes""><Description dt:dt=""string"">E-Prime Primary Realtime Clock</Description><StartTime><Timestamp dt:dt=""int"">0</Timestamp><DateUtc dt:dt=""string"">2018-10-11T20:30:40Z</DateUtc></StartTime><FrequencyChanges><FrequencyChange><Frequency dt:dt=""r8"">3215244</Frequency><Timestamp dt:dt=""r8"">5505293858305</Timestamp><Current dt:dt=""r8"">0</Current><DateUtc dt:dt=""string"">2018-10-11T20:30:40Z</DateUtc></FrequencyChange></FrequencyChanges></Clock>\n",KW_Experiment5A-16-1,59.944,1.0.0.105,2,-853564987,Professional,2.0.10.353,2.0.10.353,10/11/2018,10/11/2018 20:30,16:30:40,2.0.10.248,2,2,1,2,,,,,,,,TrainingProc,BlockList,48,2,Distractor2.bmp,2,0,,0,1,194333,401,,0,0,cyan,400,1,400,4,horizontal,cyan,Distractor2.bmp,blue,Distractor1.bmp,lime,Target2.bmp,red,Distractor2.bmp,yellow,Distractor2.bmp,purple,Distractor2.bmp,,,,TrialProc,,TrainingTrialList,1,2,-999999,1,194734,0,2,493,195227,Target2.bmp,lime,2,,,,3,3,48
KW_Experiment5A,16,1,"<?xml version=""1.0""?>\n<Clock xmlns:dt=""urn:schemas-microsoft-com:datatypes""><Description dt:dt=""string"">E-Prime Primary Realtime Clock</Description><StartTime><Timestamp dt:dt=""int"">0</Timestamp><DateUtc dt:dt=""string"">2018-10-11T20:30:40Z</DateUtc></StartTime><FrequencyChanges><FrequencyChange><Frequency dt:dt=""r8"">3215244</Frequency><Timestamp dt:dt=""r8"">5505293858305</Timestamp><Current dt:dt=""r8"">0</Current><DateUtc dt:dt=""string"">2018-10-11T20:30:40Z</DateUtc></FrequencyChange></FrequencyChanges></Clock>\n",KW_Experiment5A-16-1,59.944,1.0.0.105,2,-853564987,Professional,2.0.10.353,2.0.10.353,10/11/2018,10/11/2018 20:30,16:30:40,2.0.10.248,3,2,1,3,,,,,,,,TrainingProc,BlockList,1,1,Distractor2.bmp,2,0,,0,17,197620,600,,0,0,blue,600,3,600,3,vertical,lime,Target1.bmp,blue,Distractor2.bmp,red,Distractor2.bmp,yellow,Distractor1.bmp,purple,Distractor2.bmp,cyan,Distractor1.bmp,,,,TrialProc,,TrainingTrialList,1,1,-999999,0,198220,0,1,543,198763,Target1.bmp,lime,1,,,,1,4,49
KW_Experiment5A,16,1,"<?xml version=""1.0""?>\n<Clock xmlns:dt=""urn:schemas-microsoft-com:datatypes""><Description dt:dt=""string"">E-Prime Primary Realtime Clock</Description><StartTime><Timestamp dt:dt=""int"">0</Timestamp><DateUtc dt:dt=""string"">2018-10-11T20:30:40Z</DateUtc></StartTime><FrequencyChanges><FrequencyChange><Frequency dt:dt=""r8"">3215244</Frequency><Timestamp dt:dt=""r8"">5505293858305</Timestamp><Current dt:dt=""r8"">0</Current><DateUtc dt:dt=""string"">2018-10-11T20:30:40Z</DateUtc></FrequencyChange></FrequencyChanges></Clock>\n",KW_Experiment5A-16-1,59.944,1.0.0.105,2,-853564987,Professional,2.0.10.353,2.0.10.353,10/11/2018,10/11/2018 20:30,16:30:40,2.0.10.248,3,2,1,3,,,,,,,,TrainingProc,BlockList,2,1,Distractor2.bmp,2,0,,0,1,199772,600,,0,0,purple,600,3,600,,vertical,purple,Distractor2.bmp,yellow,Distractor2.bmp,red,Target1.bmp,lime,Distractor2.bmp,cyan,Distractor2.bmp,blue,Distractor2.bmp,,,,TrialProc,5,TrainingTrialList,0,1,-999999,0,200372,0,2,703,201075,Target1.bmp,red,1,,,,9,4,50
KW_Experiment5A,16,1,"<?xml version=""1.0""?>\n<Clock xmlns:dt=""urn:schemas-microsoft-com:datatypes""><Description dt:dt=""string"">E-Prime Primary Realtime Clock</Description><StartTime><Timestamp dt:dt=""int"">0</Timestamp><DateUtc dt:dt=""string"">2018-10-11T20:30:40Z</DateUtc></StartTime><FrequencyChanges><FrequencyChange><Frequency dt:dt=""r8"">3215244</Frequency><Timestamp dt:dt=""r8"">5505293858305</Timestamp><Current dt:dt=""r8"">0</Current><DateUtc dt:dt=""string"">2018-10-11T20:30:40Z</DateUtc></FrequencyChange></FrequencyChanges></Clock>\n",KW_Experiment5A-16-1,59.944,1.0.0.105,2,-853564987,Professional,2.0.10.353,2.0.10.353,10/11/2018,10/11/2018 20:30,16:30:40,2.0.10.248,3,2,1,3,,,,,,,,TrainingProc,BlockList,3,2,Distractor1.bmp,1,0,,0,1,202091,400,,0,0,purple,400,1,400,,horizontal,purple,Distractor1.bmp,red,Target2.bmp,cyan,Distractor1.bmp,blue,Distractor1.bmp,yellow,Distractor2.bmp,lime,Distractor1.bmp,,,,TrialProc,5,TrainingTrialList,1,2,-999999,0,202491,0,2,624,203115,Target2.bmp,red,2,,,,8,4,51
KW_Experiment5A,16,1,"<?xml version=""1.0""?>\n<Clock xmlns:dt=""urn:schemas-microsoft-com:datatypes""><Description dt:dt=""string"">E-Prime Primary Realtime Clock</Description><StartTime><Timestamp dt:dt=""int"">0</Timestamp><DateUtc dt:dt=""string"">2018-10-11T20:30:40Z</DateUtc></StartTime><FrequencyChanges><FrequencyChange><Frequency dt:dt=""r8"">3215244</Frequency><Timestamp dt:dt=""r8"">5505293858305</Timestamp><Current dt:dt=""r8"">0</Current><DateUtc dt:dt=""string"">2018-10-11T20:30:40Z</DateUtc></FrequencyChange></FrequencyChanges></Clock>\n",KW_Experiment5A-16-1,59.944,1.0.0.105,2,-853564987,Professional,2.0.10.353,2.0.10.353,10/11/2018,10/11/2018 20:30,16:30:40,2.0.10.248,3,2,1,3,,,,,,,,TrainingProc,BlockList,4,1,Distractor1.bmp,1,0,,0,1,204126,400,,0,0,cyan,400,1,400,,vertical,cyan,Distractor1.bmp,lime,Distractor1.bmp,blue,Distractor1.bmp,yellow,Distractor2.bmp,red,Target1.bmp,purple,Distractor1.bmp,,,,TrialProc,4,TrainingTrialList,0,1,-999999,0,204526,0,2,645,205171,Target1.bmp,red,1,,,,11,4,52
KW_Experiment5A,16,1,"<?xml version=""1.0""?>\n<Clock xmlns:dt=""urn:schemas-microsoft-com:datatypes""><Description dt:dt=""string"">E-Prime Primary Realtime Clock</Description><StartTime><Timestamp dt:dt=""int"">0</Timestamp><DateUtc dt:dt=""string"">2018-10-11T20:30:40Z</DateUtc></StartTime><FrequencyChanges><FrequencyChange><Frequency dt:dt=""r8"">3215244</Frequency><Timestamp dt:dt=""r8"">5505293858305</Timestamp><Current dt:dt=""r8"">0</Current><DateUtc dt:dt=""string"">2018-10-11T20:30:40Z</DateUtc></FrequencyChange></FrequencyChanges></Clock>\n",KW_Experiment5A-16-1,59.944,1.0.0.105,2,-853564987,Professional,2.0.10.353,2.0.10.353,10/11/2018,10/11/2018 20:30,16:30:40,2.0.10.248,3,2,1,3,,,,,,,,TrainingProc,BlockList,5,2,Distractor2.bmp,2,0,,0,1,206194,501,,0,0,cyan,500,2,500,,horizontal,cyan,Distractor2.bmp,lime,Distractor1.bmp,blue,Distractor1.bmp,yellow,Distractor2.bmp,purple,Distractor1.bmp,red,Target2.bmp,,,,TrialProc,4,TrainingTrialList,1,2,-999999,1,206695,0,2,612,207307,Target2.bmp,red,2,,,,12,4,53
KW_Experiment5A,16,1,"<?xml version=""1.0""?>\n<Clock xmlns:dt=""urn:schemas-microsoft-com:datatypes""><Description dt:dt=""string"">E-Prime Primary Realtime Clock</Description><StartTime><Timestamp dt:dt=""int"">0</Timestamp><DateUtc dt:dt=""string"">2018-10-11T20:30:40Z</DateUtc></StartTime><FrequencyChanges><FrequencyChange><Frequency dt:dt=""r8"">3215244</Frequency><Timestamp dt:dt=""r8"">5505293858305</Timestamp><Current dt:dt=""r8"">0</Current><DateUtc dt:dt=""string"">2018-10-11T20:30:40Z</DateUtc></FrequencyChange></FrequencyChanges></Clock>\n",KW_Experiment5A-16-1,59.944,1.0.0.105,2,-853564987,Professional,2.0.10.353,2.0.10.353,10/11/2018,10/11/2018 20:30,16:30:40,2.0.10.248,3,2,1,3,,,,,,,,TrainingProc,BlockList,6,2,Distractor1.bmp,1,0,,0,1,208330,400,,0,0,blue,400,1,400,,horizontal,blue,Distractor2.bmp,yellow,Distractor1.bmp,purple,Distractor1.bmp,lime,Distractor1.bmp,red,Target2.bmp,cyan,Distractor1.bmp,,,,TrialProc,3,TrainingTrialList,1,2,-999999,0,208730,0,2,536,209266,Target2.bmp,red,2,,,,11,4,54
KW_Experiment5A,16,1,"<?xml version=""1.0""?>\n<Clock xmlns:dt=""urn:schemas-microsoft-com:datatypes""><Description dt:dt=""string"">E-Prime Primary Realtime Clock</Description><StartTime><Timestamp dt:dt=""int"">0</Timestamp><DateUtc dt:dt=""string"">2018-10-11T20:30:40Z</DateUtc></StartTime><FrequencyChanges><FrequencyChange><Frequency dt:dt=""r8"">3215244</Frequency><Timestamp dt:dt=""r8"">5505293858305</Timestamp><Current dt:dt=""r8"">0</Current><DateUtc dt:dt=""string"">2018-10-11T20:30:40Z</DateUtc></FrequencyChange></FrequencyChanges></Clock>\n",KW_Experiment5A-16-1,59.944,1.0.0.105,2,-853564987,Professional,2.0.10.353,2.0.10.353,10/11/2018,10/11/2018 20:30,16:30:40,2.0.10.248,3,2,1,3,,,,,,,,TrainingProc,BlockList,7,1,Distractor1.bmp,1,0,,0,1,210281,601,,0,0,yellow,600,3,600,2,vertical,yellow,Distractor1.bmp,lime,Target1.bmp,blue,Distractor1.bmp,cyan,Distractor1.bmp,red,Distractor1.bmp,purple,Distractor2.bmp,,,,TrialProc,,TrainingTrialList,1,1,-999999,1,210882,0,1,505,211387,Target1.bmp,lime,1,,,,2,4,55
KW_Experiment5A,16,1,"<?xml version=""1.0""?>\n<Clock xmlns:dt=""urn:schemas-microsoft-com:datatypes""><Description dt:dt=""string"">E-Prime Primary Realtime Clock</Description><StartTime><Timestamp dt:dt=""int"">0</Timestamp><DateUtc dt:dt=""string"">2018-10-11T20:30:40Z</DateUtc></StartTime><FrequencyChanges><FrequencyChange><Frequency dt:dt=""r8"">3215244</Frequency><Timestamp dt:dt=""r8"">5505293858305</Timestamp><Current dt:dt=""r8"">0</Current><DateUtc dt:dt=""string"">2018-10-11T20:30:40Z</DateUtc></FrequencyChange></FrequencyChanges></Clock>\n",KW_Experiment5A-16-1,59.944,1.0.0.105,2,-853564987,Professional,2.0.10.353,2.0.10.353,10/11/2018,10/11/2018 20:30,16:30:40,2.0.10.248,3,2,1,3,,,,,,,,TrainingProc,BlockList,8,2,Distractor1.bmp,1,0,,0,1,212400,500,,0,0,yellow,500,2,500,,horizontal,yellow,Distractor1.bmp,cyan,Distractor2.bmp,purple,Distractor2.bmp,lime,Distractor1.bmp,red,Target2.bmp,blue,Distractor1.bmp,,,,TrialProc,2,TrainingTrialList,0,2,-999999,0,212900,0,1,510,213410,Target2.bmp,red,2,,,,11,4,56
KW_Experiment5A,16,1,"<?xml version=""1.0""?>\n<Clock xmlns:dt=""urn:schemas-microsoft-com:datatypes""><Description dt:dt=""string"">E-Prime Primary Realtime Clock</Description><StartTime><Timestamp dt:dt=""int"">0</Timestamp><DateUtc dt:dt=""string"">2018-10-11T20:30:40Z</DateUtc></StartTime><FrequencyChanges><FrequencyChange><Frequency dt:dt=""r8"">3215244</Frequency><Timestamp dt:dt=""r8"">5505293858305</Timestamp><Current dt:dt=""r8"">0</Current><DateUtc dt:dt=""string"">2018-10-11T20:30:40Z</DateUtc></FrequencyChange></FrequencyChanges></Clock>\n",KW_Experiment5A-16-1,59.944,1.0.0.105,2,-853564987,Professional,2.0.10.353,2.0.10.353,10/11/2018,10/11/2018 20:30,16:30:40,2.0.10.248,3,2,1,3,,,,,,,,TrainingProc,BlockList,9,2,Distractor2.bmp,2,0,,0,1,214435,401,,0,0,purple,400,1,400,5,horizontal,purple,Distractor1.bmp,yellow,Distractor1.bmp,lime,Target2.bmp,red,Distractor2.bmp,blue,Distractor2.bmp,cyan,Distractor2.bmp,,,,TrialProc,,TrainingTrialList,1,2,-999999,1,214836,0,2,846,215682,Target2.bmp,lime,2,,,,3,4,57
KW_Experiment5A,16,1,"<?xml version=""1.0""?>\n<Clock xmlns:dt=""urn:schemas-microsoft-com:datatypes""><Description dt:dt=""string"">E-Prime Primary Realtime Clock</Description><StartTime><Timestamp dt:dt=""int"">0</Timestamp><DateUtc dt:dt=""string"">2018-10-11T20:30:40Z</DateUtc></StartTime><FrequencyChanges><FrequencyChange><Frequency dt:dt=""r8"">3215244</Frequency><Timestamp dt:dt=""r8"">5505293858305</Timestamp><Current dt:dt=""r8"">0</Current><DateUtc dt:dt=""string"">2018-10-11T20:30:40Z</DateUtc></FrequencyChange></FrequencyChanges></Clock>\n",KW_Experiment5A-16-1,59.944,1.0.0.105,2,-853564987,Professional,2.0.10.353,2.0.10.353,10/11/2018,10/11/2018 20:30,16:30:40,2.0.10.248,3,2,1,3,,,,,,,,TrainingProc,BlockList,10,1,Distractor1.bmp,1,0,,0,1,216704,500,,0,0,lime,500,2,500,,vertical,lime,Distractor1.bmp,purple,Distractor2.bmp,blue,Distractor1.bmp,cyan,Distractor2.bmp,yellow,Distractor1.bmp,red,Target1.bmp,,,,TrialProc,6,TrainingTrialList,1,1,-999999,0,217204,0,1,910,218114,Target1.bmp,red,1,,,,12,4,58
KW_Experiment5A,16,1,"<?xml version=""1.0""?>\n<Clock xmlns:dt=""urn:schemas-microsoft-com:datatypes""><Description dt:dt=""string"">E-Prime Primary Realtime Clock</Description><StartTime><Timestamp dt:dt=""int"">0</Timestamp><DateUtc dt:dt=""string"">2018-10-11T20:30:40Z</DateUtc></StartTime><FrequencyChanges><FrequencyChange><Frequency dt:dt=""r8"">3215244</Frequency><Timestamp dt:dt=""r8"">5505293858305</Timestamp><Current dt:dt=""r8"">0</Current><DateUtc dt:dt=""string"">2018-10-11T20:30:40Z</DateUtc></FrequencyChange></FrequencyChanges></Clock>\n",KW_Experiment5A-16-1,59.944,1.0.0.105,2,-853564987,Professional,2.0.10.353,2.0.10.353,10/11/2018,10/11/2018 20:30,16:30:40,2.0.10.248,3,2,1,3,,,,,,,,TrainingProc,BlockList,11,2,Distractor2.bmp,2,0,,0,1,219140,600,,0,0,cyan,600,3,600,4,horizontal,cyan,Distractor1.bmp,yellow,Distractor2.bmp,blue,Distractor2.bmp,purple,Distractor1.bmp,lime,Target2.bmp,red,Distractor2.bmp,,,,TrialProc,,TrainingTrialList,0,2,-999999,0,219740,0,1,502,220242,Target2.bmp,lime,2,,,,5,4,59
KW_Experiment5A,16,1,"<?xml version=""1.0""?>\n<Clock xmlns:dt=""urn:schemas-microsoft-com:datatypes""><Description dt:dt=""string"">E-Prime Primary Realtime Clock</Description><StartTime><Timestamp dt:dt=""int"">0</Timestamp><DateUtc dt:dt=""string"">2018-10-11T20:30:40Z</DateUtc></StartTime><FrequencyChanges><FrequencyChange><Frequency dt:dt=""r8"">3215244</Frequency><Timestamp dt:dt=""r8"">5505293858305</Timestamp><Current dt:dt=""r8"">0</Current><DateUtc dt:dt=""string"">2018-10-11T20:30:40Z</DateUtc></FrequencyChange></FrequencyChanges></Clock>\n",KW_Experiment5A-16-1,59.944,1.0.0.105,2,-853564987,Professional,2.0.10.353,2.0.10.353,10/11/2018,10/11/2018 20:30,16:30:40,2.0.10.248,3,2,1,3,,,,,,,,TrainingProc,BlockList,12,1,Distractor2.bmp,2,0,,0,1,221258,601,,0,0,lime,600,3,600,,vertical,lime,Distractor2.bmp,purple,Distractor1.bmp,red,Target1.bmp,blue,Distractor2.bmp,cyan,Distractor1.bmp,yellow,Distractor1.bmp,,,,TrialProc,6,TrainingTrialList,1,1,-999999,1,221859,0,1,647,222506,Target1.bmp,red,1,,,,9,4,60
KW_Experiment5A,16,1,"<?xml version=""1.0""?>\n<Clock xmlns:dt=""urn:schemas-microsoft-com:datatypes""><Description dt:dt=""string"">E-Prime Primary Realtime Clock</Description><StartTime><Timestamp dt:dt=""int"">0</Timestamp><DateUtc dt:dt=""string"">2018-10-11T20:30:40Z</DateUtc></StartTime><FrequencyChanges><FrequencyChange><Frequency dt:dt=""r8"">3215244</Frequency><Timestamp dt:dt=""r8"">5505293858305</Timestamp><Current dt:dt=""r8"">0</Current><DateUtc dt:dt=""string"">2018-10-11T20:30:40Z</DateUtc></FrequencyChange></FrequencyChanges></Clock>\n",KW_Experiment5A-16-1,59.944,1.0.0.105,2,-853564987,Professional,2.0.10.353,2.0.10.353,10/11/2018,10/11/2018 20:30,16:30:40,2.0.10.248,3,2,1,3,,,,,,,,TrainingProc,BlockList,13,1,Distractor1.bmp,1,0,,0,1,223527,400,,0,0,blue,400,1,400,,vertical,blue,Distractor2.bmp,red,Target1.bmp,cyan,Distractor1.bmp,yellow,Distractor1.bmp,purple,Distractor2.bmp,lime,Distractor1.bmp,,,,TrialProc,3,TrainingTrialList,1,1,-999999,0,223927,0,1,467,224394,Target1.bmp,red,1,,,,8,4,61
KW_Experiment5A,16,1,"<?xml version=""1.0""?>\n<Clock xmlns:dt=""urn:schemas-microsoft-com:datatypes""><Description dt:dt=""string"">E-Prime Primary Realtime Clock</Description><StartTime><Timestamp dt:dt=""int"">0</Timestamp><DateUtc dt:dt=""string"">2018-10-11T20:30:40Z</DateUtc></StartTime><FrequencyChanges><FrequencyChange><Frequency dt:dt=""r8"">3215244</Frequency><Timestamp dt:dt=""r8"">5505293858305</Timestamp><Current dt:dt=""r8"">0</Current><DateUtc dt:dt=""string"">2018-10-11T20:30:40Z</DateUtc></FrequencyChange></FrequencyChanges></Clock>\n",KW_Experiment5A-16-1,59.944,1.0.0.105,2,-853564987,Professional,2.0.10.353,2.0.10.353,10/11/2018,10/11/2018 20:30,16:30:40,2.0.10.248,3,2,1,3,,,,,,,,TrainingProc,BlockList,14,2,Distractor2.bmp,2,0,,0,1,225412,601,,0,0,blue,600,3,600,,horizontal,blue,Distractor1.bmp,lime,Distractor2.bmp,cyan,Distractor1.bmp,red,Target2.bmp,purple,Distractor2.bmp,yellow,Distractor2.bmp,,,,TrialProc,3,TrainingTrialList,1,2,-999999,1,226013,0,2,557,226570,Target2.bmp,red,2,,,,10,4,62
KW_Experiment5A,16,1,"<?xml version=""1.0""?>\n<Clock xmlns:dt=""urn:schemas-microsoft-com:datatypes""><Description dt:dt=""string"">E-Prime Primary Realtime Clock</Description><StartTime><Timestamp dt:dt=""int"">0</Timestamp><DateUtc dt:dt=""string"">2018-10-11T20:30:40Z</DateUtc></StartTime><FrequencyChanges><FrequencyChange><Frequency dt:dt=""r8"">3215244</Frequency><Timestamp dt:dt=""r8"">5505293858305</Timestamp><Current dt:dt=""r8"">0</Current><DateUtc dt:dt=""string"">2018-10-11T20:30:40Z</DateUtc></FrequencyChange></FrequencyChanges></Clock>\n",KW_Experiment5A-16-1,59.944,1.0.0.105,2,-853564987,Professional,2.0.10.353,2.0.10.353,10/11/2018,10/11/2018 20:30,16:30:40,2.0.10.248,3,2,1,3,,,,,,,,TrainingProc,BlockList,15,2,Distractor1.bmp,1,0,,0,1,227581,400,,0,0,blue,400,1,400,,horizontal,blue,Distractor1.bmp,yellow,Distractor2.bmp,purple,Distractor1.bmp,lime,Distractor1.bmp,cyan,Distractor1.bmp,red,Target2.bmp,,,,TrialProc,3,TrainingTrialList,0,2,-999999,0,227981,0,1,581,228562,Target2.bmp,red,2,,,,12,4,63
KW_Experiment5A,16,1,"<?xml version=""1.0""?>\n<Clock xmlns:dt=""urn:schemas-microsoft-com:datatypes""><Description dt:dt=""string"">E-Prime Primary Realtime Clock</Description><StartTime><Timestamp dt:dt=""int"">0</Timestamp><DateUtc dt:dt=""string"">2018-10-11T20:30:40Z</DateUtc></StartTime><FrequencyChanges><FrequencyChange><Frequency dt:dt=""r8"">3215244</Frequency><Timestamp dt:dt=""r8"">5505293858305</Timestamp><Current dt:dt=""r8"">0</Current><DateUtc dt:dt=""string"">2018-10-11T20:30:40Z</DateUtc></FrequencyChange></FrequencyChanges></Clock>\n",KW_Experiment5A-16-1,59.944,1.0.0.105,2,-853564987,Professional,2.0.10.353,2.0.10.353,10/11/2018,10/11/2018 20:30,16:30:40,2.0.10.248,3,2,1,3,,,,,,,,TrainingProc,BlockList,16,2,Distractor2.bmp,2,0,,0,1,229583,500,,0,0,yellow,500,2,500,,horizontal,yellow,Distractor2.bmp,blue,Distractor2.bmp,cyan,Distractor2.bmp,red,Target2.bmp,purple,Distractor2.bmp,lime,Distractor2.bmp,,,,TrialProc,2,TrainingTrialList,1,2,-999999,0,230083,0,2,511,230594,Target2.bmp,red,2,,,,10,4,64
KW_Experiment5A,16,1,"<?xml version=""1.0""?>\n<Clock xmlns:dt=""urn:schemas-microsoft-com:datatypes""><Description dt:dt=""string"">E-Prime Primary Realtime Clock</Description><StartTime><Timestamp dt:dt=""int"">0</Timestamp><DateUtc dt:dt=""string"">2018-10-11T20:30:40Z</DateUtc></StartTime><FrequencyChanges><FrequencyChange><Frequency dt:dt=""r8"">3215244</Frequency><Timestamp dt:dt=""r8"">5505293858305</Timestamp><Current dt:dt=""r8"">0</Current><DateUtc dt:dt=""string"">2018-10-11T20:30:40Z</DateUtc></FrequencyChange></FrequencyChanges></Clock>\n",KW_Experiment5A-16-1,59.944,1.0.0.105,2,-853564987,Professional,2.0.10.353,2.0.10.353,10/11/2018,10/11/2018 20:30,16:30:40,2.0.10.248,3,2,1,3,,,,,,,,TrainingProc,BlockList,17,1,Distractor2.bmp,2,0,,0,1,231618,600,,0,0,cyan,600,3,600,4,vertical,cyan,Distractor1.bmp,red,Distractor1.bmp,yellow,Distractor2.bmp,lime,Target1.bmp,blue,Distractor2.bmp,purple,Distractor1.bmp,,,,TrialProc,,TrainingTrialList,1,1,-999999,0,232218,0,1,632,232850,Target1.bmp,lime,1,,,,4,4,65
KW_Experiment5A,16,1,"<?xml version=""1.0""?>\n<Clock xmlns:dt=""urn:schemas-microsoft-com:datatypes""><Description dt:dt=""string"">E-Prime Primary Realtime Clock</Description><StartTime><Timestamp dt:dt=""int"">0</Timestamp><DateUtc dt:dt=""string"">2018-10-11T20:30:40Z</DateUtc></StartTime><FrequencyChanges><FrequencyChange><Frequency dt:dt=""r8"">3215244</Frequency><Timestamp dt:dt=""r8"">5505293858305</Timestamp><Current dt:dt=""r8"">0</Current><DateUtc dt:dt=""string"">2018-10-11T20:30:40Z</DateUtc></FrequencyChange></FrequencyChanges></Clock>\n",KW_Experiment5A-16-1,59.944,1.0.0.105,2,-853564987,Professional,2.0.10.353,2.0.10.353,10/11/2018,10/11/2018 20:30,16:30:40,2.0.10.248,3,2,1,3,,,,,,,,TrainingProc,BlockList,18,2,Distractor2.bmp,2,0,,0,1,233870,600,,0,0,cyan,600,3,600,,horizontal,cyan,Distractor2.bmp,red,Target2.bmp,purple,Distractor2.bmp,lime,Distractor2.bmp,yellow,Distractor2.bmp,blue,Distractor2.bmp,,,,TrialProc,4,TrainingTrialList,1,2,-999999,0,234470,0,2,452,234922,Target2.bmp,red,2,,,,8,4,66
KW_Experiment5A,16,1,"<?xml version=""1.0""?>\n<Clock xmlns:dt=""urn:schemas-microsoft-com:datatypes""><Description dt:dt=""string"">E-Prime Primary Realtime Clock</Description><StartTime><Timestamp dt:dt=""int"">0</Timestamp><DateUtc dt:dt=""string"">2018-10-11T20:30:40Z</DateUtc></StartTime><FrequencyChanges><FrequencyChange><Frequency dt:dt=""r8"">3215244</Frequency><Timestamp dt:dt=""r8"">5505293858305</Timestamp><Current dt:dt=""r8"">0</Current><DateUtc dt:dt=""string"">2018-10-11T20:30:40Z</DateUtc></FrequencyChange></FrequencyChanges></Clock>\n",KW_Experiment5A-16-1,59.944,1.0.0.105,2,-853564987,Professional,2.0.10.353,2.0.10.353,10/11/2018,10/11/2018 20:30,16:30:40,2.0.10.248,3,2,1,3,,,,,,,,TrainingProc,BlockList,19,1,Distractor1.bmp,1,0,,0,0,235938,601,,0,0,purple,600,3,600,5,vertical,purple,Distractor1.bmp,blue,Distractor1.bmp,yellow,Distractor1.bmp,cyan,Distractor1.bmp,red,Distractor2.bmp,lime,Target1.bmp,,,,TrialProc,,TrainingTrialList,1,1,-999999,1,236539,0,1,615,237154,Target1.bmp,lime,1,,,,6,4,67
KW_Experiment5A,16,1,"<?xml version=""1.0""?>\n<Clock xmlns:dt=""urn:schemas-microsoft-com:datatypes""><Description dt:dt=""string"">E-Prime Primary Realtime Clock</Description><StartTime><Timestamp dt:dt=""int"">0</Timestamp><DateUtc dt:dt=""string"">2018-10-11T20:30:40Z</DateUtc></StartTime><FrequencyChanges><FrequencyChange><Frequency dt:dt=""r8"">3215244</Frequency><Timestamp dt:dt=""r8"">5505293858305</Timestamp><Current dt:dt=""r8"">0</Current><DateUtc dt:dt=""string"">2018-10-11T20:30:40Z</DateUtc></FrequencyChange></FrequencyChanges></Clock>\n",KW_Experiment5A-16-1,59.944,1.0.0.105,2,-853564987,Professional,2.0.10.353,2.0.10.353,10/11/2018,10/11/2018 20:30,16:30:40,2.0.10.248,3,2,1,3,,,,,,,,TrainingProc,BlockList,20,2,Distractor2.bmp,2,0,,0,1,238174,600,,0,0,purple,600,3,600,,horizontal,red,Target2.bmp,lime,Distractor2.bmp,yellow,Distractor2.bmp,blue,Distractor2.bmp,cyan,Distractor1.bmp,purple,Distractor2.bmp,,,,TrialProc,5,TrainingTrialList,1,2,-999999,0,238774,0,2,676,239450,Target2.bmp,red,2,,,,7,4,68
KW_Experiment5A,16,1,"<?xml version=""1.0""?>\n<Clock xmlns:dt=""urn:schemas-microsoft-com:datatypes""><Description dt:dt=""string"">E-Prime Primary Realtime Clock</Description><StartTime><Timestamp dt:dt=""int"">0</Timestamp><DateUtc dt:dt=""string"">2018-10-11T20:30:40Z</DateUtc></StartTime><FrequencyChanges><FrequencyChange><Frequency dt:dt=""r8"">3215244</Frequency><Timestamp dt:dt=""r8"">5505293858305</Timestamp><Current dt:dt=""r8"">0</Current><DateUtc dt:dt=""string"">2018-10-11T20:30:40Z</DateUtc></FrequencyChange></FrequencyChanges></Clock>\n",KW_Experiment5A-16-1,59.944,1.0.0.105,2,-853564987,Professional,2.0.10.353,2.0.10.353,10/11/2018,10/11/2018 20:30,16:30:40,2.0.10.248,3,2,1,3,,,,,,,,TrainingProc,BlockList,21,2,Distractor1.bmp,1,0,,0,1,240476,500,,0,0,purple,500,2,500,,horizontal,purple,Distractor2.bmp,blue,Distractor1.bmp,cyan,Distractor2.bmp,red,Target2.bmp,lime,Distractor1.bmp,yellow,Distractor2.bmp,,,,TrialProc,5,TrainingTrialList,1,2,-999999,0,240976,0,2,490,241466,Target2.bmp,red,2,,,,10,4,69
KW_Experiment5A,16,1,"<?xml version=""1.0""?>\n<Clock xmlns:dt=""urn:schemas-microsoft-com:datatypes""><Description dt:dt=""string"">E-Prime Primary Realtime Clock</Description><StartTime><Timestamp dt:dt=""int"">0</Timestamp><DateUtc dt:dt=""string"">2018-10-11T20:30:40Z</DateUtc></StartTime><FrequencyChanges><FrequencyChange><Frequency dt:dt=""r8"">3215244</Frequency><Timestamp dt:dt=""r8"">5505293858305</Timestamp><Current dt:dt=""r8"">0</Current><DateUtc dt:dt=""string"">2018-10-11T20:30:40Z</DateUtc></FrequencyChange></FrequencyChanges></Clock>\n",KW_Experiment5A-16-1,59.944,1.0.0.105,2,-853564987,Professional,2.0.10.353,2.0.10.353,10/11/2018,10/11/2018 20:30,16:30:40,2.0.10.248,3,2,1,3,,,,,,,,TrainingProc,BlockList,22,1,Distractor2.bmp,2,0,,0,1,242478,400,,0,0,lime,400,1,400,,vertical,lime,Distractor1.bmp,blue,Distractor2.bmp,red,Target1.bmp,yellow,Distractor2.bmp,cyan,Distractor2.bmp,purple,Distractor1.bmp,,,,TrialProc,6,TrainingTrialList,0,1,-999999,0,242878,0,2,596,243474,Target1.bmp,red,1,,,,9,4,70
KW_Experiment5A,16,1,"<?xml version=""1.0""?>\n<Clock xmlns:dt=""urn:schemas-microsoft-com:datatypes""><Description dt:dt=""string"">E-Prime Primary Realtime Clock</Description><StartTime><Timestamp dt:dt=""int"">0</Timestamp><DateUtc dt:dt=""string"">2018-10-11T20:30:40Z</DateUtc></StartTime><FrequencyChanges><FrequencyChange><Frequency dt:dt=""r8"">3215244</Frequency><Timestamp dt:dt=""r8"">5505293858305</Timestamp><Current dt:dt=""r8"">0</Current><DateUtc dt:dt=""string"">2018-10-11T20:30:40Z</DateUtc></FrequencyChange></FrequencyChanges></Clock>\n",KW_Experiment5A-16-1,59.944,1.0.0.105,2,-853564987,Professional,2.0.10.353,2.0.10.353,10/11/2018,10/11/2018 20:30,16:30:40,2.0.10.248,3,2,1,3,,,,,,,,TrainingProc,BlockList,23,2,Distractor2.bmp,2,0,,0,1,244496,601,,0,0,yellow,600,3,600,,horizontal,red,Target2.bmp,purple,Distractor2.bmp,cyan,Distractor2.bmp,blue,Distractor2.bmp,lime,Distractor1.bmp,yellow,Distractor2.bmp,,,,TrialProc,2,TrainingTrialList,0,2,-999999,1,245097,0,1,657,245754,Target2.bmp,red,2,,,,7,4,71
KW_Experiment5A,16,1,"<?xml version=""1.0""?>\n<Clock xmlns:dt=""urn:schemas-microsoft-com:datatypes""><Description dt:dt=""string"">E-Prime Primary Realtime Clock</Description><StartTime><Timestamp dt:dt=""int"">0</Timestamp><DateUtc dt:dt=""string"">2018-10-11T20:30:40Z</DateUtc></StartTime><FrequencyChanges><FrequencyChange><Frequency dt:dt=""r8"">3215244</Frequency><Timestamp dt:dt=""r8"">5505293858305</Timestamp><Current dt:dt=""r8"">0</Current><DateUtc dt:dt=""string"">2018-10-11T20:30:40Z</DateUtc></FrequencyChange></FrequencyChanges></Clock>\n",KW_Experiment5A-16-1,59.944,1.0.0.105,2,-853564987,Professional,2.0.10.353,2.0.10.353,10/11/2018,10/11/2018 20:30,16:30:40,2.0.10.248,3,2,1,3,,,,,,,,TrainingProc,BlockList,24,1,Distractor2.bmp,2,0,,0,1,246765,501,,0,0,cyan,500,2,500,,vertical,red,Target1.bmp,purple,Distractor2.bmp,blue,Distractor1.bmp,yellow,Distractor1.bmp,lime,Distractor2.bmp,cyan,Distractor2.bmp,,,,TrialProc,4,TrainingTrialList,1,1,-999999,1,247266,0,1,448,247714,Target1.bmp,red,1,,,,7,4,72
KW_Experiment5A,16,1,"<?xml version=""1.0""?>\n<Clock xmlns:dt=""urn:schemas-microsoft-com:datatypes""><Description dt:dt=""string"">E-Prime Primary Realtime Clock</Description><StartTime><Timestamp dt:dt=""int"">0</Timestamp><DateUtc dt:dt=""string"">2018-10-11T20:30:40Z</DateUtc></StartTime><FrequencyChanges><FrequencyChange><Frequency dt:dt=""r8"">3215244</Frequency><Timestamp dt:dt=""r8"">5505293858305</Timestamp><Current dt:dt=""r8"">0</Current><DateUtc dt:dt=""string"">2018-10-11T20:30:40Z</DateUtc></FrequencyChange></FrequencyChanges></Clock>\n",KW_Experiment5A-16-1,59.944,1.0.0.105,2,-853564987,Professional,2.0.10.353,2.0.10.353,10/11/2018,10/11/2018 20:30,16:30:40,2.0.10.248,3,2,1,3,,,,,,,,TrainingProc,BlockList,25,2,Distractor1.bmp,1,0,,0,1,248734,600,,0,0,purple,600,3,600,,horizontal,purple,Distractor2.bmp,lime,Distractor2.bmp,red,Target2.bmp,blue,Distractor1.bmp,yellow,Distractor1.bmp,cyan,Distractor2.bmp,,,,TrialProc,5,TrainingTrialList,1,2,-999999,0,249334,0,2,868,250202,Target2.bmp,red,2,,,,9,5,73
KW_Experiment5A,16,1,"<?xml version=""1.0""?>\n<Clock xmlns:dt=""urn:schemas-microsoft-com:datatypes""><Description dt:dt=""string"">E-Prime Primary Realtime Clock</Description><StartTime><Timestamp dt:dt=""int"">0</Timestamp><DateUtc dt:dt=""string"">2018-10-11T20:30:40Z</DateUtc></StartTime><FrequencyChanges><FrequencyChange><Frequency dt:dt=""r8"">3215244</Frequency><Timestamp dt:dt=""r8"">5505293858305</Timestamp><Current dt:dt=""r8"">0</Current><DateUtc dt:dt=""string"">2018-10-11T20:30:40Z</DateUtc></FrequencyChange></FrequencyChanges></Clock>\n",KW_Experiment5A-16-1,59.944,1.0.0.105,2,-853564987,Professional,2.0.10.353,2.0.10.353,10/11/2018,10/11/2018 20:30,16:30:40,2.0.10.248,3,2,1,3,,,,,,,,TrainingProc,BlockList,26,2,Distractor1.bmp,1,0,,0,1,251219,401,,0,0,cyan,400,1,400,,horizontal,cyan,Distractor2.bmp,blue,Distractor2.bmp,red,Target2.bmp,purple,Distractor1.bmp,yellow,Distractor2.bmp,lime,Distractor1.bmp,,,,TrialProc,4,TrainingTrialList,1,2,-999999,1,251620,0,2,478,252098,Target2.bmp,red,2,,,,9,5,74
KW_Experiment5A,16,1,"<?xml version=""1.0""?>\n<Clock xmlns:dt=""urn:schemas-microsoft-com:datatypes""><Description dt:dt=""string"">E-Prime Primary Realtime Clock</Description><StartTime><Timestamp dt:dt=""int"">0</Timestamp><DateUtc dt:dt=""string"">2018-10-11T20:30:40Z</DateUtc></StartTime><FrequencyChanges><FrequencyChange><Frequency dt:dt=""r8"">3215244</Frequency><Timestamp dt:dt=""r8"">5505293858305</Timestamp><Current dt:dt=""r8"">0</Current><DateUtc dt:dt=""string"">2018-10-11T20:30:40Z</DateUtc></FrequencyChange></FrequencyChanges></Clock>\n",KW_Experiment5A-16-1,59.944,1.0.0.105,2,-853564987,Professional,2.0.10.353,2.0.10.353,10/11/2018,10/11/2018 20:30,16:30:40,2.0.10.248,3,2,1,3,,,,,,,,TrainingProc,BlockList,27,1,Distractor1.bmp,1,0,,0,1,253121,600,,0,0,purple,600,3,600,,vertical,purple,Distractor2.bmp,lime,Distractor1.bmp,blue,Distractor2.bmp,yellow,Distractor1.bmp,red,Target1.bmp,cyan,Distractor1.bmp,,,,TrialProc,5,TrainingTrialList,1,1,-999999,0,253721,0,1,449,254170,Target1.bmp,red,1,,,,11,5,75
KW_Experiment5A,16,1,"<?xml version=""1.0""?>\n<Clock xmlns:dt=""urn:schemas-microsoft-com:datatypes""><Description dt:dt=""string"">E-Prime Primary Realtime Clock</Description><StartTime><Timestamp dt:dt=""int"">0</Timestamp><DateUtc dt:dt=""string"">2018-10-11T20:30:40Z</DateUtc></StartTime><FrequencyChanges><FrequencyChange><Frequency dt:dt=""r8"">3215244</Frequency><Timestamp dt:dt=""r8"">5505293858305</Timestamp><Current dt:dt=""r8"">0</Current><DateUtc dt:dt=""string"">2018-10-11T20:30:40Z</DateUtc></FrequencyChange></FrequencyChanges></Clock>\n",KW_Experiment5A-16-1,59.944,1.0.0.105,2,-853564987,Professional,2.0.10.353,2.0.10.353,10/11/2018,10/11/2018 20:30,16:30:40,2.0.10.248,3,2,1,3,,,,,,,,TrainingProc,BlockList,28,2,Distractor2.bmp,2,0,,1,0,255189,601,,0,0,yellow,600,3,600,,horizontal,yellow,Distractor1.bmp,purple,Distractor1.bmp,cyan,Distractor1.bmp,blue,Distractor1.bmp,red,Target2.bmp,lime,Distractor2.bmp,,,,TrialProc,2,TrainingTrialList,0,2,-999999,1,255790,0,1,420,256210,Target2.bmp,red,2,,,,11,5,76
KW_Experiment5A,16,1,"<?xml version=""1.0""?>\n<Clock xmlns:dt=""urn:schemas-microsoft-com:datatypes""><Description dt:dt=""string"">E-Prime Primary Realtime Clock</Description><StartTime><Timestamp dt:dt=""int"">0</Timestamp><DateUtc dt:dt=""string"">2018-10-11T20:30:40Z</DateUtc></StartTime><FrequencyChanges><FrequencyChange><Frequency dt:dt=""r8"">3215244</Frequency><Timestamp dt:dt=""r8"">5505293858305</Timestamp><Current dt:dt=""r8"">0</Current><DateUtc dt:dt=""string"">2018-10-11T20:30:40Z</DateUtc></FrequencyChange></FrequencyChanges></Clock>\n",KW_Experiment5A-16-1,59.944,1.0.0.105,2,-853564987,Professional,2.0.10.353,2.0.10.353,10/11/2018,10/11/2018 20:30,16:30:40,2.0.10.248,3,2,1,3,,,,,,,,TrainingProc,BlockList,29,2,Distractor2.bmp,2,0,,0,1,257225,600,,0,0,lime,600,3,600,,horizontal,lime,Distractor1.bmp,red,Target2.bmp,cyan,Distractor2.bmp,blue,Distractor1.bmp,purple,Distractor2.bmp,yellow,Distractor2.bmp,,,,TrialProc,6,TrainingTrialList,1,2,-999999,0,257825,0,2,521,258346,Target2.bmp,red,2,,,,8,5,77
KW_Experiment5A,16,1,"<?xml version=""1.0""?>\n<Clock xmlns:dt=""urn:schemas-microsoft-com:datatypes""><Description dt:dt=""string"">E-Prime Primary Realtime Clock</Description><StartTime><Timestamp dt:dt=""int"">0</Timestamp><DateUtc dt:dt=""string"">2018-10-11T20:30:40Z</DateUtc></StartTime><FrequencyChanges><FrequencyChange><Frequency dt:dt=""r8"">3215244</Frequency><Timestamp dt:dt=""r8"">5505293858305</Timestamp><Current dt:dt=""r8"">0</Current><DateUtc dt:dt=""string"">2018-10-11T20:30:40Z</DateUtc></FrequencyChange></FrequencyChanges></Clock>\n",KW_Experiment5A-16-1,59.944,1.0.0.105,2,-853564987,Professional,2.0.10.353,2.0.10.353,10/11/2018,10/11/2018 20:30,16:30:40,2.0.10.248,3,2,1,3,,,,,,,,TrainingProc,BlockList,30,2,Distractor1.bmp,1,0,,0,1,259360,400,,0,0,red,400,1,400,1,horizontal,red,Distractor2.bmp,cyan,Distractor2.bmp,lime,Target2.bmp,blue,Distractor1.bmp,purple,Distractor1.bmp,yellow,Distractor2.bmp,,,,TrialProc,,TrainingTrialList,1,2,-999999,0,259760,0,2,482,260242,Target2.bmp,lime,2,,,,3,5,78
KW_Experiment5A,16,1,"<?xml version=""1.0""?>\n<Clock xmlns:dt=""urn:schemas-microsoft-com:datatypes""><Description dt:dt=""string"">E-Prime Primary Realtime Clock</Description><StartTime><Timestamp dt:dt=""int"">0</Timestamp><DateUtc dt:dt=""string"">2018-10-11T20:30:40Z</DateUtc></StartTime><FrequencyChanges><FrequencyChange><Frequency dt:dt=""r8"">3215244</Frequency><Timestamp dt:dt=""r8"">5505293858305</Timestamp><Current dt:dt=""r8"">0</Current><DateUtc dt:dt=""string"">2018-10-11T20:30:40Z</DateUtc></FrequencyChange></FrequencyChanges></Clock>\n",KW_Experiment5A-16-1,59.944,1.0.0.105,2,-853564987,Professional,2.0.10.353,2.0.10.353,10/11/2018,10/11/2018 20:30,16:30:40,2.0.10.248,3,2,1,3,,,,,,,,TrainingProc,BlockList,31,2,Distractor2.bmp,2,0,,0,1,261262,500,,0,0,blue,500,2,500,,horizontal,blue,Distractor2.bmp,lime,Distractor2.bmp,cyan,Distractor1.bmp,purple,Distractor1.bmp,yellow,Distractor2.bmp,red,Target2.bmp,,,,TrialProc,3,TrainingTrialList,0,2,-999999,0,261762,0,1,656,262418,Target2.bmp,red,2,,,,12,5,79
KW_Experiment5A,16,1,"<?xml version=""1.0""?>\n<Clock xmlns:dt=""urn:schemas-microsoft-com:datatypes""><Description dt:dt=""string"">E-Prime Primary Realtime Clock</Description><StartTime><Timestamp dt:dt=""int"">0</Timestamp><DateUtc dt:dt=""string"">2018-10-11T20:30:40Z</DateUtc></StartTime><FrequencyChanges><FrequencyChange><Frequency dt:dt=""r8"">3215244</Frequency><Timestamp dt:dt=""r8"">5505293858305</Timestamp><Current dt:dt=""r8"">0</Current><DateUtc dt:dt=""string"">2018-10-11T20:30:40Z</DateUtc></FrequencyChange></FrequencyChanges></Clock>\n",KW_Experiment5A-16-1,59.944,1.0.0.105,2,-853564987,Professional,2.0.10.353,2.0.10.353,10/11/2018,10/11/2018 20:30,16:30:40,2.0.10.248,3,2,1,3,,,,,,,,TrainingProc,BlockList,32,2,Distractor2.bmp,2,0,,1,1,263430,601,,0,0,blue,600,3,600,,horizontal,blue,Distractor1.bmp,yellow,Distractor2.bmp,cyan,Distractor1.bmp,red,Target2.bmp,lime,Distractor2.bmp,purple,Distractor2.bmp,,,,TrialProc,3,TrainingTrialList,1,2,-999999,1,264031,0,2,859,264890,Target2.bmp,red,2,,,,10,5,80
KW_Experiment5A,16,1,"<?xml version=""1.0""?>\n<Clock xmlns:dt=""urn:schemas-microsoft-com:datatypes""><Description dt:dt=""string"">E-Prime Primary Realtime Clock</Description><StartTime><Timestamp dt:dt=""int"">0</Timestamp><DateUtc dt:dt=""string"">2018-10-11T20:30:40Z</DateUtc></StartTime><FrequencyChanges><FrequencyChange><Frequency dt:dt=""r8"">3215244</Frequency><Timestamp dt:dt=""r8"">5505293858305</Timestamp><Current dt:dt=""r8"">0</Current><DateUtc dt:dt=""string"">2018-10-11T20:30:40Z</DateUtc></FrequencyChange></FrequencyChanges></Clock>\n",KW_Experiment5A-16-1,59.944,1.0.0.105,2,-853564987,Professional,2.0.10.353,2.0.10.353,10/11/2018,10/11/2018 20:30,16:30:40,2.0.10.248,3,2,1,3,,,,,,,,TrainingProc,BlockList,33,1,Distractor2.bmp,2,0,,0,1,265916,601,,0,0,cyan,600,3,600,,vertical,red,Target1.bmp,purple,Distractor2.bmp,blue,Distractor1.bmp,lime,Distractor2.bmp,yellow,Distractor2.bmp,cyan,Distractor1.bmp,,,,TrialProc,4,TrainingTrialList,1,1,-999999,1,266517,0,1,509,267026,Target1.bmp,red,1,,,,7,5,81
KW_Experiment5A,16,1,"<?xml version=""1.0""?>\n<Clock xmlns:dt=""urn:schemas-microsoft-com:datatypes""><Description dt:dt=""string"">E-Prime Primary Realtime Clock</Description><StartTime><Timestamp dt:dt=""int"">0</Timestamp><DateUtc dt:dt=""string"">2018-10-11T20:30:40Z</DateUtc></StartTime><FrequencyChanges><FrequencyChange><Frequency dt:dt=""r8"">3215244</Frequency><Timestamp dt:dt=""r8"">5505293858305</Timestamp><Current dt:dt=""r8"">0</Current><DateUtc dt:dt=""string"">2018-10-11T20:30:40Z</DateUtc></FrequencyChange></FrequencyChanges></Clock>\n",KW_Experiment5A-16-1,59.944,1.0.0.105,2,-853564987,Professional,2.0.10.353,2.0.10.353,10/11/2018,10/11/2018 20:30,16:30:40,2.0.10.248,3,2,1,3,,,,,,,,TrainingProc,BlockList,34,1,Distractor1.bmp,1,0,,0,1,268051,601,,0,0,purple,600,3,600,,vertical,purple,Distractor2.bmp,red,Target1.bmp,yellow,Distractor1.bmp,cyan,Distractor1.bmp,lime,Distractor2.bmp,blue,Distractor2.bmp,,,,TrialProc,5,TrainingTrialList,1,1,-999999,1,268652,0,1,518,269170,Target1.bmp,red,1,,,,8,5,82
KW_Experiment5A,16,1,"<?xml version=""1.0""?>\n<Clock xmlns:dt=""urn:schemas-microsoft-com:datatypes""><Description dt:dt=""string"">E-Prime Primary Realtime Clock</Description><StartTime><Timestamp dt:dt=""int"">0</Timestamp><DateUtc dt:dt=""string"">2018-10-11T20:30:40Z</DateUtc></StartTime><FrequencyChanges><FrequencyChange><Frequency dt:dt=""r8"">3215244</Frequency><Timestamp dt:dt=""r8"">5505293858305</Timestamp><Current dt:dt=""r8"">0</Current><DateUtc dt:dt=""string"">2018-10-11T20:30:40Z</DateUtc></FrequencyChange></FrequencyChanges></Clock>\n",KW_Experiment5A-16-1,59.944,1.0.0.105,2,-853564987,Professional,2.0.10.353,2.0.10.353,10/11/2018,10/11/2018 20:30,16:30:40,2.0.10.248,3,2,1,3,,,,,,,,TrainingProc,BlockList,35,1,Distractor2.bmp,2,0,,0,1,270187,400,,0,0,purple,400,1,400,,vertical,purple,Distractor1.bmp,blue,Distractor2.bmp,yellow,Distractor1.bmp,cyan,Distractor2.bmp,red,Target1.bmp,lime,Distractor2.bmp,,,,TrialProc,5,TrainingTrialList,1,1,-999999,0,270587,0,1,615,271202,Target1.bmp,red,1,,,,11,5,83
KW_Experiment5A,16,1,"<?xml version=""1.0""?>\n<Clock xmlns:dt=""urn:schemas-microsoft-com:datatypes""><Description dt:dt=""string"">E-Prime Primary Realtime Clock</Description><StartTime><Timestamp dt:dt=""int"">0</Timestamp><DateUtc dt:dt=""string"">2018-10-11T20:30:40Z</DateUtc></StartTime><FrequencyChanges><FrequencyChange><Frequency dt:dt=""r8"">3215244</Frequency><Timestamp dt:dt=""r8"">5505293858305</Timestamp><Current dt:dt=""r8"">0</Current><DateUtc dt:dt=""string"">2018-10-11T20:30:40Z</DateUtc></FrequencyChange></FrequencyChanges></Clock>\n",KW_Experiment5A-16-1,59.944,1.0.0.105,2,-853564987,Professional,2.0.10.353,2.0.10.353,10/11/2018,10/11/2018 20:30,16:30:40,2.0.10.248,3,2,1,3,,,,,,,,TrainingProc,BlockList,36,1,Distractor1.bmp,1,0,,0,1,272222,600,,0,0,cyan,600,3,600,4,vertical,cyan,Distractor1.bmp,blue,Distractor1.bmp,red,Distractor2.bmp,purple,Distractor2.bmp,yellow,Distractor1.bmp,lime,Target1.bmp,,,,TrialProc,,TrainingTrialList,1,1,-999999,0,272822,0,1,844,273666,Target1.bmp,lime,1,,,,6,5,84
KW_Experiment5A,16,1,"<?xml version=""1.0""?>\n<Clock xmlns:dt=""urn:schemas-microsoft-com:datatypes""><Description dt:dt=""string"">E-Prime Primary Realtime Clock</Description><StartTime><Timestamp dt:dt=""int"">0</Timestamp><DateUtc dt:dt=""string"">2018-10-11T20:30:40Z</DateUtc></StartTime><FrequencyChanges><FrequencyChange><Frequency dt:dt=""r8"">3215244</Frequency><Timestamp dt:dt=""r8"">5505293858305</Timestamp><Current dt:dt=""r8"">0</Current><DateUtc dt:dt=""string"">2018-10-11T20:30:40Z</DateUtc></FrequencyChange></FrequencyChanges></Clock>\n",KW_Experiment5A-16-1,59.944,1.0.0.105,2,-853564987,Professional,2.0.10.353,2.0.10.353,10/11/2018,10/11/2018 20:30,16:30:40,2.0.10.248,3,2,1,3,,,,,,,,TrainingProc,BlockList,37,2,Distractor1.bmp,1,0,,0,1,274691,500,,0,0,lime,500,2,500,,horizontal,red,Target2.bmp,cyan,Distractor1.bmp,yellow,Distractor1.bmp,purple,Distractor1.bmp,blue,Distractor2.bmp,lime,Distractor2.bmp,,,,TrialProc,6,TrainingTrialList,1,2,-999999,0,275191,0,2,683,275874,Target2.bmp,red,2,,,,7,5,85
KW_Experiment5A,16,1,"<?xml version=""1.0""?>\n<Clock xmlns:dt=""urn:schemas-microsoft-com:datatypes""><Description dt:dt=""string"">E-Prime Primary Realtime Clock</Description><StartTime><Timestamp dt:dt=""int"">0</Timestamp><DateUtc dt:dt=""string"">2018-10-11T20:30:40Z</DateUtc></StartTime><FrequencyChanges><FrequencyChange><Frequency dt:dt=""r8"">3215244</Frequency><Timestamp dt:dt=""r8"">5505293858305</Timestamp><Current dt:dt=""r8"">0</Current><DateUtc dt:dt=""string"">2018-10-11T20:30:40Z</DateUtc></FrequencyChange></FrequencyChanges></Clock>\n",KW_Experiment5A-16-1,59.944,1.0.0.105,2,-853564987,Professional,2.0.10.353,2.0.10.353,10/11/2018,10/11/2018 20:30,16:30:40,2.0.10.248,3,2,1,3,,,,,,,,TrainingProc,BlockList,38,2,Distractor2.bmp,2,0,,0,1,276893,500,,0,0,purple,500,2,500,,horizontal,purple,Distractor1.bmp,yellow,Distractor1.bmp,cyan,Distractor2.bmp,red,Target2.bmp,lime,Distractor2.bmp,blue,Distractor2.bmp,,,,TrialProc,5,TrainingTrialList,1,2,-999999,0,277393,0,2,609,278002,Target2.bmp,red,2,,,,10,5,86
KW_Experiment5A,16,1,"<?xml version=""1.0""?>\n<Clock xmlns:dt=""urn:schemas-microsoft-com:datatypes""><Description dt:dt=""string"">E-Prime Primary Realtime Clock</Description><StartTime><Timestamp dt:dt=""int"">0</Timestamp><DateUtc dt:dt=""string"">2018-10-11T20:30:40Z</DateUtc></StartTime><FrequencyChanges><FrequencyChange><Frequency dt:dt=""r8"">3215244</Frequency><Timestamp dt:dt=""r8"">5505293858305</Timestamp><Current dt:dt=""r8"">0</Current><DateUtc dt:dt=""string"">2018-10-11T20:30:40Z</DateUtc></FrequencyChange></FrequencyChanges></Clock>\n",KW_Experiment5A-16-1,59.944,1.0.0.105,2,-853564987,Professional,2.0.10.353,2.0.10.353,10/11/2018,10/11/2018 20:30,16:30:40,2.0.10.248,3,2,1,3,,,,,,,,TrainingProc,BlockList,39,1,Distractor1.bmp,1,0,,1,0,279011,601,,0,0,lime,600,3,600,,vertical,lime,Distractor1.bmp,blue,Distractor1.bmp,red,Target1.bmp,purple,Distractor1.bmp,yellow,Distractor2.bmp,cyan,Distractor1.bmp,,,,TrialProc,6,TrainingTrialList,1,1,-999999,1,279612,0,1,814,280426,Target1.bmp,red,1,,,,9,5,87
KW_Experiment5A,16,1,"<?xml version=""1.0""?>\n<Clock xmlns:dt=""urn:schemas-microsoft-com:datatypes""><Description dt:dt=""string"">E-Prime Primary Realtime Clock</Description><StartTime><Timestamp dt:dt=""int"">0</Timestamp><DateUtc dt:dt=""string"">2018-10-11T20:30:40Z</DateUtc></StartTime><FrequencyChanges><FrequencyChange><Frequency dt:dt=""r8"">3215244</Frequency><Timestamp dt:dt=""r8"">5505293858305</Timestamp><Current dt:dt=""r8"">0</Current><DateUtc dt:dt=""string"">2018-10-11T20:30:40Z</DateUtc></FrequencyChange></FrequencyChanges></Clock>\n",KW_Experiment5A-16-1,59.944,1.0.0.105,2,-853564987,Professional,2.0.10.353,2.0.10.353,10/11/2018,10/11/2018 20:30,16:30:40,2.0.10.248,3,2,1,3,,,,,,,,TrainingProc,BlockList,40,1,Distractor1.bmp,1,0,,0,1,281447,501,,0,0,yellow,500,2,500,,vertical,yellow,Distractor1.bmp,cyan,Distractor2.bmp,blue,Distractor1.bmp,purple,Distractor2.bmp,lime,Distractor2.bmp,red,Target1.bmp,,,,TrialProc,2,TrainingTrialList,1,1,-999999,1,281948,0,1,518,282466,Target1.bmp,red,1,,,,12,5,88
KW_Experiment5A,16,1,"<?xml version=""1.0""?>\n<Clock xmlns:dt=""urn:schemas-microsoft-com:datatypes""><Description dt:dt=""string"">E-Prime Primary Realtime Clock</Description><StartTime><Timestamp dt:dt=""int"">0</Timestamp><DateUtc dt:dt=""string"">2018-10-11T20:30:40Z</DateUtc></StartTime><FrequencyChanges><FrequencyChange><Frequency dt:dt=""r8"">3215244</Frequency><Timestamp dt:dt=""r8"">5505293858305</Timestamp><Current dt:dt=""r8"">0</Current><DateUtc dt:dt=""string"">2018-10-11T20:30:40Z</DateUtc></FrequencyChange></FrequencyChanges></Clock>\n",KW_Experiment5A-16-1,59.944,1.0.0.105,2,-853564987,Professional,2.0.10.353,2.0.10.353,10/11/2018,10/11/2018 20:30,16:30:40,2.0.10.248,3,2,1,3,,,,,,,,TrainingProc,BlockList,41,2,Distractor2.bmp,2,0,,0,1,283482,501,,0,0,red,500,2,500,1,horizontal,red,Distractor2.bmp,lime,Target2.bmp,purple,Distractor2.bmp,blue,Distractor2.bmp,yellow,Distractor2.bmp,cyan,Distractor2.bmp,,,,TrialProc,,TrainingTrialList,1,2,-999999,1,283983,0,2,555,284538,Target2.bmp,lime,2,,,,2,5,89
KW_Experiment5A,16,1,"<?xml version=""1.0""?>\n<Clock xmlns:dt=""urn:schemas-microsoft-com:datatypes""><Description dt:dt=""string"">E-Prime Primary Realtime Clock</Description><StartTime><Timestamp dt:dt=""int"">0</Timestamp><DateUtc dt:dt=""string"">2018-10-11T20:30:40Z</DateUtc></StartTime><FrequencyChanges><FrequencyChange><Frequency dt:dt=""r8"">3215244</Frequency><Timestamp dt:dt=""r8"">5505293858305</Timestamp><Current dt:dt=""r8"">0</Current><DateUtc dt:dt=""string"">2018-10-11T20:30:40Z</DateUtc></FrequencyChange></FrequencyChanges></Clock>\n",KW_Experiment5A-16-1,59.944,1.0.0.105,2,-853564987,Professional,2.0.10.353,2.0.10.353,10/11/2018,10/11/2018 20:30,16:30:40,2.0.10.248,3,2,1,3,,,,,,,,TrainingProc,BlockList,42,2,Distractor1.bmp,1,0,,0,1,285551,500,,0,0,cyan,500,2,500,,horizontal,red,Target2.bmp,purple,Distractor1.bmp,yellow,Distractor2.bmp,blue,Distractor1.bmp,lime,Distractor1.bmp,cyan,Distractor1.bmp,,,,TrialProc,4,TrainingTrialList,1,2,-999999,0,286051,0,2,775,286826,Target2.bmp,red,2,,,,7,5,90
