ExperimentName,Subject,Session,Clock.Information,DataFile.Basename,Display.RefreshRate,ExperimentVersion,Group,RandomSeed,RuntimeCapabilities,RuntimeVersion,RuntimeVersionExpected,SessionDate,SessionStartDateTimeUtc,SessionTime,StudioVersion,Block,BlockList,BlockList.Cycle,BlockList.Sample,PostTestQ1.RESP,PostTestQ1CJ.RESP,PostTestQ2.RESP,PostTestQ2CJ.RESP,PostTestQ3.RESP,PostTestQ3CJ.RESP,PostTestSlide.RESP,Procedure[Block],Running[Block],Trial,CorrectResponse,Distractor,DistractorList,Fixation.ACC,Fixation.CRESP,Fixation.DurationError,Fixation.OnsetDelay,Fixation.OnsetTime,Fixation.OnsetToOnsetTime,Fixation.RESP,Fixation.RT,Fixation.RTTime,ItemColor,Jitter,JitterList,JitterTime,Lime0List,Orientation,Pos1Color,Pos1Item,Pos2Color,Pos2Item,Pos3Color,Pos3Item,Pos4Color,Pos4Item,Pos5Color,Pos5Item,Pos6Color,Pos6Item,PracticeTrialList,PracticeTrialList.Cycle,PracticeTrialList.Sample,Procedure[Trial],Red0List,Running[Trial],Stimulus.ACC,Stimulus.CRESP,Stimulus.DurationError,Stimulus.OnsetDelay,Stimulus.OnsetTime,Stimulus.OnsetToOnsetTime,Stimulus.RESP,Stimulus.RT,Stimulus.RTTime,Target,TargetColor,TargetList,TestTrialList,TestTrialList.Cycle,TestTrialList.Sample,TrainingTrialList,TrainingTrialList.Cycle,TrainingTrialList.Sample
KW_Experiment5A,20,1,"<?xml version=""1.0""?>\n<Clock xmlns:dt=""urn:schemas-microsoft-com:datatypes""><Description dt:dt=""string"">E-Prime Primary Realtime Clock</Description><StartTime><Timestamp dt:dt=""int"">0</Timestamp><DateUtc dt:dt=""string"">2018-10-15T16:23:20Z</DateUtc></StartTime><FrequencyChanges><FrequencyChange><Frequency dt:dt=""r8"">3215244</Frequency><Timestamp dt:dt=""r8"">6568749424949</Timestamp><Current dt:dt=""r8"">0</Current><DateUtc dt:dt=""string"">2018-10-15T16:23:20Z</DateUtc></FrequencyChange></FrequencyChanges></Clock>\n",KW_Experiment5A-20-1,59.947,1.0.0.105,2,1745082179,Professional,2.0.10.353,2.0.10.353,10/15/2018,10/15/2018 16:23,12:23:20,2.0.10.248,1,1,1,1,,,,,,,,PracticeProc,BlockList,1,1,Distractor2.bmp,2,0,,0,31,2741155,400,,0,0,yellow,400,1,400,,vertical,lime,Distractor2.bmp,purple,Distractor1.bmp,blue,Distractor2.bmp,cyan,Distractor1.bmp,yellow,Distractor1.bmp,red,Target1.bmp,6,1,1,TrialProc,2,PracticeTrialList,1,1,-999999,0,2741555,0,1,2249,2743804,Target1.bmp,red,1,,,,,,
KW_Experiment5A,20,1,"<?xml version=""1.0""?>\n<Clock xmlns:dt=""urn:schemas-microsoft-com:datatypes""><Description dt:dt=""string"">E-Prime Primary Realtime Clock</Description><StartTime><Timestamp dt:dt=""int"">0</Timestamp><DateUtc dt:dt=""string"">2018-10-15T16:23:20Z</DateUtc></StartTime><FrequencyChanges><FrequencyChange><Frequency dt:dt=""r8"">3215244</Frequency><Timestamp dt:dt=""r8"">6568749424949</Timestamp><Current dt:dt=""r8"">0</Current><DateUtc dt:dt=""string"">2018-10-15T16:23:20Z</DateUtc></FrequencyChange></FrequencyChanges></Clock>\n",KW_Experiment5A-20-1,59.947,1.0.0.105,2,1745082179,Professional,2.0.10.353,2.0.10.353,10/15/2018,10/15/2018 16:23,12:23:20,2.0.10.248,1,1,1,1,,,,,,,,PracticeProc,BlockList,2,2,Distractor2.bmp,2,0,,0,1,2744825,500,,0,0,blue,500,2,500,3,horizontal,cyan,Distractor2.bmp,red,Distractor2.bmp,yellow,Distractor1.bmp,blue,Distractor2.bmp,lime,Target2.bmp,purple,Distractor2.bmp,5,1,2,TrialProc,,PracticeTrialList,1,2,-999999,0,2745325,0,2,2159,2747484,Target2.bmp,lime,2,,,,,,
KW_Experiment5A,20,1,"<?xml version=""1.0""?>\n<Clock xmlns:dt=""urn:schemas-microsoft-com:datatypes""><Description dt:dt=""string"">E-Prime Primary Realtime Clock</Description><StartTime><Timestamp dt:dt=""int"">0</Timestamp><DateUtc dt:dt=""string"">2018-10-15T16:23:20Z</DateUtc></StartTime><FrequencyChanges><FrequencyChange><Frequency dt:dt=""r8"">3215244</Frequency><Timestamp dt:dt=""r8"">6568749424949</Timestamp><Current dt:dt=""r8"">0</Current><DateUtc dt:dt=""string"">2018-10-15T16:23:20Z</DateUtc></FrequencyChange></FrequencyChanges></Clock>\n",KW_Experiment5A-20-1,59.947,1.0.0.105,2,1745082179,Professional,2.0.10.353,2.0.10.353,10/15/2018,10/15/2018 16:23,12:23:20,2.0.10.248,1,1,1,1,,,,,,,,PracticeProc,BlockList,3,1,Distractor1.bmp,1,0,,0,1,2748495,500,,0,0,blue,500,2,500,,vertical,cyan,Distractor2.bmp,purple,Distractor2.bmp,blue,Distractor2.bmp,red,Target1.bmp,yellow,Distractor1.bmp,lime,Distractor2.bmp,4,1,3,TrialProc,3,PracticeTrialList,1,1,-999999,0,2748995,0,1,1209,2750204,Target1.bmp,red,1,,,,,,
KW_Experiment5A,20,1,"<?xml version=""1.0""?>\n<Clock xmlns:dt=""urn:schemas-microsoft-com:datatypes""><Description dt:dt=""string"">E-Prime Primary Realtime Clock</Description><StartTime><Timestamp dt:dt=""int"">0</Timestamp><DateUtc dt:dt=""string"">2018-10-15T16:23:20Z</DateUtc></StartTime><FrequencyChanges><FrequencyChange><Frequency dt:dt=""r8"">3215244</Frequency><Timestamp dt:dt=""r8"">6568749424949</Timestamp><Current dt:dt=""r8"">0</Current><DateUtc dt:dt=""string"">2018-10-15T16:23:20Z</DateUtc></FrequencyChange></FrequencyChanges></Clock>\n",KW_Experiment5A-20-1,59.947,1.0.0.105,2,1745082179,Professional,2.0.10.353,2.0.10.353,10/15/2018,10/15/2018 16:23,12:23:20,2.0.10.248,1,1,1,1,,,,,,,,PracticeProc,BlockList,4,2,Distractor1.bmp,1,0,,0,1,2751231,400,,0,0,blue,400,1,400,3,horizontal,cyan,Distractor1.bmp,blue,Distractor2.bmp,lime,Target2.bmp,yellow,Distractor1.bmp,purple,Distractor1.bmp,red,Distractor2.bmp,3,1,4,TrialProc,,PracticeTrialList,1,2,-999999,0,2751631,0,2,957,2752588,Target2.bmp,lime,2,,,,,,
KW_Experiment5A,20,1,"<?xml version=""1.0""?>\n<Clock xmlns:dt=""urn:schemas-microsoft-com:datatypes""><Description dt:dt=""string"">E-Prime Primary Realtime Clock</Description><StartTime><Timestamp dt:dt=""int"">0</Timestamp><DateUtc dt:dt=""string"">2018-10-15T16:23:20Z</DateUtc></StartTime><FrequencyChanges><FrequencyChange><Frequency dt:dt=""r8"">3215244</Frequency><Timestamp dt:dt=""r8"">6568749424949</Timestamp><Current dt:dt=""r8"">0</Current><DateUtc dt:dt=""string"">2018-10-15T16:23:20Z</DateUtc></FrequencyChange></FrequencyChanges></Clock>\n",KW_Experiment5A-20-1,59.947,1.0.0.105,2,1745082179,Professional,2.0.10.353,2.0.10.353,10/15/2018,10/15/2018 16:23,12:23:20,2.0.10.248,1,1,1,1,,,,,,,,PracticeProc,BlockList,5,2,Distractor2.bmp,2,0,,0,1,2753600,500,,0,0,purple,500,2,500,,horizontal,purple,Distractor1.bmp,red,Target2.bmp,blue,Distractor2.bmp,cyan,Distractor2.bmp,lime,Distractor1.bmp,yellow,Distractor2.bmp,2,1,5,TrialProc,5,PracticeTrialList,1,2,-999999,0,2754100,0,2,920,2755020,Target2.bmp,red,2,,,,,,
KW_Experiment5A,20,1,"<?xml version=""1.0""?>\n<Clock xmlns:dt=""urn:schemas-microsoft-com:datatypes""><Description dt:dt=""string"">E-Prime Primary Realtime Clock</Description><StartTime><Timestamp dt:dt=""int"">0</Timestamp><DateUtc dt:dt=""string"">2018-10-15T16:23:20Z</DateUtc></StartTime><FrequencyChanges><FrequencyChange><Frequency dt:dt=""r8"">3215244</Frequency><Timestamp dt:dt=""r8"">6568749424949</Timestamp><Current dt:dt=""r8"">0</Current><DateUtc dt:dt=""string"">2018-10-15T16:23:20Z</DateUtc></FrequencyChange></FrequencyChanges></Clock>\n",KW_Experiment5A-20-1,59.947,1.0.0.105,2,1745082179,Professional,2.0.10.353,2.0.10.353,10/15/2018,10/15/2018 16:23,12:23:20,2.0.10.248,1,1,1,1,,,,,,,,PracticeProc,BlockList,6,2,Distractor1.bmp,1,0,,0,1,2756035,501,,0,0,blue,500,2,500,3,horizontal,lime,Target2.bmp,yellow,Distractor1.bmp,purple,Distractor1.bmp,cyan,Distractor1.bmp,red,Distractor2.bmp,blue,Distractor2.bmp,1,1,6,TrialProc,,PracticeTrialList,1,2,-999999,1,2756536,0,2,1244,2757780,Target2.bmp,lime,2,,,,,,
KW_Experiment5A,20,1,"<?xml version=""1.0""?>\n<Clock xmlns:dt=""urn:schemas-microsoft-com:datatypes""><Description dt:dt=""string"">E-Prime Primary Realtime Clock</Description><StartTime><Timestamp dt:dt=""int"">0</Timestamp><DateUtc dt:dt=""string"">2018-10-15T16:23:20Z</DateUtc></StartTime><FrequencyChanges><FrequencyChange><Frequency dt:dt=""r8"">3215244</Frequency><Timestamp dt:dt=""r8"">6568749424949</Timestamp><Current dt:dt=""r8"">0</Current><DateUtc dt:dt=""string"">2018-10-15T16:23:20Z</DateUtc></FrequencyChange></FrequencyChanges></Clock>\n",KW_Experiment5A-20-1,59.947,1.0.0.105,2,1745082179,Professional,2.0.10.353,2.0.10.353,10/15/2018,10/15/2018 16:23,12:23:20,2.0.10.248,2,2,1,2,,,,,,,,TrainingProc,BlockList,1,2,Distractor1.bmp,1,0,,0,18,2768230,400,,0,0,cyan,400,1,400,4,horizontal,cyan,Distractor1.bmp,yellow,Distractor2.bmp,lime,Target2.bmp,red,Distractor1.bmp,purple,Distractor1.bmp,blue,Distractor2.bmp,,,,TrialProc,,TrainingTrialList,1,2,-999999,0,2768630,0,2,758,2769388,Target2.bmp,lime,2,,,,3,2,1
KW_Experiment5A,20,1,"<?xml version=""1.0""?>\n<Clock xmlns:dt=""urn:schemas-microsoft-com:datatypes""><Description dt:dt=""string"">E-Prime Primary Realtime Clock</Description><StartTime><Timestamp dt:dt=""int"">0</Timestamp><DateUtc dt:dt=""string"">2018-10-15T16:23:20Z</DateUtc></StartTime><FrequencyChanges><FrequencyChange><Frequency dt:dt=""r8"">3215244</Frequency><Timestamp dt:dt=""r8"">6568749424949</Timestamp><Current dt:dt=""r8"">0</Current><DateUtc dt:dt=""string"">2018-10-15T16:23:20Z</DateUtc></FrequencyChange></FrequencyChanges></Clock>\n",KW_Experiment5A-20-1,59.947,1.0.0.105,2,1745082179,Professional,2.0.10.353,2.0.10.353,10/15/2018,10/15/2018 16:23,12:23:20,2.0.10.248,2,2,1,2,,,,,,,,TrainingProc,BlockList,2,2,Distractor1.bmp,1,0,,0,1,2770399,500,,0,0,purple,500,2,500,,horizontal,purple,Distractor1.bmp,lime,Distractor1.bmp,blue,Distractor2.bmp,yellow,Distractor2.bmp,cyan,Distractor1.bmp,red,Target2.bmp,,,,TrialProc,5,TrainingTrialList,1,2,-999999,0,2770899,0,2,881,2771780,Target2.bmp,red,2,,,,12,2,2
KW_Experiment5A,20,1,"<?xml version=""1.0""?>\n<Clock xmlns:dt=""urn:schemas-microsoft-com:datatypes""><Description dt:dt=""string"">E-Prime Primary Realtime Clock</Description><StartTime><Timestamp dt:dt=""int"">0</Timestamp><DateUtc dt:dt=""string"">2018-10-15T16:23:20Z</DateUtc></StartTime><FrequencyChanges><FrequencyChange><Frequency dt:dt=""r8"">3215244</Frequency><Timestamp dt:dt=""r8"">6568749424949</Timestamp><Current dt:dt=""r8"">0</Current><DateUtc dt:dt=""string"">2018-10-15T16:23:20Z</DateUtc></FrequencyChange></FrequencyChanges></Clock>\n",KW_Experiment5A-20-1,59.947,1.0.0.105,2,1745082179,Professional,2.0.10.353,2.0.10.353,10/15/2018,10/15/2018 16:23,12:23:20,2.0.10.248,2,2,1,2,,,,,,,,TrainingProc,BlockList,3,2,Distractor1.bmp,1,0,,0,1,2772801,500,,0,0,lime,500,2,500,,horizontal,lime,Distractor2.bmp,purple,Distractor1.bmp,cyan,Distractor1.bmp,red,Target2.bmp,yellow,Distractor1.bmp,blue,Distractor1.bmp,,,,TrialProc,6,TrainingTrialList,1,2,-999999,0,2773301,0,2,1007,2774308,Target2.bmp,red,2,,,,10,2,3
KW_Experiment5A,20,1,"<?xml version=""1.0""?>\n<Clock xmlns:dt=""urn:schemas-microsoft-com:datatypes""><Description dt:dt=""string"">E-Prime Primary Realtime Clock</Description><StartTime><Timestamp dt:dt=""int"">0</Timestamp><DateUtc dt:dt=""string"">2018-10-15T16:23:20Z</DateUtc></StartTime><FrequencyChanges><FrequencyChange><Frequency dt:dt=""r8"">3215244</Frequency><Timestamp dt:dt=""r8"">6568749424949</Timestamp><Current dt:dt=""r8"">0</Current><DateUtc dt:dt=""string"">2018-10-15T16:23:20Z</DateUtc></FrequencyChange></FrequencyChanges></Clock>\n",KW_Experiment5A-20-1,59.947,1.0.0.105,2,1745082179,Professional,2.0.10.353,2.0.10.353,10/15/2018,10/15/2018 16:23,12:23:20,2.0.10.248,2,2,1,2,,,,,,,,TrainingProc,BlockList,4,1,Distractor2.bmp,2,0,,0,1,2775320,400,,0,0,purple,400,1,400,,vertical,purple,Distractor2.bmp,blue,Distractor1.bmp,yellow,Distractor2.bmp,cyan,Distractor1.bmp,red,Target1.bmp,lime,Distractor2.bmp,,,,TrialProc,5,TrainingTrialList,1,1,-999999,0,2775720,0,1,860,2776580,Target1.bmp,red,1,,,,11,2,4
KW_Experiment5A,20,1,"<?xml version=""1.0""?>\n<Clock xmlns:dt=""urn:schemas-microsoft-com:datatypes""><Description dt:dt=""string"">E-Prime Primary Realtime Clock</Description><StartTime><Timestamp dt:dt=""int"">0</Timestamp><DateUtc dt:dt=""string"">2018-10-15T16:23:20Z</DateUtc></StartTime><FrequencyChanges><FrequencyChange><Frequency dt:dt=""r8"">3215244</Frequency><Timestamp dt:dt=""r8"">6568749424949</Timestamp><Current dt:dt=""r8"">0</Current><DateUtc dt:dt=""string"">2018-10-15T16:23:20Z</DateUtc></FrequencyChange></FrequencyChanges></Clock>\n",KW_Experiment5A-20-1,59.947,1.0.0.105,2,1745082179,Professional,2.0.10.353,2.0.10.353,10/15/2018,10/15/2018 16:23,12:23:20,2.0.10.248,2,2,1,2,,,,,,,,TrainingProc,BlockList,5,2,Distractor2.bmp,2,0,,0,1,2777605,401,,0,0,yellow,400,1,400,,horizontal,yellow,Distractor2.bmp,blue,Distractor1.bmp,lime,Distractor1.bmp,purple,Distractor1.bmp,red,Target2.bmp,cyan,Distractor2.bmp,,,,TrialProc,2,TrainingTrialList,1,2,-999999,1,2778006,0,2,589,2778595,Target2.bmp,red,2,,,,11,2,5
KW_Experiment5A,20,1,"<?xml version=""1.0""?>\n<Clock xmlns:dt=""urn:schemas-microsoft-com:datatypes""><Description dt:dt=""string"">E-Prime Primary Realtime Clock</Description><StartTime><Timestamp dt:dt=""int"">0</Timestamp><DateUtc dt:dt=""string"">2018-10-15T16:23:20Z</DateUtc></StartTime><FrequencyChanges><FrequencyChange><Frequency dt:dt=""r8"">3215244</Frequency><Timestamp dt:dt=""r8"">6568749424949</Timestamp><Current dt:dt=""r8"">0</Current><DateUtc dt:dt=""string"">2018-10-15T16:23:20Z</DateUtc></FrequencyChange></FrequencyChanges></Clock>\n",KW_Experiment5A-20-1,59.947,1.0.0.105,2,1745082179,Professional,2.0.10.353,2.0.10.353,10/15/2018,10/15/2018 16:23,12:23:20,2.0.10.248,2,2,1,2,,,,,,,,TrainingProc,BlockList,6,2,Distractor2.bmp,2,0,,0,1,2779607,500,,0,0,cyan,500,2,500,,horizontal,cyan,Distractor1.bmp,red,Target2.bmp,blue,Distractor2.bmp,purple,Distractor1.bmp,lime,Distractor2.bmp,yellow,Distractor2.bmp,,,,TrialProc,4,TrainingTrialList,1,2,-999999,0,2780107,0,2,672,2780779,Target2.bmp,red,2,,,,8,2,6
KW_Experiment5A,20,1,"<?xml version=""1.0""?>\n<Clock xmlns:dt=""urn:schemas-microsoft-com:datatypes""><Description dt:dt=""string"">E-Prime Primary Realtime Clock</Description><StartTime><Timestamp dt:dt=""int"">0</Timestamp><DateUtc dt:dt=""string"">2018-10-15T16:23:20Z</DateUtc></StartTime><FrequencyChanges><FrequencyChange><Frequency dt:dt=""r8"">3215244</Frequency><Timestamp dt:dt=""r8"">6568749424949</Timestamp><Current dt:dt=""r8"">0</Current><DateUtc dt:dt=""string"">2018-10-15T16:23:20Z</DateUtc></FrequencyChange></FrequencyChanges></Clock>\n",KW_Experiment5A-20-1,59.947,1.0.0.105,2,1745082179,Professional,2.0.10.353,2.0.10.353,10/15/2018,10/15/2018 16:23,12:23:20,2.0.10.248,2,2,1,2,,,,,,,,TrainingProc,BlockList,7,2,Distractor1.bmp,1,0,,0,1,2781792,501,,0,0,yellow,500,2,500,,horizontal,yellow,Distractor2.bmp,cyan,Distractor2.bmp,red,Target2.bmp,lime,Distractor1.bmp,purple,Distractor2.bmp,blue,Distractor2.bmp,,,,TrialProc,2,TrainingTrialList,1,2,-999999,1,2782293,0,2,614,2782907,Target2.bmp,red,2,,,,9,2,7
KW_Experiment5A,20,1,"<?xml version=""1.0""?>\n<Clock xmlns:dt=""urn:schemas-microsoft-com:datatypes""><Description dt:dt=""string"">E-Prime Primary Realtime Clock</Description><StartTime><Timestamp dt:dt=""int"">0</Timestamp><DateUtc dt:dt=""string"">2018-10-15T16:23:20Z</DateUtc></StartTime><FrequencyChanges><FrequencyChange><Frequency dt:dt=""r8"">3215244</Frequency><Timestamp dt:dt=""r8"">6568749424949</Timestamp><Current dt:dt=""r8"">0</Current><DateUtc dt:dt=""string"">2018-10-15T16:23:20Z</DateUtc></FrequencyChange></FrequencyChanges></Clock>\n",KW_Experiment5A-20-1,59.947,1.0.0.105,2,1745082179,Professional,2.0.10.353,2.0.10.353,10/15/2018,10/15/2018 16:23,12:23:20,2.0.10.248,2,2,1,2,,,,,,,,TrainingProc,BlockList,8,1,Distractor1.bmp,1,0,,0,1,2783928,500,,0,0,cyan,500,2,500,,vertical,red,Target1.bmp,lime,Distractor1.bmp,blue,Distractor1.bmp,purple,Distractor2.bmp,yellow,Distractor1.bmp,cyan,Distractor2.bmp,,,,TrialProc,4,TrainingTrialList,1,1,-999999,0,2784428,0,1,1751,2786179,Target1.bmp,red,1,,,,7,2,8
KW_Experiment5A,20,1,"<?xml version=""1.0""?>\n<Clock xmlns:dt=""urn:schemas-microsoft-com:datatypes""><Description dt:dt=""string"">E-Prime Primary Realtime Clock</Description><StartTime><Timestamp dt:dt=""int"">0</Timestamp><DateUtc dt:dt=""string"">2018-10-15T16:23:20Z</DateUtc></StartTime><FrequencyChanges><FrequencyChange><Frequency dt:dt=""r8"">3215244</Frequency><Timestamp dt:dt=""r8"">6568749424949</Timestamp><Current dt:dt=""r8"">0</Current><DateUtc dt:dt=""string"">2018-10-15T16:23:20Z</DateUtc></FrequencyChange></FrequencyChanges></Clock>\n",KW_Experiment5A-20-1,59.947,1.0.0.105,2,1745082179,Professional,2.0.10.353,2.0.10.353,10/15/2018,10/15/2018 16:23,12:23:20,2.0.10.248,2,2,1,2,,,,,,,,TrainingProc,BlockList,9,1,Distractor1.bmp,1,0,,0,1,2787197,401,,0,0,purple,400,1,400,,vertical,purple,Distractor1.bmp,yellow,Distractor2.bmp,red,Target1.bmp,lime,Distractor1.bmp,blue,Distractor2.bmp,cyan,Distractor2.bmp,,,,TrialProc,5,TrainingTrialList,1,1,-999999,1,2787598,0,1,1125,2788723,Target1.bmp,red,1,,,,9,2,9
KW_Experiment5A,20,1,"<?xml version=""1.0""?>\n<Clock xmlns:dt=""urn:schemas-microsoft-com:datatypes""><Description dt:dt=""string"">E-Prime Primary Realtime Clock</Description><StartTime><Timestamp dt:dt=""int"">0</Timestamp><DateUtc dt:dt=""string"">2018-10-15T16:23:20Z</DateUtc></StartTime><FrequencyChanges><FrequencyChange><Frequency dt:dt=""r8"">3215244</Frequency><Timestamp dt:dt=""r8"">6568749424949</Timestamp><Current dt:dt=""r8"">0</Current><DateUtc dt:dt=""string"">2018-10-15T16:23:20Z</DateUtc></FrequencyChange></FrequencyChanges></Clock>\n",KW_Experiment5A-20-1,59.947,1.0.0.105,2,1745082179,Professional,2.0.10.353,2.0.10.353,10/15/2018,10/15/2018 16:23,12:23:20,2.0.10.248,2,2,1,2,,,,,,,,TrainingProc,BlockList,10,2,Distractor2.bmp,2,0,,0,1,2789750,600,,0,0,purple,600,3,600,,horizontal,purple,Distractor2.bmp,yellow,Distractor2.bmp,red,Target2.bmp,blue,Distractor2.bmp,cyan,Distractor1.bmp,lime,Distractor2.bmp,,,,TrialProc,5,TrainingTrialList,1,2,-999999,0,2790350,0,2,597,2790947,Target2.bmp,red,2,,,,9,2,10
KW_Experiment5A,20,1,"<?xml version=""1.0""?>\n<Clock xmlns:dt=""urn:schemas-microsoft-com:datatypes""><Description dt:dt=""string"">E-Prime Primary Realtime Clock</Description><StartTime><Timestamp dt:dt=""int"">0</Timestamp><DateUtc dt:dt=""string"">2018-10-15T16:23:20Z</DateUtc></StartTime><FrequencyChanges><FrequencyChange><Frequency dt:dt=""r8"">3215244</Frequency><Timestamp dt:dt=""r8"">6568749424949</Timestamp><Current dt:dt=""r8"">0</Current><DateUtc dt:dt=""string"">2018-10-15T16:23:20Z</DateUtc></FrequencyChange></FrequencyChanges></Clock>\n",KW_Experiment5A-20-1,59.947,1.0.0.105,2,1745082179,Professional,2.0.10.353,2.0.10.353,10/15/2018,10/15/2018 16:23,12:23:20,2.0.10.248,2,2,1,2,,,,,,,,TrainingProc,BlockList,11,1,Distractor2.bmp,2,0,,0,1,2791968,501,,0,0,purple,500,2,500,,vertical,purple,Distractor2.bmp,yellow,Distractor1.bmp,lime,Distractor1.bmp,red,Target1.bmp,cyan,Distractor2.bmp,blue,Distractor1.bmp,,,,TrialProc,5,TrainingTrialList,1,1,-999999,1,2792469,0,1,886,2793355,Target1.bmp,red,1,,,,10,2,11
KW_Experiment5A,20,1,"<?xml version=""1.0""?>\n<Clock xmlns:dt=""urn:schemas-microsoft-com:datatypes""><Description dt:dt=""string"">E-Prime Primary Realtime Clock</Description><StartTime><Timestamp dt:dt=""int"">0</Timestamp><DateUtc dt:dt=""string"">2018-10-15T16:23:20Z</DateUtc></StartTime><FrequencyChanges><FrequencyChange><Frequency dt:dt=""r8"">3215244</Frequency><Timestamp dt:dt=""r8"">6568749424949</Timestamp><Current dt:dt=""r8"">0</Current><DateUtc dt:dt=""string"">2018-10-15T16:23:20Z</DateUtc></FrequencyChange></FrequencyChanges></Clock>\n",KW_Experiment5A-20-1,59.947,1.0.0.105,2,1745082179,Professional,2.0.10.353,2.0.10.353,10/15/2018,10/15/2018 16:23,12:23:20,2.0.10.248,2,2,1,2,,,,,,,,TrainingProc,BlockList,12,1,Distractor2.bmp,2,0,,0,1,2794371,600,,0,0,red,600,3,600,1,vertical,red,Distractor2.bmp,purple,Distractor2.bmp,blue,Distractor2.bmp,cyan,Distractor1.bmp,lime,Target1.bmp,yellow,Distractor2.bmp,,,,TrialProc,,TrainingTrialList,0,1,-999999,0,2794971,0,2,1336,2796307,Target1.bmp,lime,1,,,,5,2,12
KW_Experiment5A,20,1,"<?xml version=""1.0""?>\n<Clock xmlns:dt=""urn:schemas-microsoft-com:datatypes""><Description dt:dt=""string"">E-Prime Primary Realtime Clock</Description><StartTime><Timestamp dt:dt=""int"">0</Timestamp><DateUtc dt:dt=""string"">2018-10-15T16:23:20Z</DateUtc></StartTime><FrequencyChanges><FrequencyChange><Frequency dt:dt=""r8"">3215244</Frequency><Timestamp dt:dt=""r8"">6568749424949</Timestamp><Current dt:dt=""r8"">0</Current><DateUtc dt:dt=""string"">2018-10-15T16:23:20Z</DateUtc></FrequencyChange></FrequencyChanges></Clock>\n",KW_Experiment5A-20-1,59.947,1.0.0.105,2,1745082179,Professional,2.0.10.353,2.0.10.353,10/15/2018,10/15/2018 16:23,12:23:20,2.0.10.248,2,2,1,2,,,,,,,,TrainingProc,BlockList,13,2,Distractor2.bmp,2,0,,0,1,2797323,601,,0,0,red,600,3,600,1,horizontal,red,Distractor2.bmp,purple,Distractor2.bmp,yellow,Distractor2.bmp,cyan,Distractor1.bmp,blue,Distractor2.bmp,lime,Target2.bmp,,,,TrialProc,,TrainingTrialList,1,2,-999999,1,2797924,0,2,1311,2799235,Target2.bmp,lime,2,,,,6,2,13
KW_Experiment5A,20,1,"<?xml version=""1.0""?>\n<Clock xmlns:dt=""urn:schemas-microsoft-com:datatypes""><Description dt:dt=""string"">E-Prime Primary Realtime Clock</Description><StartTime><Timestamp dt:dt=""int"">0</Timestamp><DateUtc dt:dt=""string"">2018-10-15T16:23:20Z</DateUtc></StartTime><FrequencyChanges><FrequencyChange><Frequency dt:dt=""r8"">3215244</Frequency><Timestamp dt:dt=""r8"">6568749424949</Timestamp><Current dt:dt=""r8"">0</Current><DateUtc dt:dt=""string"">2018-10-15T16:23:20Z</DateUtc></FrequencyChange></FrequencyChanges></Clock>\n",KW_Experiment5A-20-1,59.947,1.0.0.105,2,1745082179,Professional,2.0.10.353,2.0.10.353,10/15/2018,10/15/2018 16:23,12:23:20,2.0.10.248,2,2,1,2,,,,,,,,TrainingProc,BlockList,14,2,Distractor1.bmp,1,0,,0,1,2800259,501,,0,0,cyan,500,2,500,,horizontal,red,Target2.bmp,lime,Distractor1.bmp,yellow,Distractor1.bmp,purple,Distractor1.bmp,blue,Distractor1.bmp,cyan,Distractor1.bmp,,,,TrialProc,4,TrainingTrialList,1,2,-999999,1,2800760,0,2,707,2801467,Target2.bmp,red,2,,,,7,2,14
KW_Experiment5A,20,1,"<?xml version=""1.0""?>\n<Clock xmlns:dt=""urn:schemas-microsoft-com:datatypes""><Description dt:dt=""string"">E-Prime Primary Realtime Clock</Description><StartTime><Timestamp dt:dt=""int"">0</Timestamp><DateUtc dt:dt=""string"">2018-10-15T16:23:20Z</DateUtc></StartTime><FrequencyChanges><FrequencyChange><Frequency dt:dt=""r8"">3215244</Frequency><Timestamp dt:dt=""r8"">6568749424949</Timestamp><Current dt:dt=""r8"">0</Current><DateUtc dt:dt=""string"">2018-10-15T16:23:20Z</DateUtc></FrequencyChange></FrequencyChanges></Clock>\n",KW_Experiment5A-20-1,59.947,1.0.0.105,2,1745082179,Professional,2.0.10.353,2.0.10.353,10/15/2018,10/15/2018 16:23,12:23:20,2.0.10.248,2,2,1,2,,,,,,,,TrainingProc,BlockList,15,2,Distractor2.bmp,2,0,,0,1,2802478,400,,0,0,cyan,400,1,400,,horizontal,red,Target2.bmp,yellow,Distractor2.bmp,lime,Distractor2.bmp,purple,Distractor2.bmp,blue,Distractor1.bmp,cyan,Distractor2.bmp,,,,TrialProc,4,TrainingTrialList,1,2,-999999,0,2802878,0,2,581,2803459,Target2.bmp,red,2,,,,7,2,15
KW_Experiment5A,20,1,"<?xml version=""1.0""?>\n<Clock xmlns:dt=""urn:schemas-microsoft-com:datatypes""><Description dt:dt=""string"">E-Prime Primary Realtime Clock</Description><StartTime><Timestamp dt:dt=""int"">0</Timestamp><DateUtc dt:dt=""string"">2018-10-15T16:23:20Z</DateUtc></StartTime><FrequencyChanges><FrequencyChange><Frequency dt:dt=""r8"">3215244</Frequency><Timestamp dt:dt=""r8"">6568749424949</Timestamp><Current dt:dt=""r8"">0</Current><DateUtc dt:dt=""string"">2018-10-15T16:23:20Z</DateUtc></FrequencyChange></FrequencyChanges></Clock>\n",KW_Experiment5A-20-1,59.947,1.0.0.105,2,1745082179,Professional,2.0.10.353,2.0.10.353,10/15/2018,10/15/2018 16:23,12:23:20,2.0.10.248,2,2,1,2,,,,,,,,TrainingProc,BlockList,16,2,Distractor2.bmp,2,0,,0,1,2804480,400,,0,0,yellow,400,1,400,2,horizontal,yellow,Distractor2.bmp,cyan,Distractor1.bmp,purple,Distractor1.bmp,lime,Target2.bmp,red,Distractor2.bmp,blue,Distractor2.bmp,,,,TrialProc,,TrainingTrialList,1,2,-999999,0,2804880,0,2,619,2805499,Target2.bmp,lime,2,,,,4,2,16
KW_Experiment5A,20,1,"<?xml version=""1.0""?>\n<Clock xmlns:dt=""urn:schemas-microsoft-com:datatypes""><Description dt:dt=""string"">E-Prime Primary Realtime Clock</Description><StartTime><Timestamp dt:dt=""int"">0</Timestamp><DateUtc dt:dt=""string"">2018-10-15T16:23:20Z</DateUtc></StartTime><FrequencyChanges><FrequencyChange><Frequency dt:dt=""r8"">3215244</Frequency><Timestamp dt:dt=""r8"">6568749424949</Timestamp><Current dt:dt=""r8"">0</Current><DateUtc dt:dt=""string"">2018-10-15T16:23:20Z</DateUtc></FrequencyChange></FrequencyChanges></Clock>\n",KW_Experiment5A-20-1,59.947,1.0.0.105,2,1745082179,Professional,2.0.10.353,2.0.10.353,10/15/2018,10/15/2018 16:23,12:23:20,2.0.10.248,2,2,1,2,,,,,,,,TrainingProc,BlockList,17,2,Distractor1.bmp,1,0,,0,1,2806515,601,,0,0,cyan,600,3,600,,horizontal,cyan,Distractor1.bmp,red,Target2.bmp,purple,Distractor1.bmp,yellow,Distractor1.bmp,lime,Distractor2.bmp,blue,Distractor2.bmp,,,,TrialProc,4,TrainingTrialList,1,2,-999999,1,2807116,0,2,575,2807691,Target2.bmp,red,2,,,,8,2,17
KW_Experiment5A,20,1,"<?xml version=""1.0""?>\n<Clock xmlns:dt=""urn:schemas-microsoft-com:datatypes""><Description dt:dt=""string"">E-Prime Primary Realtime Clock</Description><StartTime><Timestamp dt:dt=""int"">0</Timestamp><DateUtc dt:dt=""string"">2018-10-15T16:23:20Z</DateUtc></StartTime><FrequencyChanges><FrequencyChange><Frequency dt:dt=""r8"">3215244</Frequency><Timestamp dt:dt=""r8"">6568749424949</Timestamp><Current dt:dt=""r8"">0</Current><DateUtc dt:dt=""string"">2018-10-15T16:23:20Z</DateUtc></FrequencyChange></FrequencyChanges></Clock>\n",KW_Experiment5A-20-1,59.947,1.0.0.105,2,1745082179,Professional,2.0.10.353,2.0.10.353,10/15/2018,10/15/2018 16:23,12:23:20,2.0.10.248,2,2,1,2,,,,,,,,TrainingProc,BlockList,18,1,Distractor2.bmp,2,0,,1,0,2808700,601,,0,0,purple,600,3,600,5,vertical,lime,Target1.bmp,purple,Distractor2.bmp,blue,Distractor2.bmp,yellow,Distractor2.bmp,red,Distractor2.bmp,cyan,Distractor1.bmp,,,,TrialProc,,TrainingTrialList,1,1,-999999,1,2809301,0,1,782,2810083,Target1.bmp,lime,1,,,,1,2,18
KW_Experiment5A,20,1,"<?xml version=""1.0""?>\n<Clock xmlns:dt=""urn:schemas-microsoft-com:datatypes""><Description dt:dt=""string"">E-Prime Primary Realtime Clock</Description><StartTime><Timestamp dt:dt=""int"">0</Timestamp><DateUtc dt:dt=""string"">2018-10-15T16:23:20Z</DateUtc></StartTime><FrequencyChanges><FrequencyChange><Frequency dt:dt=""r8"">3215244</Frequency><Timestamp dt:dt=""r8"">6568749424949</Timestamp><Current dt:dt=""r8"">0</Current><DateUtc dt:dt=""string"">2018-10-15T16:23:20Z</DateUtc></FrequencyChange></FrequencyChanges></Clock>\n",KW_Experiment5A-20-1,59.947,1.0.0.105,2,1745082179,Professional,2.0.10.353,2.0.10.353,10/15/2018,10/15/2018 16:23,12:23:20,2.0.10.248,2,2,1,2,,,,,,,,TrainingProc,BlockList,19,1,Distractor1.bmp,1,0,,0,1,2811103,600,,0,0,purple,600,3,600,,vertical,purple,Distractor1.bmp,blue,Distractor2.bmp,lime,Distractor2.bmp,cyan,Distractor2.bmp,yellow,Distractor1.bmp,red,Target1.bmp,,,,TrialProc,5,TrainingTrialList,1,1,-999999,0,2811703,0,1,1012,2812715,Target1.bmp,red,1,,,,12,2,19
KW_Experiment5A,20,1,"<?xml version=""1.0""?>\n<Clock xmlns:dt=""urn:schemas-microsoft-com:datatypes""><Description dt:dt=""string"">E-Prime Primary Realtime Clock</Description><StartTime><Timestamp dt:dt=""int"">0</Timestamp><DateUtc dt:dt=""string"">2018-10-15T16:23:20Z</DateUtc></StartTime><FrequencyChanges><FrequencyChange><Frequency dt:dt=""r8"">3215244</Frequency><Timestamp dt:dt=""r8"">6568749424949</Timestamp><Current dt:dt=""r8"">0</Current><DateUtc dt:dt=""string"">2018-10-15T16:23:20Z</DateUtc></FrequencyChange></FrequencyChanges></Clock>\n",KW_Experiment5A-20-1,59.947,1.0.0.105,2,1745082179,Professional,2.0.10.353,2.0.10.353,10/15/2018,10/15/2018 16:23,12:23:20,2.0.10.248,2,2,1,2,,,,,,,,TrainingProc,BlockList,20,1,Distractor1.bmp,1,0,,1,0,2813738,401,,0,0,cyan,400,1,400,,vertical,cyan,Distractor1.bmp,blue,Distractor2.bmp,yellow,Distractor1.bmp,lime,Distractor1.bmp,red,Target1.bmp,purple,Distractor1.bmp,,,,TrialProc,4,TrainingTrialList,1,1,-999999,1,2814139,0,1,576,2814715,Target1.bmp,red,1,,,,11,2,20
KW_Experiment5A,20,1,"<?xml version=""1.0""?>\n<Clock xmlns:dt=""urn:schemas-microsoft-com:datatypes""><Description dt:dt=""string"">E-Prime Primary Realtime Clock</Description><StartTime><Timestamp dt:dt=""int"">0</Timestamp><DateUtc dt:dt=""string"">2018-10-15T16:23:20Z</DateUtc></StartTime><FrequencyChanges><FrequencyChange><Frequency dt:dt=""r8"">3215244</Frequency><Timestamp dt:dt=""r8"">6568749424949</Timestamp><Current dt:dt=""r8"">0</Current><DateUtc dt:dt=""string"">2018-10-15T16:23:20Z</DateUtc></FrequencyChange></FrequencyChanges></Clock>\n",KW_Experiment5A-20-1,59.947,1.0.0.105,2,1745082179,Professional,2.0.10.353,2.0.10.353,10/15/2018,10/15/2018 16:23,12:23:20,2.0.10.248,2,2,1,2,,,,,,,,TrainingProc,BlockList,21,2,Distractor1.bmp,1,0,,0,1,2815740,401,,0,0,lime,400,1,400,,horizontal,lime,Distractor2.bmp,red,Target2.bmp,yellow,Distractor1.bmp,blue,Distractor2.bmp,purple,Distractor1.bmp,cyan,Distractor1.bmp,,,,TrialProc,6,TrainingTrialList,1,2,-999999,1,2816141,0,2,534,2816675,Target2.bmp,red,2,,,,8,2,21
KW_Experiment5A,20,1,"<?xml version=""1.0""?>\n<Clock xmlns:dt=""urn:schemas-microsoft-com:datatypes""><Description dt:dt=""string"">E-Prime Primary Realtime Clock</Description><StartTime><Timestamp dt:dt=""int"">0</Timestamp><DateUtc dt:dt=""string"">2018-10-15T16:23:20Z</DateUtc></StartTime><FrequencyChanges><FrequencyChange><Frequency dt:dt=""r8"">3215244</Frequency><Timestamp dt:dt=""r8"">6568749424949</Timestamp><Current dt:dt=""r8"">0</Current><DateUtc dt:dt=""string"">2018-10-15T16:23:20Z</DateUtc></FrequencyChange></FrequencyChanges></Clock>\n",KW_Experiment5A-20-1,59.947,1.0.0.105,2,1745082179,Professional,2.0.10.353,2.0.10.353,10/15/2018,10/15/2018 16:23,12:23:20,2.0.10.248,2,2,1,2,,,,,,,,TrainingProc,BlockList,22,2,Distractor1.bmp,1,0,,0,1,2817692,601,,0,0,yellow,600,3,600,,horizontal,yellow,Distractor1.bmp,blue,Distractor2.bmp,lime,Distractor1.bmp,purple,Distractor1.bmp,cyan,Distractor1.bmp,red,Target2.bmp,,,,TrialProc,2,TrainingTrialList,1,2,-999999,1,2818293,0,2,518,2818811,Target2.bmp,red,2,,,,12,2,22
KW_Experiment5A,20,1,"<?xml version=""1.0""?>\n<Clock xmlns:dt=""urn:schemas-microsoft-com:datatypes""><Description dt:dt=""string"">E-Prime Primary Realtime Clock</Description><StartTime><Timestamp dt:dt=""int"">0</Timestamp><DateUtc dt:dt=""string"">2018-10-15T16:23:20Z</DateUtc></StartTime><FrequencyChanges><FrequencyChange><Frequency dt:dt=""r8"">3215244</Frequency><Timestamp dt:dt=""r8"">6568749424949</Timestamp><Current dt:dt=""r8"">0</Current><DateUtc dt:dt=""string"">2018-10-15T16:23:20Z</DateUtc></FrequencyChange></FrequencyChanges></Clock>\n",KW_Experiment5A-20-1,59.947,1.0.0.105,2,1745082179,Professional,2.0.10.353,2.0.10.353,10/15/2018,10/15/2018 16:23,12:23:20,2.0.10.248,2,2,1,2,,,,,,,,TrainingProc,BlockList,23,1,Distractor2.bmp,2,0,,0,1,2819827,401,,0,0,cyan,400,1,400,4,vertical,cyan,Distractor1.bmp,lime,Target1.bmp,red,Distractor2.bmp,yellow,Distractor2.bmp,blue,Distractor2.bmp,purple,Distractor2.bmp,,,,TrialProc,,TrainingTrialList,1,1,-999999,1,2820228,0,1,567,2820795,Target1.bmp,lime,1,,,,2,2,23
KW_Experiment5A,20,1,"<?xml version=""1.0""?>\n<Clock xmlns:dt=""urn:schemas-microsoft-com:datatypes""><Description dt:dt=""string"">E-Prime Primary Realtime Clock</Description><StartTime><Timestamp dt:dt=""int"">0</Timestamp><DateUtc dt:dt=""string"">2018-10-15T16:23:20Z</DateUtc></StartTime><FrequencyChanges><FrequencyChange><Frequency dt:dt=""r8"">3215244</Frequency><Timestamp dt:dt=""r8"">6568749424949</Timestamp><Current dt:dt=""r8"">0</Current><DateUtc dt:dt=""string"">2018-10-15T16:23:20Z</DateUtc></FrequencyChange></FrequencyChanges></Clock>\n",KW_Experiment5A-20-1,59.947,1.0.0.105,2,1745082179,Professional,2.0.10.353,2.0.10.353,10/15/2018,10/15/2018 16:23,12:23:20,2.0.10.248,2,2,1,2,,,,,,,,TrainingProc,BlockList,24,1,Distractor2.bmp,2,0,,0,1,2821813,600,,0,0,cyan,600,3,600,,vertical,cyan,Distractor2.bmp,lime,Distractor2.bmp,blue,Distractor1.bmp,red,Target1.bmp,purple,Distractor2.bmp,yellow,Distractor2.bmp,,,,TrialProc,4,TrainingTrialList,1,1,-999999,0,2822413,0,1,702,2823115,Target1.bmp,red,1,,,,10,2,24
KW_Experiment5A,20,1,"<?xml version=""1.0""?>\n<Clock xmlns:dt=""urn:schemas-microsoft-com:datatypes""><Description dt:dt=""string"">E-Prime Primary Realtime Clock</Description><StartTime><Timestamp dt:dt=""int"">0</Timestamp><DateUtc dt:dt=""string"">2018-10-15T16:23:20Z</DateUtc></StartTime><FrequencyChanges><FrequencyChange><Frequency dt:dt=""r8"">3215244</Frequency><Timestamp dt:dt=""r8"">6568749424949</Timestamp><Current dt:dt=""r8"">0</Current><DateUtc dt:dt=""string"">2018-10-15T16:23:20Z</DateUtc></FrequencyChange></FrequencyChanges></Clock>\n",KW_Experiment5A-20-1,59.947,1.0.0.105,2,1745082179,Professional,2.0.10.353,2.0.10.353,10/15/2018,10/15/2018 16:23,12:23:20,2.0.10.248,2,2,1,2,,,,,,,,TrainingProc,BlockList,25,1,Distractor1.bmp,1,0,,0,1,2824131,401,,0,0,blue,400,1,400,3,vertical,lime,Target1.bmp,blue,Distractor1.bmp,red,Distractor2.bmp,purple,Distractor1.bmp,yellow,Distractor1.bmp,cyan,Distractor1.bmp,,,,TrialProc,,TrainingTrialList,1,1,-999999,1,2824532,0,1,639,2825171,Target1.bmp,lime,1,,,,1,3,25
KW_Experiment5A,20,1,"<?xml version=""1.0""?>\n<Clock xmlns:dt=""urn:schemas-microsoft-com:datatypes""><Description dt:dt=""string"">E-Prime Primary Realtime Clock</Description><StartTime><Timestamp dt:dt=""int"">0</Timestamp><DateUtc dt:dt=""string"">2018-10-15T16:23:20Z</DateUtc></StartTime><FrequencyChanges><FrequencyChange><Frequency dt:dt=""r8"">3215244</Frequency><Timestamp dt:dt=""r8"">6568749424949</Timestamp><Current dt:dt=""r8"">0</Current><DateUtc dt:dt=""string"">2018-10-15T16:23:20Z</DateUtc></FrequencyChange></FrequencyChanges></Clock>\n",KW_Experiment5A-20-1,59.947,1.0.0.105,2,1745082179,Professional,2.0.10.353,2.0.10.353,10/15/2018,10/15/2018 16:23,12:23:20,2.0.10.248,2,2,1,2,,,,,,,,TrainingProc,BlockList,26,1,Distractor1.bmp,1,0,,0,1,2826183,501,,0,0,blue,500,2,500,,vertical,blue,Distractor1.bmp,lime,Distractor2.bmp,cyan,Distractor2.bmp,yellow,Distractor2.bmp,red,Target1.bmp,purple,Distractor1.bmp,,,,TrialProc,3,TrainingTrialList,1,1,-999999,1,2826684,0,1,735,2827419,Target1.bmp,red,1,,,,11,3,26
KW_Experiment5A,20,1,"<?xml version=""1.0""?>\n<Clock xmlns:dt=""urn:schemas-microsoft-com:datatypes""><Description dt:dt=""string"">E-Prime Primary Realtime Clock</Description><StartTime><Timestamp dt:dt=""int"">0</Timestamp><DateUtc dt:dt=""string"">2018-10-15T16:23:20Z</DateUtc></StartTime><FrequencyChanges><FrequencyChange><Frequency dt:dt=""r8"">3215244</Frequency><Timestamp dt:dt=""r8"">6568749424949</Timestamp><Current dt:dt=""r8"">0</Current><DateUtc dt:dt=""string"">2018-10-15T16:23:20Z</DateUtc></FrequencyChange></FrequencyChanges></Clock>\n",KW_Experiment5A-20-1,59.947,1.0.0.105,2,1745082179,Professional,2.0.10.353,2.0.10.353,10/15/2018,10/15/2018 16:23,12:23:20,2.0.10.248,2,2,1,2,,,,,,,,TrainingProc,BlockList,27,2,Distractor2.bmp,2,0,,0,1,2828435,501,,0,0,blue,500,2,500,,horizontal,blue,Distractor1.bmp,purple,Distractor1.bmp,cyan,Distractor1.bmp,red,Target2.bmp,yellow,Distractor2.bmp,lime,Distractor1.bmp,,,,TrialProc,3,TrainingTrialList,1,2,-999999,1,2828936,0,2,531,2829467,Target2.bmp,red,2,,,,10,3,27
KW_Experiment5A,20,1,"<?xml version=""1.0""?>\n<Clock xmlns:dt=""urn:schemas-microsoft-com:datatypes""><Description dt:dt=""string"">E-Prime Primary Realtime Clock</Description><StartTime><Timestamp dt:dt=""int"">0</Timestamp><DateUtc dt:dt=""string"">2018-10-15T16:23:20Z</DateUtc></StartTime><FrequencyChanges><FrequencyChange><Frequency dt:dt=""r8"">3215244</Frequency><Timestamp dt:dt=""r8"">6568749424949</Timestamp><Current dt:dt=""r8"">0</Current><DateUtc dt:dt=""string"">2018-10-15T16:23:20Z</DateUtc></FrequencyChange></FrequencyChanges></Clock>\n",KW_Experiment5A-20-1,59.947,1.0.0.105,2,1745082179,Professional,2.0.10.353,2.0.10.353,10/15/2018,10/15/2018 16:23,12:23:20,2.0.10.248,2,2,1,2,,,,,,,,TrainingProc,BlockList,28,2,Distractor1.bmp,1,0,,0,1,2830487,401,,0,0,yellow,400,1,400,,horizontal,yellow,Distractor1.bmp,blue,Distractor2.bmp,cyan,Distractor2.bmp,red,Target2.bmp,purple,Distractor1.bmp,lime,Distractor2.bmp,,,,TrialProc,2,TrainingTrialList,1,2,-999999,1,2830888,0,2,531,2831419,Target2.bmp,red,2,,,,10,3,28
KW_Experiment5A,20,1,"<?xml version=""1.0""?>\n<Clock xmlns:dt=""urn:schemas-microsoft-com:datatypes""><Description dt:dt=""string"">E-Prime Primary Realtime Clock</Description><StartTime><Timestamp dt:dt=""int"">0</Timestamp><DateUtc dt:dt=""string"">2018-10-15T16:23:20Z</DateUtc></StartTime><FrequencyChanges><FrequencyChange><Frequency dt:dt=""r8"">3215244</Frequency><Timestamp dt:dt=""r8"">6568749424949</Timestamp><Current dt:dt=""r8"">0</Current><DateUtc dt:dt=""string"">2018-10-15T16:23:20Z</DateUtc></FrequencyChange></FrequencyChanges></Clock>\n",KW_Experiment5A-20-1,59.947,1.0.0.105,2,1745082179,Professional,2.0.10.353,2.0.10.353,10/15/2018,10/15/2018 16:23,12:23:20,2.0.10.248,2,2,1,2,,,,,,,,TrainingProc,BlockList,29,2,Distractor2.bmp,2,0,,0,1,2832439,501,,0,0,yellow,500,2,500,,horizontal,yellow,Distractor2.bmp,blue,Distractor1.bmp,red,Target2.bmp,purple,Distractor2.bmp,cyan,Distractor1.bmp,lime,Distractor2.bmp,,,,TrialProc,2,TrainingTrialList,1,2,-999999,1,2832940,0,2,615,2833555,Target2.bmp,red,2,,,,9,3,29
KW_Experiment5A,20,1,"<?xml version=""1.0""?>\n<Clock xmlns:dt=""urn:schemas-microsoft-com:datatypes""><Description dt:dt=""string"">E-Prime Primary Realtime Clock</Description><StartTime><Timestamp dt:dt=""int"">0</Timestamp><DateUtc dt:dt=""string"">2018-10-15T16:23:20Z</DateUtc></StartTime><FrequencyChanges><FrequencyChange><Frequency dt:dt=""r8"">3215244</Frequency><Timestamp dt:dt=""r8"">6568749424949</Timestamp><Current dt:dt=""r8"">0</Current><DateUtc dt:dt=""string"">2018-10-15T16:23:20Z</DateUtc></FrequencyChange></FrequencyChanges></Clock>\n",KW_Experiment5A-20-1,59.947,1.0.0.105,2,1745082179,Professional,2.0.10.353,2.0.10.353,10/15/2018,10/15/2018 16:23,12:23:20,2.0.10.248,2,2,1,2,,,,,,,,TrainingProc,BlockList,30,2,Distractor1.bmp,1,0,,0,1,2834574,501,,0,0,cyan,500,2,500,,horizontal,cyan,Distractor2.bmp,red,Target2.bmp,yellow,Distractor1.bmp,purple,Distractor2.bmp,blue,Distractor2.bmp,lime,Distractor1.bmp,,,,TrialProc,4,TrainingTrialList,1,2,-999999,1,2835075,0,2,576,2835651,Target2.bmp,red,2,,,,8,3,30
KW_Experiment5A,20,1,"<?xml version=""1.0""?>\n<Clock xmlns:dt=""urn:schemas-microsoft-com:datatypes""><Description dt:dt=""string"">E-Prime Primary Realtime Clock</Description><StartTime><Timestamp dt:dt=""int"">0</Timestamp><DateUtc dt:dt=""string"">2018-10-15T16:23:20Z</DateUtc></StartTime><FrequencyChanges><FrequencyChange><Frequency dt:dt=""r8"">3215244</Frequency><Timestamp dt:dt=""r8"">6568749424949</Timestamp><Current dt:dt=""r8"">0</Current><DateUtc dt:dt=""string"">2018-10-15T16:23:20Z</DateUtc></FrequencyChange></FrequencyChanges></Clock>\n",KW_Experiment5A-20-1,59.947,1.0.0.105,2,1745082179,Professional,2.0.10.353,2.0.10.353,10/15/2018,10/15/2018 16:23,12:23:20,2.0.10.248,2,2,1,2,,,,,,,,TrainingProc,BlockList,31,2,Distractor1.bmp,1,0,,0,1,2836676,401,,0,0,yellow,400,1,400,2,horizontal,yellow,Distractor1.bmp,blue,Distractor1.bmp,purple,Distractor2.bmp,cyan,Distractor2.bmp,red,Distractor1.bmp,lime,Target2.bmp,,,,TrialProc,,TrainingTrialList,1,2,-999999,1,2837077,0,2,806,2837883,Target2.bmp,lime,2,,,,6,3,31
KW_Experiment5A,20,1,"<?xml version=""1.0""?>\n<Clock xmlns:dt=""urn:schemas-microsoft-com:datatypes""><Description dt:dt=""string"">E-Prime Primary Realtime Clock</Description><StartTime><Timestamp dt:dt=""int"">0</Timestamp><DateUtc dt:dt=""string"">2018-10-15T16:23:20Z</DateUtc></StartTime><FrequencyChanges><FrequencyChange><Frequency dt:dt=""r8"">3215244</Frequency><Timestamp dt:dt=""r8"">6568749424949</Timestamp><Current dt:dt=""r8"">0</Current><DateUtc dt:dt=""string"">2018-10-15T16:23:20Z</DateUtc></FrequencyChange></FrequencyChanges></Clock>\n",KW_Experiment5A-20-1,59.947,1.0.0.105,2,1745082179,Professional,2.0.10.353,2.0.10.353,10/15/2018,10/15/2018 16:23,12:23:20,2.0.10.248,2,2,1,2,,,,,,,,TrainingProc,BlockList,32,2,Distractor1.bmp,1,0,,0,1,2838895,601,,0,0,yellow,600,3,600,,horizontal,red,Target2.bmp,cyan,Distractor1.bmp,lime,Distractor1.bmp,blue,Distractor1.bmp,purple,Distractor1.bmp,yellow,Distractor1.bmp,,,,TrialProc,2,TrainingTrialList,1,2,-999999,1,2839496,0,2,507,2840003,Target2.bmp,red,2,,,,7,3,32
KW_Experiment5A,20,1,"<?xml version=""1.0""?>\n<Clock xmlns:dt=""urn:schemas-microsoft-com:datatypes""><Description dt:dt=""string"">E-Prime Primary Realtime Clock</Description><StartTime><Timestamp dt:dt=""int"">0</Timestamp><DateUtc dt:dt=""string"">2018-10-15T16:23:20Z</DateUtc></StartTime><FrequencyChanges><FrequencyChange><Frequency dt:dt=""r8"">3215244</Frequency><Timestamp dt:dt=""r8"">6568749424949</Timestamp><Current dt:dt=""r8"">0</Current><DateUtc dt:dt=""string"">2018-10-15T16:23:20Z</DateUtc></FrequencyChange></FrequencyChanges></Clock>\n",KW_Experiment5A-20-1,59.947,1.0.0.105,2,1745082179,Professional,2.0.10.353,2.0.10.353,10/15/2018,10/15/2018 16:23,12:23:20,2.0.10.248,2,2,1,2,,,,,,,,TrainingProc,BlockList,33,2,Distractor1.bmp,1,0,,0,1,2841014,600,,0,0,cyan,600,3,600,,horizontal,red,Target2.bmp,lime,Distractor1.bmp,yellow,Distractor2.bmp,blue,Distractor2.bmp,purple,Distractor1.bmp,cyan,Distractor1.bmp,,,,TrialProc,4,TrainingTrialList,1,2,-999999,0,2841614,0,2,429,2842043,Target2.bmp,red,2,,,,7,3,33
KW_Experiment5A,20,1,"<?xml version=""1.0""?>\n<Clock xmlns:dt=""urn:schemas-microsoft-com:datatypes""><Description dt:dt=""string"">E-Prime Primary Realtime Clock</Description><StartTime><Timestamp dt:dt=""int"">0</Timestamp><DateUtc dt:dt=""string"">2018-10-15T16:23:20Z</DateUtc></StartTime><FrequencyChanges><FrequencyChange><Frequency dt:dt=""r8"">3215244</Frequency><Timestamp dt:dt=""r8"">6568749424949</Timestamp><Current dt:dt=""r8"">0</Current><DateUtc dt:dt=""string"">2018-10-15T16:23:20Z</DateUtc></FrequencyChange></FrequencyChanges></Clock>\n",KW_Experiment5A-20-1,59.947,1.0.0.105,2,1745082179,Professional,2.0.10.353,2.0.10.353,10/15/2018,10/15/2018 16:23,12:23:20,2.0.10.248,2,2,1,2,,,,,,,,TrainingProc,BlockList,34,2,Distractor1.bmp,1,0,,0,1,2843066,400,,0,0,red,400,1,400,1,horizontal,red,Distractor1.bmp,purple,Distractor1.bmp,cyan,Distractor1.bmp,yellow,Distractor2.bmp,lime,Target2.bmp,blue,Distractor1.bmp,,,,TrialProc,,TrainingTrialList,1,2,-999999,0,2843466,0,2,753,2844219,Target2.bmp,lime,2,,,,5,3,34
KW_Experiment5A,20,1,"<?xml version=""1.0""?>\n<Clock xmlns:dt=""urn:schemas-microsoft-com:datatypes""><Description dt:dt=""string"">E-Prime Primary Realtime Clock</Description><StartTime><Timestamp dt:dt=""int"">0</Timestamp><DateUtc dt:dt=""string"">2018-10-15T16:23:20Z</DateUtc></StartTime><FrequencyChanges><FrequencyChange><Frequency dt:dt=""r8"">3215244</Frequency><Timestamp dt:dt=""r8"">6568749424949</Timestamp><Current dt:dt=""r8"">0</Current><DateUtc dt:dt=""string"">2018-10-15T16:23:20Z</DateUtc></FrequencyChange></FrequencyChanges></Clock>\n",KW_Experiment5A-20-1,59.947,1.0.0.105,2,1745082179,Professional,2.0.10.353,2.0.10.353,10/15/2018,10/15/2018 16:23,12:23:20,2.0.10.248,2,2,1,2,,,,,,,,TrainingProc,BlockList,35,2,Distractor1.bmp,1,0,,0,1,2845234,401,,0,0,cyan,400,1,400,,horizontal,cyan,Distractor1.bmp,purple,Distractor1.bmp,yellow,Distractor2.bmp,red,Target2.bmp,blue,Distractor1.bmp,lime,Distractor2.bmp,,,,TrialProc,4,TrainingTrialList,0,2,-999999,1,2845635,0,1,664,2846299,Target2.bmp,red,2,,,,10,3,35
KW_Experiment5A,20,1,"<?xml version=""1.0""?>\n<Clock xmlns:dt=""urn:schemas-microsoft-com:datatypes""><Description dt:dt=""string"">E-Prime Primary Realtime Clock</Description><StartTime><Timestamp dt:dt=""int"">0</Timestamp><DateUtc dt:dt=""string"">2018-10-15T16:23:20Z</DateUtc></StartTime><FrequencyChanges><FrequencyChange><Frequency dt:dt=""r8"">3215244</Frequency><Timestamp dt:dt=""r8"">6568749424949</Timestamp><Current dt:dt=""r8"">0</Current><DateUtc dt:dt=""string"">2018-10-15T16:23:20Z</DateUtc></FrequencyChange></FrequencyChanges></Clock>\n",KW_Experiment5A-20-1,59.947,1.0.0.105,2,1745082179,Professional,2.0.10.353,2.0.10.353,10/15/2018,10/15/2018 16:23,12:23:20,2.0.10.248,2,2,1,2,,,,,,,,TrainingProc,BlockList,36,1,Distractor2.bmp,2,0,,0,1,2847319,501,,0,0,cyan,500,2,500,,vertical,cyan,Distractor1.bmp,lime,Distractor1.bmp,red,Target1.bmp,purple,Distractor2.bmp,blue,Distractor1.bmp,yellow,Distractor2.bmp,,,,TrialProc,4,TrainingTrialList,1,1,-999999,1,2847820,0,1,759,2848579,Target1.bmp,red,1,,,,9,3,36
KW_Experiment5A,20,1,"<?xml version=""1.0""?>\n<Clock xmlns:dt=""urn:schemas-microsoft-com:datatypes""><Description dt:dt=""string"">E-Prime Primary Realtime Clock</Description><StartTime><Timestamp dt:dt=""int"">0</Timestamp><DateUtc dt:dt=""string"">2018-10-15T16:23:20Z</DateUtc></StartTime><FrequencyChanges><FrequencyChange><Frequency dt:dt=""r8"">3215244</Frequency><Timestamp dt:dt=""r8"">6568749424949</Timestamp><Current dt:dt=""r8"">0</Current><DateUtc dt:dt=""string"">2018-10-15T16:23:20Z</DateUtc></FrequencyChange></FrequencyChanges></Clock>\n",KW_Experiment5A-20-1,59.947,1.0.0.105,2,1745082179,Professional,2.0.10.353,2.0.10.353,10/15/2018,10/15/2018 16:23,12:23:20,2.0.10.248,2,2,1,2,,,,,,,,TrainingProc,BlockList,37,2,Distractor2.bmp,2,0,,0,1,2849588,601,,0,0,yellow,600,3,600,,horizontal,yellow,Distractor1.bmp,red,Target2.bmp,purple,Distractor2.bmp,cyan,Distractor2.bmp,blue,Distractor1.bmp,lime,Distractor2.bmp,,,,TrialProc,2,TrainingTrialList,1,2,-999999,1,2850189,0,2,494,2850683,Target2.bmp,red,2,,,,8,3,37
KW_Experiment5A,20,1,"<?xml version=""1.0""?>\n<Clock xmlns:dt=""urn:schemas-microsoft-com:datatypes""><Description dt:dt=""string"">E-Prime Primary Realtime Clock</Description><StartTime><Timestamp dt:dt=""int"">0</Timestamp><DateUtc dt:dt=""string"">2018-10-15T16:23:20Z</DateUtc></StartTime><FrequencyChanges><FrequencyChange><Frequency dt:dt=""r8"">3215244</Frequency><Timestamp dt:dt=""r8"">6568749424949</Timestamp><Current dt:dt=""r8"">0</Current><DateUtc dt:dt=""string"">2018-10-15T16:23:20Z</DateUtc></FrequencyChange></FrequencyChanges></Clock>\n",KW_Experiment5A-20-1,59.947,1.0.0.105,2,1745082179,Professional,2.0.10.353,2.0.10.353,10/15/2018,10/15/2018 16:23,12:23:20,2.0.10.248,2,2,1,2,,,,,,,,TrainingProc,BlockList,38,1,Distractor1.bmp,1,0,,0,1,2851707,500,,0,0,yellow,500,2,500,,vertical,yellow,Distractor1.bmp,cyan,Distractor2.bmp,lime,Distractor1.bmp,purple,Distractor2.bmp,blue,Distractor1.bmp,red,Target1.bmp,,,,TrialProc,2,TrainingTrialList,1,1,-999999,0,2852207,0,1,652,2852859,Target1.bmp,red,1,,,,12,3,38
KW_Experiment5A,20,1,"<?xml version=""1.0""?>\n<Clock xmlns:dt=""urn:schemas-microsoft-com:datatypes""><Description dt:dt=""string"">E-Prime Primary Realtime Clock</Description><StartTime><Timestamp dt:dt=""int"">0</Timestamp><DateUtc dt:dt=""string"">2018-10-15T16:23:20Z</DateUtc></StartTime><FrequencyChanges><FrequencyChange><Frequency dt:dt=""r8"">3215244</Frequency><Timestamp dt:dt=""r8"">6568749424949</Timestamp><Current dt:dt=""r8"">0</Current><DateUtc dt:dt=""string"">2018-10-15T16:23:20Z</DateUtc></FrequencyChange></FrequencyChanges></Clock>\n",KW_Experiment5A-20-1,59.947,1.0.0.105,2,1745082179,Professional,2.0.10.353,2.0.10.353,10/15/2018,10/15/2018 16:23,12:23:20,2.0.10.248,2,2,1,2,,,,,,,,TrainingProc,BlockList,39,2,Distractor1.bmp,1,0,,0,1,2853876,500,,0,0,red,500,2,500,1,horizontal,red,Distractor1.bmp,blue,Distractor2.bmp,purple,Distractor2.bmp,lime,Target2.bmp,yellow,Distractor1.bmp,cyan,Distractor2.bmp,,,,TrialProc,,TrainingTrialList,1,2,-999999,0,2854376,0,2,883,2855259,Target2.bmp,lime,2,,,,4,3,39
KW_Experiment5A,20,1,"<?xml version=""1.0""?>\n<Clock xmlns:dt=""urn:schemas-microsoft-com:datatypes""><Description dt:dt=""string"">E-Prime Primary Realtime Clock</Description><StartTime><Timestamp dt:dt=""int"">0</Timestamp><DateUtc dt:dt=""string"">2018-10-15T16:23:20Z</DateUtc></StartTime><FrequencyChanges><FrequencyChange><Frequency dt:dt=""r8"">3215244</Frequency><Timestamp dt:dt=""r8"">6568749424949</Timestamp><Current dt:dt=""r8"">0</Current><DateUtc dt:dt=""string"">2018-10-15T16:23:20Z</DateUtc></FrequencyChange></FrequencyChanges></Clock>\n",KW_Experiment5A-20-1,59.947,1.0.0.105,2,1745082179,Professional,2.0.10.353,2.0.10.353,10/15/2018,10/15/2018 16:23,12:23:20,2.0.10.248,2,2,1,2,,,,,,,,TrainingProc,BlockList,40,1,Distractor2.bmp,2,0,,0,1,2856278,500,,0,0,yellow,500,2,500,,vertical,yellow,Distractor2.bmp,red,Target1.bmp,purple,Distractor2.bmp,cyan,Distractor1.bmp,lime,Distractor1.bmp,blue,Distractor2.bmp,,,,TrialProc,2,TrainingTrialList,1,1,-999999,0,2856778,0,1,529,2857307,Target1.bmp,red,1,,,,8,3,40
KW_Experiment5A,20,1,"<?xml version=""1.0""?>\n<Clock xmlns:dt=""urn:schemas-microsoft-com:datatypes""><Description dt:dt=""string"">E-Prime Primary Realtime Clock</Description><StartTime><Timestamp dt:dt=""int"">0</Timestamp><DateUtc dt:dt=""string"">2018-10-15T16:23:20Z</DateUtc></StartTime><FrequencyChanges><FrequencyChange><Frequency dt:dt=""r8"">3215244</Frequency><Timestamp dt:dt=""r8"">6568749424949</Timestamp><Current dt:dt=""r8"">0</Current><DateUtc dt:dt=""string"">2018-10-15T16:23:20Z</DateUtc></FrequencyChange></FrequencyChanges></Clock>\n",KW_Experiment5A-20-1,59.947,1.0.0.105,2,1745082179,Professional,2.0.10.353,2.0.10.353,10/15/2018,10/15/2018 16:23,12:23:20,2.0.10.248,2,2,1,2,,,,,,,,TrainingProc,BlockList,41,2,Distractor1.bmp,1,0,,0,1,2858330,600,,0,0,blue,600,3,600,,horizontal,blue,Distractor2.bmp,yellow,Distractor1.bmp,cyan,Distractor1.bmp,purple,Distractor1.bmp,red,Target2.bmp,lime,Distractor1.bmp,,,,TrialProc,3,TrainingTrialList,1,2,-999999,0,2858930,0,2,561,2859491,Target2.bmp,red,2,,,,11,3,41
KW_Experiment5A,20,1,"<?xml version=""1.0""?>\n<Clock xmlns:dt=""urn:schemas-microsoft-com:datatypes""><Description dt:dt=""string"">E-Prime Primary Realtime Clock</Description><StartTime><Timestamp dt:dt=""int"">0</Timestamp><DateUtc dt:dt=""string"">2018-10-15T16:23:20Z</DateUtc></StartTime><FrequencyChanges><FrequencyChange><Frequency dt:dt=""r8"">3215244</Frequency><Timestamp dt:dt=""r8"">6568749424949</Timestamp><Current dt:dt=""r8"">0</Current><DateUtc dt:dt=""string"">2018-10-15T16:23:20Z</DateUtc></FrequencyChange></FrequencyChanges></Clock>\n",KW_Experiment5A-20-1,59.947,1.0.0.105,2,1745082179,Professional,2.0.10.353,2.0.10.353,10/15/2018,10/15/2018 16:23,12:23:20,2.0.10.248,2,2,1,2,,,,,,,,TrainingProc,BlockList,42,2,Distractor2.bmp,2,0,,0,1,2860515,500,,0,0,blue,500,2,500,,horizontal,blue,Distractor2.bmp,purple,Distractor1.bmp,red,Target2.bmp,lime,Distractor2.bmp,yellow,Distractor2.bmp,cyan,Distractor1.bmp,,,,TrialProc,3,TrainingTrialList,1,2,-999999,0,2861015,0,2,516,2861531,Target2.bmp,red,2,,,,9,3,42
KW_Experiment5A,20,1,"<?xml version=""1.0""?>\n<Clock xmlns:dt=""urn:schemas-microsoft-com:datatypes""><Description dt:dt=""string"">E-Prime Primary Realtime Clock</Description><StartTime><Timestamp dt:dt=""int"">0</Timestamp><DateUtc dt:dt=""string"">2018-10-15T16:23:20Z</DateUtc></StartTime><FrequencyChanges><FrequencyChange><Frequency dt:dt=""r8"">3215244</Frequency><Timestamp dt:dt=""r8"">6568749424949</Timestamp><Current dt:dt=""r8"">0</Current><DateUtc dt:dt=""string"">2018-10-15T16:23:20Z</DateUtc></FrequencyChange></FrequencyChanges></Clock>\n",KW_Experiment5A-20-1,59.947,1.0.0.105,2,1745082179,Professional,2.0.10.353,2.0.10.353,10/15/2018,10/15/2018 16:23,12:23:20,2.0.10.248,2,2,1,2,,,,,,,,TrainingProc,BlockList,43,1,Distractor2.bmp,2,0,,0,1,2862550,401,,0,0,purple,400,1,400,,vertical,purple,Distractor2.bmp,lime,Distractor2.bmp,blue,Distractor2.bmp,cyan,Distractor2.bmp,red,Target1.bmp,yellow,Distractor2.bmp,,,,TrialProc,5,TrainingTrialList,1,1,-999999,1,2862951,0,1,580,2863531,Target1.bmp,red,1,,,,11,3,43
KW_Experiment5A,20,1,"<?xml version=""1.0""?>\n<Clock xmlns:dt=""urn:schemas-microsoft-com:datatypes""><Description dt:dt=""string"">E-Prime Primary Realtime Clock</Description><StartTime><Timestamp dt:dt=""int"">0</Timestamp><DateUtc dt:dt=""string"">2018-10-15T16:23:20Z</DateUtc></StartTime><FrequencyChanges><FrequencyChange><Frequency dt:dt=""r8"">3215244</Frequency><Timestamp dt:dt=""r8"">6568749424949</Timestamp><Current dt:dt=""r8"">0</Current><DateUtc dt:dt=""string"">2018-10-15T16:23:20Z</DateUtc></FrequencyChange></FrequencyChanges></Clock>\n",KW_Experiment5A-20-1,59.947,1.0.0.105,2,1745082179,Professional,2.0.10.353,2.0.10.353,10/15/2018,10/15/2018 16:23,12:23:20,2.0.10.248,2,2,1,2,,,,,,,,TrainingProc,BlockList,44,1,Distractor1.bmp,1,0,,0,1,2864552,601,,0,0,yellow,600,3,600,,vertical,yellow,Distractor1.bmp,blue,Distractor2.bmp,cyan,Distractor1.bmp,purple,Distractor2.bmp,lime,Distractor1.bmp,red,Target1.bmp,,,,TrialProc,2,TrainingTrialList,1,1,-999999,1,2865153,0,1,466,2865619,Target1.bmp,red,1,,,,12,3,44
KW_Experiment5A,20,1,"<?xml version=""1.0""?>\n<Clock xmlns:dt=""urn:schemas-microsoft-com:datatypes""><Description dt:dt=""string"">E-Prime Primary Realtime Clock</Description><StartTime><Timestamp dt:dt=""int"">0</Timestamp><DateUtc dt:dt=""string"">2018-10-15T16:23:20Z</DateUtc></StartTime><FrequencyChanges><FrequencyChange><Frequency dt:dt=""r8"">3215244</Frequency><Timestamp dt:dt=""r8"">6568749424949</Timestamp><Current dt:dt=""r8"">0</Current><DateUtc dt:dt=""string"">2018-10-15T16:23:20Z</DateUtc></FrequencyChange></FrequencyChanges></Clock>\n",KW_Experiment5A-20-1,59.947,1.0.0.105,2,1745082179,Professional,2.0.10.353,2.0.10.353,10/15/2018,10/15/2018 16:23,12:23:20,2.0.10.248,2,2,1,2,,,,,,,,TrainingProc,BlockList,45,2,Distractor2.bmp,2,0,,0,1,2866637,501,,0,0,cyan,500,2,500,4,horizontal,cyan,Distractor2.bmp,lime,Target2.bmp,purple,Distractor2.bmp,red,Distractor1.bmp,blue,Distractor2.bmp,yellow,Distractor1.bmp,,,,TrialProc,,TrainingTrialList,1,2,-999999,1,2867138,0,2,545,2867683,Target2.bmp,lime,2,,,,2,3,45
KW_Experiment5A,20,1,"<?xml version=""1.0""?>\n<Clock xmlns:dt=""urn:schemas-microsoft-com:datatypes""><Description dt:dt=""string"">E-Prime Primary Realtime Clock</Description><StartTime><Timestamp dt:dt=""int"">0</Timestamp><DateUtc dt:dt=""string"">2018-10-15T16:23:20Z</DateUtc></StartTime><FrequencyChanges><FrequencyChange><Frequency dt:dt=""r8"">3215244</Frequency><Timestamp dt:dt=""r8"">6568749424949</Timestamp><Current dt:dt=""r8"">0</Current><DateUtc dt:dt=""string"">2018-10-15T16:23:20Z</DateUtc></FrequencyChange></FrequencyChanges></Clock>\n",KW_Experiment5A-20-1,59.947,1.0.0.105,2,1745082179,Professional,2.0.10.353,2.0.10.353,10/15/2018,10/15/2018 16:23,12:23:20,2.0.10.248,2,2,1,2,,,,,,,,TrainingProc,BlockList,46,2,Distractor2.bmp,2,0,,0,1,2868706,400,,0,0,yellow,400,1,400,,horizontal,red,Target2.bmp,blue,Distractor2.bmp,purple,Distractor2.bmp,cyan,Distractor2.bmp,lime,Distractor2.bmp,yellow,Distractor1.bmp,,,,TrialProc,2,TrainingTrialList,1,2,-999999,0,2869106,0,2,505,2869611,Target2.bmp,red,2,,,,7,3,46
KW_Experiment5A,20,1,"<?xml version=""1.0""?>\n<Clock xmlns:dt=""urn:schemas-microsoft-com:datatypes""><Description dt:dt=""string"">E-Prime Primary Realtime Clock</Description><StartTime><Timestamp dt:dt=""int"">0</Timestamp><DateUtc dt:dt=""string"">2018-10-15T16:23:20Z</DateUtc></StartTime><FrequencyChanges><FrequencyChange><Frequency dt:dt=""r8"">3215244</Frequency><Timestamp dt:dt=""r8"">6568749424949</Timestamp><Current dt:dt=""r8"">0</Current><DateUtc dt:dt=""string"">2018-10-15T16:23:20Z</DateUtc></FrequencyChange></FrequencyChanges></Clock>\n",KW_Experiment5A-20-1,59.947,1.0.0.105,2,1745082179,Professional,2.0.10.353,2.0.10.353,10/15/2018,10/15/2018 16:23,12:23:20,2.0.10.248,2,2,1,2,,,,,,,,TrainingProc,BlockList,47,1,Distractor1.bmp,1,0,,0,1,2870624,401,,0,0,lime,400,1,400,,vertical,lime,Distractor1.bmp,blue,Distractor1.bmp,yellow,Distractor1.bmp,purple,Distractor2.bmp,cyan,Distractor2.bmp,red,Target1.bmp,,,,TrialProc,6,TrainingTrialList,1,1,-999999,1,2871025,0,1,434,2871459,Target1.bmp,red,1,,,,12,3,47
KW_Experiment5A,20,1,"<?xml version=""1.0""?>\n<Clock xmlns:dt=""urn:schemas-microsoft-com:datatypes""><Description dt:dt=""string"">E-Prime Primary Realtime Clock</Description><StartTime><Timestamp dt:dt=""int"">0</Timestamp><DateUtc dt:dt=""string"">2018-10-15T16:23:20Z</DateUtc></StartTime><FrequencyChanges><FrequencyChange><Frequency dt:dt=""r8"">3215244</Frequency><Timestamp dt:dt=""r8"">6568749424949</Timestamp><Current dt:dt=""r8"">0</Current><DateUtc dt:dt=""string"">2018-10-15T16:23:20Z</DateUtc></FrequencyChange></FrequencyChanges></Clock>\n",KW_Experiment5A-20-1,59.947,1.0.0.105,2,1745082179,Professional,2.0.10.353,2.0.10.353,10/15/2018,10/15/2018 16:23,12:23:20,2.0.10.248,2,2,1,2,,,,,,,,TrainingProc,BlockList,48,1,Distractor1.bmp,1,0,,0,1,2872476,601,,0,0,cyan,600,3,600,4,vertical,cyan,Distractor1.bmp,blue,Distractor2.bmp,lime,Target1.bmp,red,Distractor1.bmp,yellow,Distractor2.bmp,purple,Distractor1.bmp,,,,TrialProc,,TrainingTrialList,0,1,-999999,1,2873077,0,2,758,2873835,Target1.bmp,lime,1,,,,3,3,48
KW_Experiment5A,20,1,"<?xml version=""1.0""?>\n<Clock xmlns:dt=""urn:schemas-microsoft-com:datatypes""><Description dt:dt=""string"">E-Prime Primary Realtime Clock</Description><StartTime><Timestamp dt:dt=""int"">0</Timestamp><DateUtc dt:dt=""string"">2018-10-15T16:23:20Z</DateUtc></StartTime><FrequencyChanges><FrequencyChange><Frequency dt:dt=""r8"">3215244</Frequency><Timestamp dt:dt=""r8"">6568749424949</Timestamp><Current dt:dt=""r8"">0</Current><DateUtc dt:dt=""string"">2018-10-15T16:23:20Z</DateUtc></FrequencyChange></FrequencyChanges></Clock>\n",KW_Experiment5A-20-1,59.947,1.0.0.105,2,1745082179,Professional,2.0.10.353,2.0.10.353,10/15/2018,10/15/2018 16:23,12:23:20,2.0.10.248,3,2,1,3,,,,,,,,TrainingProc,BlockList,1,2,Distractor1.bmp,1,0,,0,31,2877514,500,,0,0,purple,500,2,500,,horizontal,purple,Distractor2.bmp,red,Target2.bmp,cyan,Distractor1.bmp,lime,Distractor1.bmp,yellow,Distractor2.bmp,blue,Distractor1.bmp,,,,TrialProc,5,TrainingTrialList,1,2,-999999,0,2878014,0,2,701,2878715,Target2.bmp,red,2,,,,8,4,49
KW_Experiment5A,20,1,"<?xml version=""1.0""?>\n<Clock xmlns:dt=""urn:schemas-microsoft-com:datatypes""><Description dt:dt=""string"">E-Prime Primary Realtime Clock</Description><StartTime><Timestamp dt:dt=""int"">0</Timestamp><DateUtc dt:dt=""string"">2018-10-15T16:23:20Z</DateUtc></StartTime><FrequencyChanges><FrequencyChange><Frequency dt:dt=""r8"">3215244</Frequency><Timestamp dt:dt=""r8"">6568749424949</Timestamp><Current dt:dt=""r8"">0</Current><DateUtc dt:dt=""string"">2018-10-15T16:23:20Z</DateUtc></FrequencyChange></FrequencyChanges></Clock>\n",KW_Experiment5A-20-1,59.947,1.0.0.105,2,1745082179,Professional,2.0.10.353,2.0.10.353,10/15/2018,10/15/2018 16:23,12:23:20,2.0.10.248,3,2,1,3,,,,,,,,TrainingProc,BlockList,2,1,Distractor2.bmp,2,0,,0,1,2879733,600,,0,0,blue,600,3,600,,vertical,blue,Distractor1.bmp,yellow,Distractor1.bmp,purple,Distractor2.bmp,red,Target1.bmp,lime,Distractor2.bmp,cyan,Distractor2.bmp,,,,TrialProc,3,TrainingTrialList,1,1,-999999,0,2880333,0,1,645,2880978,Target1.bmp,red,1,,,,10,4,50
KW_Experiment5A,20,1,"<?xml version=""1.0""?>\n<Clock xmlns:dt=""urn:schemas-microsoft-com:datatypes""><Description dt:dt=""string"">E-Prime Primary Realtime Clock</Description><StartTime><Timestamp dt:dt=""int"">0</Timestamp><DateUtc dt:dt=""string"">2018-10-15T16:23:20Z</DateUtc></StartTime><FrequencyChanges><FrequencyChange><Frequency dt:dt=""r8"">3215244</Frequency><Timestamp dt:dt=""r8"">6568749424949</Timestamp><Current dt:dt=""r8"">0</Current><DateUtc dt:dt=""string"">2018-10-15T16:23:20Z</DateUtc></FrequencyChange></FrequencyChanges></Clock>\n",KW_Experiment5A-20-1,59.947,1.0.0.105,2,1745082179,Professional,2.0.10.353,2.0.10.353,10/15/2018,10/15/2018 16:23,12:23:20,2.0.10.248,3,2,1,3,,,,,,,,TrainingProc,BlockList,3,2,Distractor2.bmp,2,0,,0,0,2882001,501,,0,0,lime,500,2,500,,horizontal,lime,Distractor1.bmp,cyan,Distractor1.bmp,yellow,Distractor2.bmp,purple,Distractor2.bmp,red,Target2.bmp,blue,Distractor2.bmp,,,,TrialProc,6,TrainingTrialList,1,2,-999999,1,2882502,0,2,692,2883194,Target2.bmp,red,2,,,,11,4,51
KW_Experiment5A,20,1,"<?xml version=""1.0""?>\n<Clock xmlns:dt=""urn:schemas-microsoft-com:datatypes""><Description dt:dt=""string"">E-Prime Primary Realtime Clock</Description><StartTime><Timestamp dt:dt=""int"">0</Timestamp><DateUtc dt:dt=""string"">2018-10-15T16:23:20Z</DateUtc></StartTime><FrequencyChanges><FrequencyChange><Frequency dt:dt=""r8"">3215244</Frequency><Timestamp dt:dt=""r8"">6568749424949</Timestamp><Current dt:dt=""r8"">0</Current><DateUtc dt:dt=""string"">2018-10-15T16:23:20Z</DateUtc></FrequencyChange></FrequencyChanges></Clock>\n",KW_Experiment5A-20-1,59.947,1.0.0.105,2,1745082179,Professional,2.0.10.353,2.0.10.353,10/15/2018,10/15/2018 16:23,12:23:20,2.0.10.248,3,2,1,3,,,,,,,,TrainingProc,BlockList,4,1,Distractor1.bmp,1,0,,0,1,2884220,401,,0,0,red,400,1,400,1,vertical,lime,Target1.bmp,red,Distractor1.bmp,blue,Distractor2.bmp,purple,Distractor2.bmp,cyan,Distractor1.bmp,yellow,Distractor1.bmp,,,,TrialProc,,TrainingTrialList,1,1,-999999,1,2884621,0,1,541,2885162,Target1.bmp,lime,1,,,,1,4,52
KW_Experiment5A,20,1,"<?xml version=""1.0""?>\n<Clock xmlns:dt=""urn:schemas-microsoft-com:datatypes""><Description dt:dt=""string"">E-Prime Primary Realtime Clock</Description><StartTime><Timestamp dt:dt=""int"">0</Timestamp><DateUtc dt:dt=""string"">2018-10-15T16:23:20Z</DateUtc></StartTime><FrequencyChanges><FrequencyChange><Frequency dt:dt=""r8"">3215244</Frequency><Timestamp dt:dt=""r8"">6568749424949</Timestamp><Current dt:dt=""r8"">0</Current><DateUtc dt:dt=""string"">2018-10-15T16:23:20Z</DateUtc></FrequencyChange></FrequencyChanges></Clock>\n",KW_Experiment5A-20-1,59.947,1.0.0.105,2,1745082179,Professional,2.0.10.353,2.0.10.353,10/15/2018,10/15/2018 16:23,12:23:20,2.0.10.248,3,2,1,3,,,,,,,,TrainingProc,BlockList,5,2,Distractor2.bmp,2,0,,0,1,2886172,500,,0,0,blue,500,2,500,,horizontal,blue,Distractor2.bmp,cyan,Distractor1.bmp,purple,Distractor2.bmp,red,Target2.bmp,lime,Distractor2.bmp,yellow,Distractor2.bmp,,,,TrialProc,3,TrainingTrialList,1,2,-999999,0,2886672,0,2,498,2887170,Target2.bmp,red,2,,,,10,4,53
KW_Experiment5A,20,1,"<?xml version=""1.0""?>\n<Clock xmlns:dt=""urn:schemas-microsoft-com:datatypes""><Description dt:dt=""string"">E-Prime Primary Realtime Clock</Description><StartTime><Timestamp dt:dt=""int"">0</Timestamp><DateUtc dt:dt=""string"">2018-10-15T16:23:20Z</DateUtc></StartTime><FrequencyChanges><FrequencyChange><Frequency dt:dt=""r8"">3215244</Frequency><Timestamp dt:dt=""r8"">6568749424949</Timestamp><Current dt:dt=""r8"">0</Current><DateUtc dt:dt=""string"">2018-10-15T16:23:20Z</DateUtc></FrequencyChange></FrequencyChanges></Clock>\n",KW_Experiment5A-20-1,59.947,1.0.0.105,2,1745082179,Professional,2.0.10.353,2.0.10.353,10/15/2018,10/15/2018 16:23,12:23:20,2.0.10.248,3,2,1,3,,,,,,,,TrainingProc,BlockList,6,1,Distractor2.bmp,2,0,,1,0,2888190,401,,0,0,blue,400,1,400,,vertical,blue,Distractor2.bmp,cyan,Distractor2.bmp,lime,Distractor2.bmp,purple,Distractor1.bmp,yellow,Distractor1.bmp,red,Target1.bmp,,,,TrialProc,3,TrainingTrialList,1,1,-999999,1,2888591,0,1,395,2888986,Target1.bmp,red,1,,,,12,4,54
KW_Experiment5A,20,1,"<?xml version=""1.0""?>\n<Clock xmlns:dt=""urn:schemas-microsoft-com:datatypes""><Description dt:dt=""string"">E-Prime Primary Realtime Clock</Description><StartTime><Timestamp dt:dt=""int"">0</Timestamp><DateUtc dt:dt=""string"">2018-10-15T16:23:20Z</DateUtc></StartTime><FrequencyChanges><FrequencyChange><Frequency dt:dt=""r8"">3215244</Frequency><Timestamp dt:dt=""r8"">6568749424949</Timestamp><Current dt:dt=""r8"">0</Current><DateUtc dt:dt=""string"">2018-10-15T16:23:20Z</DateUtc></FrequencyChange></FrequencyChanges></Clock>\n",KW_Experiment5A-20-1,59.947,1.0.0.105,2,1745082179,Professional,2.0.10.353,2.0.10.353,10/15/2018,10/15/2018 16:23,12:23:20,2.0.10.248,3,2,1,3,,,,,,,,TrainingProc,BlockList,7,2,Distractor1.bmp,1,0,,0,1,2890009,500,,0,0,blue,500,2,500,,horizontal,blue,Distractor1.bmp,yellow,Distractor1.bmp,lime,Distractor2.bmp,red,Target2.bmp,cyan,Distractor1.bmp,purple,Distractor1.bmp,,,,TrialProc,3,TrainingTrialList,1,2,-999999,0,2890509,0,2,565,2891074,Target2.bmp,red,2,,,,10,4,55
KW_Experiment5A,20,1,"<?xml version=""1.0""?>\n<Clock xmlns:dt=""urn:schemas-microsoft-com:datatypes""><Description dt:dt=""string"">E-Prime Primary Realtime Clock</Description><StartTime><Timestamp dt:dt=""int"">0</Timestamp><DateUtc dt:dt=""string"">2018-10-15T16:23:20Z</DateUtc></StartTime><FrequencyChanges><FrequencyChange><Frequency dt:dt=""r8"">3215244</Frequency><Timestamp dt:dt=""r8"">6568749424949</Timestamp><Current dt:dt=""r8"">0</Current><DateUtc dt:dt=""string"">2018-10-15T16:23:20Z</DateUtc></FrequencyChange></FrequencyChanges></Clock>\n",KW_Experiment5A-20-1,59.947,1.0.0.105,2,1745082179,Professional,2.0.10.353,2.0.10.353,10/15/2018,10/15/2018 16:23,12:23:20,2.0.10.248,3,2,1,3,,,,,,,,TrainingProc,BlockList,8,1,Distractor2.bmp,2,0,,0,1,2892094,400,,0,0,yellow,400,1,400,,vertical,yellow,Distractor2.bmp,lime,Distractor1.bmp,purple,Distractor1.bmp,cyan,Distractor2.bmp,blue,Distractor2.bmp,red,Target1.bmp,,,,TrialProc,2,TrainingTrialList,1,1,-999999,0,2892494,0,1,364,2892858,Target1.bmp,red,1,,,,12,4,56
KW_Experiment5A,20,1,"<?xml version=""1.0""?>\n<Clock xmlns:dt=""urn:schemas-microsoft-com:datatypes""><Description dt:dt=""string"">E-Prime Primary Realtime Clock</Description><StartTime><Timestamp dt:dt=""int"">0</Timestamp><DateUtc dt:dt=""string"">2018-10-15T16:23:20Z</DateUtc></StartTime><FrequencyChanges><FrequencyChange><Frequency dt:dt=""r8"">3215244</Frequency><Timestamp dt:dt=""r8"">6568749424949</Timestamp><Current dt:dt=""r8"">0</Current><DateUtc dt:dt=""string"">2018-10-15T16:23:20Z</DateUtc></FrequencyChange></FrequencyChanges></Clock>\n",KW_Experiment5A-20-1,59.947,1.0.0.105,2,1745082179,Professional,2.0.10.353,2.0.10.353,10/15/2018,10/15/2018 16:23,12:23:20,2.0.10.248,3,2,1,3,,,,,,,,TrainingProc,BlockList,9,1,Distractor2.bmp,2,0,,0,1,2893879,400,,0,0,lime,400,1,400,,vertical,red,Target1.bmp,blue,Distractor2.bmp,cyan,Distractor2.bmp,purple,Distractor2.bmp,yellow,Distractor1.bmp,lime,Distractor1.bmp,,,,TrialProc,6,TrainingTrialList,1,1,-999999,0,2894279,0,1,451,2894730,Target1.bmp,red,1,,,,7,4,57
KW_Experiment5A,20,1,"<?xml version=""1.0""?>\n<Clock xmlns:dt=""urn:schemas-microsoft-com:datatypes""><Description dt:dt=""string"">E-Prime Primary Realtime Clock</Description><StartTime><Timestamp dt:dt=""int"">0</Timestamp><DateUtc dt:dt=""string"">2018-10-15T16:23:20Z</DateUtc></StartTime><FrequencyChanges><FrequencyChange><Frequency dt:dt=""r8"">3215244</Frequency><Timestamp dt:dt=""r8"">6568749424949</Timestamp><Current dt:dt=""r8"">0</Current><DateUtc dt:dt=""string"">2018-10-15T16:23:20Z</DateUtc></FrequencyChange></FrequencyChanges></Clock>\n",KW_Experiment5A-20-1,59.947,1.0.0.105,2,1745082179,Professional,2.0.10.353,2.0.10.353,10/15/2018,10/15/2018 16:23,12:23:20,2.0.10.248,3,2,1,3,,,,,,,,TrainingProc,BlockList,10,1,Distractor1.bmp,1,0,,0,0,2895747,601,,0,0,blue,600,3,600,,vertical,blue,Distractor1.bmp,lime,Distractor1.bmp,cyan,Distractor2.bmp,purple,Distractor2.bmp,red,Target1.bmp,yellow,Distractor1.bmp,,,,TrialProc,3,TrainingTrialList,1,1,-999999,1,2896348,0,1,582,2896930,Target1.bmp,red,1,,,,11,4,58
KW_Experiment5A,20,1,"<?xml version=""1.0""?>\n<Clock xmlns:dt=""urn:schemas-microsoft-com:datatypes""><Description dt:dt=""string"">E-Prime Primary Realtime Clock</Description><StartTime><Timestamp dt:dt=""int"">0</Timestamp><DateUtc dt:dt=""string"">2018-10-15T16:23:20Z</DateUtc></StartTime><FrequencyChanges><FrequencyChange><Frequency dt:dt=""r8"">3215244</Frequency><Timestamp dt:dt=""r8"">6568749424949</Timestamp><Current dt:dt=""r8"">0</Current><DateUtc dt:dt=""string"">2018-10-15T16:23:20Z</DateUtc></FrequencyChange></FrequencyChanges></Clock>\n",KW_Experiment5A-20-1,59.947,1.0.0.105,2,1745082179,Professional,2.0.10.353,2.0.10.353,10/15/2018,10/15/2018 16:23,12:23:20,2.0.10.248,3,2,1,3,,,,,,,,TrainingProc,BlockList,11,2,Distractor2.bmp,2,0,,1,0,2897949,601,,0,0,yellow,600,3,600,,horizontal,yellow,Distractor2.bmp,red,Target2.bmp,purple,Distractor2.bmp,cyan,Distractor1.bmp,lime,Distractor1.bmp,blue,Distractor2.bmp,,,,TrialProc,2,TrainingTrialList,1,2,-999999,1,2898550,0,2,428,2898978,Target2.bmp,red,2,,,,8,4,59
KW_Experiment5A,20,1,"<?xml version=""1.0""?>\n<Clock xmlns:dt=""urn:schemas-microsoft-com:datatypes""><Description dt:dt=""string"">E-Prime Primary Realtime Clock</Description><StartTime><Timestamp dt:dt=""int"">0</Timestamp><DateUtc dt:dt=""string"">2018-10-15T16:23:20Z</DateUtc></StartTime><FrequencyChanges><FrequencyChange><Frequency dt:dt=""r8"">3215244</Frequency><Timestamp dt:dt=""r8"">6568749424949</Timestamp><Current dt:dt=""r8"">0</Current><DateUtc dt:dt=""string"">2018-10-15T16:23:20Z</DateUtc></FrequencyChange></FrequencyChanges></Clock>\n",KW_Experiment5A-20-1,59.947,1.0.0.105,2,1745082179,Professional,2.0.10.353,2.0.10.353,10/15/2018,10/15/2018 16:23,12:23:20,2.0.10.248,3,2,1,3,,,,,,,,TrainingProc,BlockList,12,2,Distractor2.bmp,2,0,,0,1,2900001,501,,0,0,blue,500,2,500,3,horizontal,blue,Distractor1.bmp,cyan,Distractor1.bmp,lime,Target2.bmp,yellow,Distractor2.bmp,purple,Distractor1.bmp,red,Distractor2.bmp,,,,TrialProc,,TrainingTrialList,1,2,-999999,1,2900502,0,2,868,2901370,Target2.bmp,lime,2,,,,3,4,60
KW_Experiment5A,20,1,"<?xml version=""1.0""?>\n<Clock xmlns:dt=""urn:schemas-microsoft-com:datatypes""><Description dt:dt=""string"">E-Prime Primary Realtime Clock</Description><StartTime><Timestamp dt:dt=""int"">0</Timestamp><DateUtc dt:dt=""string"">2018-10-15T16:23:20Z</DateUtc></StartTime><FrequencyChanges><FrequencyChange><Frequency dt:dt=""r8"">3215244</Frequency><Timestamp dt:dt=""r8"">6568749424949</Timestamp><Current dt:dt=""r8"">0</Current><DateUtc dt:dt=""string"">2018-10-15T16:23:20Z</DateUtc></FrequencyChange></FrequencyChanges></Clock>\n",KW_Experiment5A-20-1,59.947,1.0.0.105,2,1745082179,Professional,2.0.10.353,2.0.10.353,10/15/2018,10/15/2018 16:23,12:23:20,2.0.10.248,3,2,1,3,,,,,,,,TrainingProc,BlockList,13,1,Distractor2.bmp,2,0,,0,1,2902387,500,,0,0,cyan,500,2,500,4,vertical,cyan,Distractor2.bmp,purple,Distractor1.bmp,blue,Distractor1.bmp,lime,Target1.bmp,yellow,Distractor2.bmp,red,Distractor1.bmp,,,,TrialProc,,TrainingTrialList,1,1,-999999,0,2902887,0,1,803,2903690,Target1.bmp,lime,1,,,,4,4,61
KW_Experiment5A,20,1,"<?xml version=""1.0""?>\n<Clock xmlns:dt=""urn:schemas-microsoft-com:datatypes""><Description dt:dt=""string"">E-Prime Primary Realtime Clock</Description><StartTime><Timestamp dt:dt=""int"">0</Timestamp><DateUtc dt:dt=""string"">2018-10-15T16:23:20Z</DateUtc></StartTime><FrequencyChanges><FrequencyChange><Frequency dt:dt=""r8"">3215244</Frequency><Timestamp dt:dt=""r8"">6568749424949</Timestamp><Current dt:dt=""r8"">0</Current><DateUtc dt:dt=""string"">2018-10-15T16:23:20Z</DateUtc></FrequencyChange></FrequencyChanges></Clock>\n",KW_Experiment5A-20-1,59.947,1.0.0.105,2,1745082179,Professional,2.0.10.353,2.0.10.353,10/15/2018,10/15/2018 16:23,12:23:20,2.0.10.248,3,2,1,3,,,,,,,,TrainingProc,BlockList,14,2,Distractor2.bmp,2,0,,0,1,2904706,600,,0,0,blue,600,3,600,,horizontal,blue,Distractor1.bmp,lime,Distractor1.bmp,red,Target2.bmp,purple,Distractor2.bmp,yellow,Distractor1.bmp,cyan,Distractor1.bmp,,,,TrialProc,3,TrainingTrialList,1,2,-999999,0,2905306,0,2,688,2905994,Target2.bmp,red,2,,,,9,4,62
KW_Experiment5A,20,1,"<?xml version=""1.0""?>\n<Clock xmlns:dt=""urn:schemas-microsoft-com:datatypes""><Description dt:dt=""string"">E-Prime Primary Realtime Clock</Description><StartTime><Timestamp dt:dt=""int"">0</Timestamp><DateUtc dt:dt=""string"">2018-10-15T16:23:20Z</DateUtc></StartTime><FrequencyChanges><FrequencyChange><Frequency dt:dt=""r8"">3215244</Frequency><Timestamp dt:dt=""r8"">6568749424949</Timestamp><Current dt:dt=""r8"">0</Current><DateUtc dt:dt=""string"">2018-10-15T16:23:20Z</DateUtc></FrequencyChange></FrequencyChanges></Clock>\n",KW_Experiment5A-20-1,59.947,1.0.0.105,2,1745082179,Professional,2.0.10.353,2.0.10.353,10/15/2018,10/15/2018 16:23,12:23:20,2.0.10.248,3,2,1,3,,,,,,,,TrainingProc,BlockList,15,1,Distractor2.bmp,2,0,,0,1,2907008,500,,0,0,lime,500,2,500,,vertical,lime,Distractor2.bmp,purple,Distractor1.bmp,red,Target1.bmp,blue,Distractor2.bmp,yellow,Distractor2.bmp,cyan,Distractor1.bmp,,,,TrialProc,6,TrainingTrialList,1,1,-999999,0,2907508,0,1,614,2908122,Target1.bmp,red,1,,,,9,4,63
KW_Experiment5A,20,1,"<?xml version=""1.0""?>\n<Clock xmlns:dt=""urn:schemas-microsoft-com:datatypes""><Description dt:dt=""string"">E-Prime Primary Realtime Clock</Description><StartTime><Timestamp dt:dt=""int"">0</Timestamp><DateUtc dt:dt=""string"">2018-10-15T16:23:20Z</DateUtc></StartTime><FrequencyChanges><FrequencyChange><Frequency dt:dt=""r8"">3215244</Frequency><Timestamp dt:dt=""r8"">6568749424949</Timestamp><Current dt:dt=""r8"">0</Current><DateUtc dt:dt=""string"">2018-10-15T16:23:20Z</DateUtc></FrequencyChange></FrequencyChanges></Clock>\n",KW_Experiment5A-20-1,59.947,1.0.0.105,2,1745082179,Professional,2.0.10.353,2.0.10.353,10/15/2018,10/15/2018 16:23,12:23:20,2.0.10.248,3,2,1,3,,,,,,,,TrainingProc,BlockList,16,2,Distractor2.bmp,2,0,,0,1,2909143,501,,0,0,blue,500,2,500,3,horizontal,blue,Distractor2.bmp,lime,Target2.bmp,purple,Distractor2.bmp,yellow,Distractor1.bmp,cyan,Distractor2.bmp,red,Distractor1.bmp,,,,TrialProc,,TrainingTrialList,1,2,-999999,1,2909644,0,2,438,2910082,Target2.bmp,lime,2,,,,2,4,64
KW_Experiment5A,20,1,"<?xml version=""1.0""?>\n<Clock xmlns:dt=""urn:schemas-microsoft-com:datatypes""><Description dt:dt=""string"">E-Prime Primary Realtime Clock</Description><StartTime><Timestamp dt:dt=""int"">0</Timestamp><DateUtc dt:dt=""string"">2018-10-15T16:23:20Z</DateUtc></StartTime><FrequencyChanges><FrequencyChange><Frequency dt:dt=""r8"">3215244</Frequency><Timestamp dt:dt=""r8"">6568749424949</Timestamp><Current dt:dt=""r8"">0</Current><DateUtc dt:dt=""string"">2018-10-15T16:23:20Z</DateUtc></FrequencyChange></FrequencyChanges></Clock>\n",KW_Experiment5A-20-1,59.947,1.0.0.105,2,1745082179,Professional,2.0.10.353,2.0.10.353,10/15/2018,10/15/2018 16:23,12:23:20,2.0.10.248,3,2,1,3,,,,,,,,TrainingProc,BlockList,17,1,Distractor1.bmp,1,0,,0,1,2911095,600,,0,0,yellow,600,3,600,,vertical,red,Target1.bmp,purple,Distractor1.bmp,cyan,Distractor1.bmp,blue,Distractor2.bmp,lime,Distractor2.bmp,yellow,Distractor1.bmp,,,,TrialProc,2,TrainingTrialList,1,1,-999999,0,2911695,0,1,419,2912114,Target1.bmp,red,1,,,,7,4,65
KW_Experiment5A,20,1,"<?xml version=""1.0""?>\n<Clock xmlns:dt=""urn:schemas-microsoft-com:datatypes""><Description dt:dt=""string"">E-Prime Primary Realtime Clock</Description><StartTime><Timestamp dt:dt=""int"">0</Timestamp><DateUtc dt:dt=""string"">2018-10-15T16:23:20Z</DateUtc></StartTime><FrequencyChanges><FrequencyChange><Frequency dt:dt=""r8"">3215244</Frequency><Timestamp dt:dt=""r8"">6568749424949</Timestamp><Current dt:dt=""r8"">0</Current><DateUtc dt:dt=""string"">2018-10-15T16:23:20Z</DateUtc></FrequencyChange></FrequencyChanges></Clock>\n",KW_Experiment5A-20-1,59.947,1.0.0.105,2,1745082179,Professional,2.0.10.353,2.0.10.353,10/15/2018,10/15/2018 16:23,12:23:20,2.0.10.248,3,2,1,3,,,,,,,,TrainingProc,BlockList,18,2,Distractor1.bmp,1,0,,0,1,2913130,601,,0,0,lime,600,3,600,,horizontal,lime,Distractor1.bmp,cyan,Distractor2.bmp,purple,Distractor2.bmp,blue,Distractor1.bmp,yellow,Distractor2.bmp,red,Target2.bmp,,,,TrialProc,6,TrainingTrialList,1,2,-999999,1,2913731,0,2,407,2914138,Target2.bmp,red,2,,,,12,4,66
KW_Experiment5A,20,1,"<?xml version=""1.0""?>\n<Clock xmlns:dt=""urn:schemas-microsoft-com:datatypes""><Description dt:dt=""string"">E-Prime Primary Realtime Clock</Description><StartTime><Timestamp dt:dt=""int"">0</Timestamp><DateUtc dt:dt=""string"">2018-10-15T16:23:20Z</DateUtc></StartTime><FrequencyChanges><FrequencyChange><Frequency dt:dt=""r8"">3215244</Frequency><Timestamp dt:dt=""r8"">6568749424949</Timestamp><Current dt:dt=""r8"">0</Current><DateUtc dt:dt=""string"">2018-10-15T16:23:20Z</DateUtc></FrequencyChange></FrequencyChanges></Clock>\n",KW_Experiment5A-20-1,59.947,1.0.0.105,2,1745082179,Professional,2.0.10.353,2.0.10.353,10/15/2018,10/15/2018 16:23,12:23:20,2.0.10.248,3,2,1,3,,,,,,,,TrainingProc,BlockList,19,1,Distractor2.bmp,2,0,,0,1,2915149,600,,0,0,purple,600,3,600,,vertical,purple,Distractor2.bmp,red,Target1.bmp,lime,Distractor2.bmp,yellow,Distractor1.bmp,blue,Distractor2.bmp,cyan,Distractor1.bmp,,,,TrialProc,5,TrainingTrialList,1,1,-999999,0,2915749,0,1,445,2916194,Target1.bmp,red,1,,,,8,4,67
KW_Experiment5A,20,1,"<?xml version=""1.0""?>\n<Clock xmlns:dt=""urn:schemas-microsoft-com:datatypes""><Description dt:dt=""string"">E-Prime Primary Realtime Clock</Description><StartTime><Timestamp dt:dt=""int"">0</Timestamp><DateUtc dt:dt=""string"">2018-10-15T16:23:20Z</DateUtc></StartTime><FrequencyChanges><FrequencyChange><Frequency dt:dt=""r8"">3215244</Frequency><Timestamp dt:dt=""r8"">6568749424949</Timestamp><Current dt:dt=""r8"">0</Current><DateUtc dt:dt=""string"">2018-10-15T16:23:20Z</DateUtc></FrequencyChange></FrequencyChanges></Clock>\n",KW_Experiment5A-20-1,59.947,1.0.0.105,2,1745082179,Professional,2.0.10.353,2.0.10.353,10/15/2018,10/15/2018 16:23,12:23:20,2.0.10.248,3,2,1,3,,,,,,,,TrainingProc,BlockList,20,2,Distractor2.bmp,2,0,,0,1,2917217,501,,0,0,blue,500,2,500,,horizontal,red,Target2.bmp,purple,Distractor2.bmp,lime,Distractor1.bmp,yellow,Distractor2.bmp,cyan,Distractor2.bmp,blue,Distractor1.bmp,,,,TrialProc,3,TrainingTrialList,0,2,-999999,1,2917718,0,1,468,2918186,Target2.bmp,red,2,,,,7,4,68
KW_Experiment5A,20,1,"<?xml version=""1.0""?>\n<Clock xmlns:dt=""urn:schemas-microsoft-com:datatypes""><Description dt:dt=""string"">E-Prime Primary Realtime Clock</Description><StartTime><Timestamp dt:dt=""int"">0</Timestamp><DateUtc dt:dt=""string"">2018-10-15T16:23:20Z</DateUtc></StartTime><FrequencyChanges><FrequencyChange><Frequency dt:dt=""r8"">3215244</Frequency><Timestamp dt:dt=""r8"">6568749424949</Timestamp><Current dt:dt=""r8"">0</Current><DateUtc dt:dt=""string"">2018-10-15T16:23:20Z</DateUtc></FrequencyChange></FrequencyChanges></Clock>\n",KW_Experiment5A-20-1,59.947,1.0.0.105,2,1745082179,Professional,2.0.10.353,2.0.10.353,10/15/2018,10/15/2018 16:23,12:23:20,2.0.10.248,3,2,1,3,,,,,,,,TrainingProc,BlockList,21,2,Distractor2.bmp,2,0,,0,1,2919202,401,,0,0,yellow,400,1,400,,horizontal,yellow,Distractor1.bmp,cyan,Distractor1.bmp,red,Target2.bmp,lime,Distractor2.bmp,purple,Distractor2.bmp,blue,Distractor2.bmp,,,,TrialProc,2,TrainingTrialList,1,2,-999999,1,2919603,0,2,607,2920210,Target2.bmp,red,2,,,,9,4,69
KW_Experiment5A,20,1,"<?xml version=""1.0""?>\n<Clock xmlns:dt=""urn:schemas-microsoft-com:datatypes""><Description dt:dt=""string"">E-Prime Primary Realtime Clock</Description><StartTime><Timestamp dt:dt=""int"">0</Timestamp><DateUtc dt:dt=""string"">2018-10-15T16:23:20Z</DateUtc></StartTime><FrequencyChanges><FrequencyChange><Frequency dt:dt=""r8"">3215244</Frequency><Timestamp dt:dt=""r8"">6568749424949</Timestamp><Current dt:dt=""r8"">0</Current><DateUtc dt:dt=""string"">2018-10-15T16:23:20Z</DateUtc></FrequencyChange></FrequencyChanges></Clock>\n",KW_Experiment5A-20-1,59.947,1.0.0.105,2,1745082179,Professional,2.0.10.353,2.0.10.353,10/15/2018,10/15/2018 16:23,12:23:20,2.0.10.248,3,2,1,3,,,,,,,,TrainingProc,BlockList,22,1,Distractor2.bmp,2,0,,0,1,2921221,600,,0,0,cyan,600,3,600,4,vertical,cyan,Distractor1.bmp,red,Distractor2.bmp,yellow,Distractor2.bmp,purple,Distractor2.bmp,lime,Target1.bmp,blue,Distractor2.bmp,,,,TrialProc,,TrainingTrialList,1,1,-999999,0,2921821,0,1,597,2922418,Target1.bmp,lime,1,,,,5,4,70
KW_Experiment5A,20,1,"<?xml version=""1.0""?>\n<Clock xmlns:dt=""urn:schemas-microsoft-com:datatypes""><Description dt:dt=""string"">E-Prime Primary Realtime Clock</Description><StartTime><Timestamp dt:dt=""int"">0</Timestamp><DateUtc dt:dt=""string"">2018-10-15T16:23:20Z</DateUtc></StartTime><FrequencyChanges><FrequencyChange><Frequency dt:dt=""r8"">3215244</Frequency><Timestamp dt:dt=""r8"">6568749424949</Timestamp><Current dt:dt=""r8"">0</Current><DateUtc dt:dt=""string"">2018-10-15T16:23:20Z</DateUtc></FrequencyChange></FrequencyChanges></Clock>\n",KW_Experiment5A-20-1,59.947,1.0.0.105,2,1745082179,Professional,2.0.10.353,2.0.10.353,10/15/2018,10/15/2018 16:23,12:23:20,2.0.10.248,3,2,1,3,,,,,,,,TrainingProc,BlockList,23,2,Distractor2.bmp,2,0,,0,1,2923440,500,,0,0,lime,500,2,500,,horizontal,lime,Distractor1.bmp,blue,Distractor1.bmp,cyan,Distractor2.bmp,purple,Distractor2.bmp,red,Target2.bmp,yellow,Distractor2.bmp,,,,TrialProc,6,TrainingTrialList,1,2,-999999,0,2923940,0,2,678,2924618,Target2.bmp,red,2,,,,11,4,71
KW_Experiment5A,20,1,"<?xml version=""1.0""?>\n<Clock xmlns:dt=""urn:schemas-microsoft-com:datatypes""><Description dt:dt=""string"">E-Prime Primary Realtime Clock</Description><StartTime><Timestamp dt:dt=""int"">0</Timestamp><DateUtc dt:dt=""string"">2018-10-15T16:23:20Z</DateUtc></StartTime><FrequencyChanges><FrequencyChange><Frequency dt:dt=""r8"">3215244</Frequency><Timestamp dt:dt=""r8"">6568749424949</Timestamp><Current dt:dt=""r8"">0</Current><DateUtc dt:dt=""string"">2018-10-15T16:23:20Z</DateUtc></FrequencyChange></FrequencyChanges></Clock>\n",KW_Experiment5A-20-1,59.947,1.0.0.105,2,1745082179,Professional,2.0.10.353,2.0.10.353,10/15/2018,10/15/2018 16:23,12:23:20,2.0.10.248,3,2,1,3,,,,,,,,TrainingProc,BlockList,24,2,Distractor2.bmp,2,0,,0,1,2925642,400,,0,0,red,400,1,400,1,horizontal,red,Distractor2.bmp,cyan,Distractor2.bmp,purple,Distractor1.bmp,blue,Distractor1.bmp,yellow,Distractor2.bmp,lime,Target2.bmp,,,,TrialProc,,TrainingTrialList,1,2,-999999,0,2926042,0,2,672,2926714,Target2.bmp,lime,2,,,,6,4,72
KW_Experiment5A,20,1,"<?xml version=""1.0""?>\n<Clock xmlns:dt=""urn:schemas-microsoft-com:datatypes""><Description dt:dt=""string"">E-Prime Primary Realtime Clock</Description><StartTime><Timestamp dt:dt=""int"">0</Timestamp><DateUtc dt:dt=""string"">2018-10-15T16:23:20Z</DateUtc></StartTime><FrequencyChanges><FrequencyChange><Frequency dt:dt=""r8"">3215244</Frequency><Timestamp dt:dt=""r8"">6568749424949</Timestamp><Current dt:dt=""r8"">0</Current><DateUtc dt:dt=""string"">2018-10-15T16:23:20Z</DateUtc></FrequencyChange></FrequencyChanges></Clock>\n",KW_Experiment5A-20-1,59.947,1.0.0.105,2,1745082179,Professional,2.0.10.353,2.0.10.353,10/15/2018,10/15/2018 16:23,12:23:20,2.0.10.248,3,2,1,3,,,,,,,,TrainingProc,BlockList,25,2,Distractor1.bmp,1,0,,0,1,2927727,600,,0,0,yellow,600,3,600,,horizontal,yellow,Distractor1.bmp,purple,Distractor2.bmp,blue,Distractor2.bmp,red,Target2.bmp,lime,Distractor1.bmp,cyan,Distractor2.bmp,,,,TrialProc,2,TrainingTrialList,1,2,-999999,0,2928327,0,2,627,2928954,Target2.bmp,red,2,,,,10,5,73
KW_Experiment5A,20,1,"<?xml version=""1.0""?>\n<Clock xmlns:dt=""urn:schemas-microsoft-com:datatypes""><Description dt:dt=""string"">E-Prime Primary Realtime Clock</Description><StartTime><Timestamp dt:dt=""int"">0</Timestamp><DateUtc dt:dt=""string"">2018-10-15T16:23:20Z</DateUtc></StartTime><FrequencyChanges><FrequencyChange><Frequency dt:dt=""r8"">3215244</Frequency><Timestamp dt:dt=""r8"">6568749424949</Timestamp><Current dt:dt=""r8"">0</Current><DateUtc dt:dt=""string"">2018-10-15T16:23:20Z</DateUtc></FrequencyChange></FrequencyChanges></Clock>\n",KW_Experiment5A-20-1,59.947,1.0.0.105,2,1745082179,Professional,2.0.10.353,2.0.10.353,10/15/2018,10/15/2018 16:23,12:23:20,2.0.10.248,3,2,1,3,,,,,,,,TrainingProc,BlockList,26,2,Distractor1.bmp,1,0,,0,1,2929979,400,,0,0,red,400,1,400,1,horizontal,red,Distractor1.bmp,blue,Distractor2.bmp,yellow,Distractor1.bmp,purple,Distractor2.bmp,cyan,Distractor1.bmp,lime,Target2.bmp,,,,TrialProc,,TrainingTrialList,1,2,-999999,0,2930379,0,2,679,2931058,Target2.bmp,lime,2,,,,6,5,74
KW_Experiment5A,20,1,"<?xml version=""1.0""?>\n<Clock xmlns:dt=""urn:schemas-microsoft-com:datatypes""><Description dt:dt=""string"">E-Prime Primary Realtime Clock</Description><StartTime><Timestamp dt:dt=""int"">0</Timestamp><DateUtc dt:dt=""string"">2018-10-15T16:23:20Z</DateUtc></StartTime><FrequencyChanges><FrequencyChange><Frequency dt:dt=""r8"">3215244</Frequency><Timestamp dt:dt=""r8"">6568749424949</Timestamp><Current dt:dt=""r8"">0</Current><DateUtc dt:dt=""string"">2018-10-15T16:23:20Z</DateUtc></FrequencyChange></FrequencyChanges></Clock>\n",KW_Experiment5A-20-1,59.947,1.0.0.105,2,1745082179,Professional,2.0.10.353,2.0.10.353,10/15/2018,10/15/2018 16:23,12:23:20,2.0.10.248,3,2,1,3,,,,,,,,TrainingProc,BlockList,27,1,Distractor2.bmp,2,0,,0,1,2932081,600,,0,0,yellow,600,3,600,,vertical,yellow,Distractor2.bmp,lime,Distractor2.bmp,cyan,Distractor2.bmp,red,Target1.bmp,purple,Distractor2.bmp,blue,Distractor2.bmp,,,,TrialProc,2,TrainingTrialList,1,1,-999999,0,2932681,0,1,641,2933322,Target1.bmp,red,1,,,,10,5,75
KW_Experiment5A,20,1,"<?xml version=""1.0""?>\n<Clock xmlns:dt=""urn:schemas-microsoft-com:datatypes""><Description dt:dt=""string"">E-Prime Primary Realtime Clock</Description><StartTime><Timestamp dt:dt=""int"">0</Timestamp><DateUtc dt:dt=""string"">2018-10-15T16:23:20Z</DateUtc></StartTime><FrequencyChanges><FrequencyChange><Frequency dt:dt=""r8"">3215244</Frequency><Timestamp dt:dt=""r8"">6568749424949</Timestamp><Current dt:dt=""r8"">0</Current><DateUtc dt:dt=""string"">2018-10-15T16:23:20Z</DateUtc></FrequencyChange></FrequencyChanges></Clock>\n",KW_Experiment5A-20-1,59.947,1.0.0.105,2,1745082179,Professional,2.0.10.353,2.0.10.353,10/15/2018,10/15/2018 16:23,12:23:20,2.0.10.248,3,2,1,3,,,,,,,,TrainingProc,BlockList,28,2,Distractor2.bmp,2,0,,0,1,2934333,500,,0,0,lime,500,2,500,,horizontal,lime,Distractor1.bmp,cyan,Distractor1.bmp,purple,Distractor1.bmp,blue,Distractor2.bmp,red,Target2.bmp,yellow,Distractor2.bmp,,,,TrialProc,6,TrainingTrialList,1,2,-999999,0,2934833,0,2,585,2935418,Target2.bmp,red,2,,,,11,5,76
KW_Experiment5A,20,1,"<?xml version=""1.0""?>\n<Clock xmlns:dt=""urn:schemas-microsoft-com:datatypes""><Description dt:dt=""string"">E-Prime Primary Realtime Clock</Description><StartTime><Timestamp dt:dt=""int"">0</Timestamp><DateUtc dt:dt=""string"">2018-10-15T16:23:20Z</DateUtc></StartTime><FrequencyChanges><FrequencyChange><Frequency dt:dt=""r8"">3215244</Frequency><Timestamp dt:dt=""r8"">6568749424949</Timestamp><Current dt:dt=""r8"">0</Current><DateUtc dt:dt=""string"">2018-10-15T16:23:20Z</DateUtc></FrequencyChange></FrequencyChanges></Clock>\n",KW_Experiment5A-20-1,59.947,1.0.0.105,2,1745082179,Professional,2.0.10.353,2.0.10.353,10/15/2018,10/15/2018 16:23,12:23:20,2.0.10.248,3,2,1,3,,,,,,,,TrainingProc,BlockList,29,1,Distractor1.bmp,1,0,,0,1,2936435,600,,0,0,purple,600,3,600,,vertical,purple,Distractor1.bmp,cyan,Distractor1.bmp,red,Target1.bmp,yellow,Distractor1.bmp,blue,Distractor1.bmp,lime,Distractor2.bmp,,,,TrialProc,5,TrainingTrialList,1,1,-999999,0,2937035,0,1,567,2937602,Target1.bmp,red,1,,,,9,5,77
KW_Experiment5A,20,1,"<?xml version=""1.0""?>\n<Clock xmlns:dt=""urn:schemas-microsoft-com:datatypes""><Description dt:dt=""string"">E-Prime Primary Realtime Clock</Description><StartTime><Timestamp dt:dt=""int"">0</Timestamp><DateUtc dt:dt=""string"">2018-10-15T16:23:20Z</DateUtc></StartTime><FrequencyChanges><FrequencyChange><Frequency dt:dt=""r8"">3215244</Frequency><Timestamp dt:dt=""r8"">6568749424949</Timestamp><Current dt:dt=""r8"">0</Current><DateUtc dt:dt=""string"">2018-10-15T16:23:20Z</DateUtc></FrequencyChange></FrequencyChanges></Clock>\n",KW_Experiment5A-20-1,59.947,1.0.0.105,2,1745082179,Professional,2.0.10.353,2.0.10.353,10/15/2018,10/15/2018 16:23,12:23:20,2.0.10.248,3,2,1,3,,,,,,,,TrainingProc,BlockList,30,2,Distractor1.bmp,1,0,,0,1,2938620,401,,0,0,lime,400,1,400,,horizontal,lime,Distractor1.bmp,red,Target2.bmp,blue,Distractor1.bmp,cyan,Distractor1.bmp,purple,Distractor2.bmp,yellow,Distractor1.bmp,,,,TrialProc,6,TrainingTrialList,1,2,-999999,1,2939021,0,2,413,2939434,Target2.bmp,red,2,,,,8,5,78
KW_Experiment5A,20,1,"<?xml version=""1.0""?>\n<Clock xmlns:dt=""urn:schemas-microsoft-com:datatypes""><Description dt:dt=""string"">E-Prime Primary Realtime Clock</Description><StartTime><Timestamp dt:dt=""int"">0</Timestamp><DateUtc dt:dt=""string"">2018-10-15T16:23:20Z</DateUtc></StartTime><FrequencyChanges><FrequencyChange><Frequency dt:dt=""r8"">3215244</Frequency><Timestamp dt:dt=""r8"">6568749424949</Timestamp><Current dt:dt=""r8"">0</Current><DateUtc dt:dt=""string"">2018-10-15T16:23:20Z</DateUtc></FrequencyChange></FrequencyChanges></Clock>\n",KW_Experiment5A-20-1,59.947,1.0.0.105,2,1745082179,Professional,2.0.10.353,2.0.10.353,10/15/2018,10/15/2018 16:23,12:23:20,2.0.10.248,3,2,1,3,,,,,,,,TrainingProc,BlockList,31,1,Distractor2.bmp,2,0,,0,1,2940455,601,,0,0,cyan,600,3,600,,vertical,cyan,Distractor2.bmp,purple,Distractor1.bmp,yellow,Distractor2.bmp,blue,Distractor2.bmp,lime,Distractor2.bmp,red,Target1.bmp,,,,TrialProc,4,TrainingTrialList,1,1,-999999,1,2941056,0,1,418,2941474,Target1.bmp,red,1,,,,12,5,79
KW_Experiment5A,20,1,"<?xml version=""1.0""?>\n<Clock xmlns:dt=""urn:schemas-microsoft-com:datatypes""><Description dt:dt=""string"">E-Prime Primary Realtime Clock</Description><StartTime><Timestamp dt:dt=""int"">0</Timestamp><DateUtc dt:dt=""string"">2018-10-15T16:23:20Z</DateUtc></StartTime><FrequencyChanges><FrequencyChange><Frequency dt:dt=""r8"">3215244</Frequency><Timestamp dt:dt=""r8"">6568749424949</Timestamp><Current dt:dt=""r8"">0</Current><DateUtc dt:dt=""string"">2018-10-15T16:23:20Z</DateUtc></FrequencyChange></FrequencyChanges></Clock>\n",KW_Experiment5A-20-1,59.947,1.0.0.105,2,1745082179,Professional,2.0.10.353,2.0.10.353,10/15/2018,10/15/2018 16:23,12:23:20,2.0.10.248,3,2,1,3,,,,,,,,TrainingProc,BlockList,32,1,Distractor2.bmp,2,0,,0,1,2942491,500,,0,0,purple,500,2,500,,vertical,purple,Distractor2.bmp,yellow,Distractor1.bmp,red,Target1.bmp,cyan,Distractor2.bmp,lime,Distractor2.bmp,blue,Distractor1.bmp,,,,TrialProc,5,TrainingTrialList,0,1,-999999,0,2942991,0,2,507,2943498,Target1.bmp,red,1,,,,9,5,80
KW_Experiment5A,20,1,"<?xml version=""1.0""?>\n<Clock xmlns:dt=""urn:schemas-microsoft-com:datatypes""><Description dt:dt=""string"">E-Prime Primary Realtime Clock</Description><StartTime><Timestamp dt:dt=""int"">0</Timestamp><DateUtc dt:dt=""string"">2018-10-15T16:23:20Z</DateUtc></StartTime><FrequencyChanges><FrequencyChange><Frequency dt:dt=""r8"">3215244</Frequency><Timestamp dt:dt=""r8"">6568749424949</Timestamp><Current dt:dt=""r8"">0</Current><DateUtc dt:dt=""string"">2018-10-15T16:23:20Z</DateUtc></FrequencyChange></FrequencyChanges></Clock>\n",KW_Experiment5A-20-1,59.947,1.0.0.105,2,1745082179,Professional,2.0.10.353,2.0.10.353,10/15/2018,10/15/2018 16:23,12:23:20,2.0.10.248,3,2,1,3,,,,,,,,TrainingProc,BlockList,33,1,Distractor2.bmp,2,0,,0,1,2944509,500,,0,0,yellow,500,2,500,2,vertical,yellow,Distractor1.bmp,lime,Target1.bmp,purple,Distractor2.bmp,cyan,Distractor1.bmp,red,Distractor1.bmp,blue,Distractor1.bmp,,,,TrialProc,,TrainingTrialList,1,1,-999999,0,2945009,0,1,577,2945586,Target1.bmp,lime,1,,,,2,5,81
KW_Experiment5A,20,1,"<?xml version=""1.0""?>\n<Clock xmlns:dt=""urn:schemas-microsoft-com:datatypes""><Description dt:dt=""string"">E-Prime Primary Realtime Clock</Description><StartTime><Timestamp dt:dt=""int"">0</Timestamp><DateUtc dt:dt=""string"">2018-10-15T16:23:20Z</DateUtc></StartTime><FrequencyChanges><FrequencyChange><Frequency dt:dt=""r8"">3215244</Frequency><Timestamp dt:dt=""r8"">6568749424949</Timestamp><Current dt:dt=""r8"">0</Current><DateUtc dt:dt=""string"">2018-10-15T16:23:20Z</DateUtc></FrequencyChange></FrequencyChanges></Clock>\n",KW_Experiment5A-20-1,59.947,1.0.0.105,2,1745082179,Professional,2.0.10.353,2.0.10.353,10/15/2018,10/15/2018 16:23,12:23:20,2.0.10.248,3,2,1,3,,,,,,,,TrainingProc,BlockList,34,1,Distractor1.bmp,1,0,,0,1,2946611,400,,0,0,purple,400,1,400,5,vertical,purple,Distractor2.bmp,red,Distractor1.bmp,blue,Distractor2.bmp,lime,Target1.bmp,cyan,Distractor1.bmp,yellow,Distractor1.bmp,,,,TrialProc,,TrainingTrialList,1,1,-999999,0,2947011,0,1,1007,2948018,Target1.bmp,lime,1,,,,4,5,82
KW_Experiment5A,20,1,"<?xml version=""1.0""?>\n<Clock xmlns:dt=""urn:schemas-microsoft-com:datatypes""><Description dt:dt=""string"">E-Prime Primary Realtime Clock</Description><StartTime><Timestamp dt:dt=""int"">0</Timestamp><DateUtc dt:dt=""string"">2018-10-15T16:23:20Z</DateUtc></StartTime><FrequencyChanges><FrequencyChange><Frequency dt:dt=""r8"">3215244</Frequency><Timestamp dt:dt=""r8"">6568749424949</Timestamp><Current dt:dt=""r8"">0</Current><DateUtc dt:dt=""string"">2018-10-15T16:23:20Z</DateUtc></FrequencyChange></FrequencyChanges></Clock>\n",KW_Experiment5A-20-1,59.947,1.0.0.105,2,1745082179,Professional,2.0.10.353,2.0.10.353,10/15/2018,10/15/2018 16:23,12:23:20,2.0.10.248,3,2,1,3,,,,,,,,TrainingProc,BlockList,35,2,Distractor2.bmp,2,0,,0,1,2949030,400,,0,0,yellow,400,1,400,,horizontal,yellow,Distractor2.bmp,red,Target2.bmp,blue,Distractor2.bmp,lime,Distractor1.bmp,cyan,Distractor1.bmp,purple,Distractor1.bmp,,,,TrialProc,2,TrainingTrialList,1,2,-999999,0,2949430,0,2,516,2949946,Target2.bmp,red,2,,,,8,5,83
KW_Experiment5A,20,1,"<?xml version=""1.0""?>\n<Clock xmlns:dt=""urn:schemas-microsoft-com:datatypes""><Description dt:dt=""string"">E-Prime Primary Realtime Clock</Description><StartTime><Timestamp dt:dt=""int"">0</Timestamp><DateUtc dt:dt=""string"">2018-10-15T16:23:20Z</DateUtc></StartTime><FrequencyChanges><FrequencyChange><Frequency dt:dt=""r8"">3215244</Frequency><Timestamp dt:dt=""r8"">6568749424949</Timestamp><Current dt:dt=""r8"">0</Current><DateUtc dt:dt=""string"">2018-10-15T16:23:20Z</DateUtc></FrequencyChange></FrequencyChanges></Clock>\n",KW_Experiment5A-20-1,59.947,1.0.0.105,2,1745082179,Professional,2.0.10.353,2.0.10.353,10/15/2018,10/15/2018 16:23,12:23:20,2.0.10.248,3,2,1,3,,,,,,,,TrainingProc,BlockList,36,2,Distractor2.bmp,2,0,,0,1,2950965,601,,0,0,blue,600,3,600,,horizontal,blue,Distractor2.bmp,yellow,Distractor1.bmp,cyan,Distractor2.bmp,purple,Distractor1.bmp,lime,Distractor1.bmp,red,Target2.bmp,,,,TrialProc,3,TrainingTrialList,1,2,-999999,1,2951566,0,2,548,2952114,Target2.bmp,red,2,,,,12,5,84
KW_Experiment5A,20,1,"<?xml version=""1.0""?>\n<Clock xmlns:dt=""urn:schemas-microsoft-com:datatypes""><Description dt:dt=""string"">E-Prime Primary Realtime Clock</Description><StartTime><Timestamp dt:dt=""int"">0</Timestamp><DateUtc dt:dt=""string"">2018-10-15T16:23:20Z</DateUtc></StartTime><FrequencyChanges><FrequencyChange><Frequency dt:dt=""r8"">3215244</Frequency><Timestamp dt:dt=""r8"">6568749424949</Timestamp><Current dt:dt=""r8"">0</Current><DateUtc dt:dt=""string"">2018-10-15T16:23:20Z</DateUtc></FrequencyChange></FrequencyChanges></Clock>\n",KW_Experiment5A-20-1,59.947,1.0.0.105,2,1745082179,Professional,2.0.10.353,2.0.10.353,10/15/2018,10/15/2018 16:23,12:23:20,2.0.10.248,3,2,1,3,,,,,,,,TrainingProc,BlockList,37,2,Distractor2.bmp,2,0,,0,1,2953134,400,,0,0,blue,400,1,400,,horizontal,red,Target2.bmp,cyan,Distractor2.bmp,yellow,Distractor1.bmp,purple,Distractor2.bmp,lime,Distractor1.bmp,blue,Distractor2.bmp,,,,TrialProc,3,TrainingTrialList,1,2,-999999,0,2953534,0,2,532,2954066,Target2.bmp,red,2,,,,7,5,85
KW_Experiment5A,20,1,"<?xml version=""1.0""?>\n<Clock xmlns:dt=""urn:schemas-microsoft-com:datatypes""><Description dt:dt=""string"">E-Prime Primary Realtime Clock</Description><StartTime><Timestamp dt:dt=""int"">0</Timestamp><DateUtc dt:dt=""string"">2018-10-15T16:23:20Z</DateUtc></StartTime><FrequencyChanges><FrequencyChange><Frequency dt:dt=""r8"">3215244</Frequency><Timestamp dt:dt=""r8"">6568749424949</Timestamp><Current dt:dt=""r8"">0</Current><DateUtc dt:dt=""string"">2018-10-15T16:23:20Z</DateUtc></FrequencyChange></FrequencyChanges></Clock>\n",KW_Experiment5A-20-1,59.947,1.0.0.105,2,1745082179,Professional,2.0.10.353,2.0.10.353,10/15/2018,10/15/2018 16:23,12:23:20,2.0.10.248,3,2,1,3,,,,,,,,TrainingProc,BlockList,38,2,Distractor1.bmp,1,0,,1,0,2955085,401,,0,0,blue,400,1,400,,horizontal,blue,Distractor1.bmp,purple,Distractor2.bmp,lime,Distractor1.bmp,yellow,Distractor2.bmp,red,Target2.bmp,cyan,Distractor1.bmp,,,,TrialProc,3,TrainingTrialList,1,2,-999999,1,2955486,0,2,580,2956066,Target2.bmp,red,2,,,,11,5,86
KW_Experiment5A,20,1,"<?xml version=""1.0""?>\n<Clock xmlns:dt=""urn:schemas-microsoft-com:datatypes""><Description dt:dt=""string"">E-Prime Primary Realtime Clock</Description><StartTime><Timestamp dt:dt=""int"">0</Timestamp><DateUtc dt:dt=""string"">2018-10-15T16:23:20Z</DateUtc></StartTime><FrequencyChanges><FrequencyChange><Frequency dt:dt=""r8"">3215244</Frequency><Timestamp dt:dt=""r8"">6568749424949</Timestamp><Current dt:dt=""r8"">0</Current><DateUtc dt:dt=""string"">2018-10-15T16:23:20Z</DateUtc></FrequencyChange></FrequencyChanges></Clock>\n",KW_Experiment5A-20-1,59.947,1.0.0.105,2,1745082179,Professional,2.0.10.353,2.0.10.353,10/15/2018,10/15/2018 16:23,12:23:20,2.0.10.248,3,2,1,3,,,,,,,,TrainingProc,BlockList,39,1,Distractor1.bmp,1,0,,0,1,2957087,501,,0,0,lime,500,2,500,,vertical,red,Target1.bmp,yellow,Distractor1.bmp,blue,Distractor1.bmp,purple,Distractor1.bmp,cyan,Distractor2.bmp,lime,Distractor2.bmp,,,,TrialProc,6,TrainingTrialList,1,1,-999999,1,2957588,0,1,446,2958034,Target1.bmp,red,1,,,,7,5,87
KW_Experiment5A,20,1,"<?xml version=""1.0""?>\n<Clock xmlns:dt=""urn:schemas-microsoft-com:datatypes""><Description dt:dt=""string"">E-Prime Primary Realtime Clock</Description><StartTime><Timestamp dt:dt=""int"">0</Timestamp><DateUtc dt:dt=""string"">2018-10-15T16:23:20Z</DateUtc></StartTime><FrequencyChanges><FrequencyChange><Frequency dt:dt=""r8"">3215244</Frequency><Timestamp dt:dt=""r8"">6568749424949</Timestamp><Current dt:dt=""r8"">0</Current><DateUtc dt:dt=""string"">2018-10-15T16:23:20Z</DateUtc></FrequencyChange></FrequencyChanges></Clock>\n",KW_Experiment5A-20-1,59.947,1.0.0.105,2,1745082179,Professional,2.0.10.353,2.0.10.353,10/15/2018,10/15/2018 16:23,12:23:20,2.0.10.248,3,2,1,3,,,,,,,,TrainingProc,BlockList,40,2,Distractor2.bmp,2,0,,0,1,2959056,400,,0,0,lime,400,1,400,,horizontal,red,Target2.bmp,blue,Distractor2.bmp,yellow,Distractor1.bmp,cyan,Distractor1.bmp,purple,Distractor1.bmp,lime,Distractor1.bmp,,,,TrialProc,6,TrainingTrialList,1,2,-999999,0,2959456,0,2,578,2960034,Target2.bmp,red,2,,,,7,5,88
KW_Experiment5A,20,1,"<?xml version=""1.0""?>\n<Clock xmlns:dt=""urn:schemas-microsoft-com:datatypes""><Description dt:dt=""string"">E-Prime Primary Realtime Clock</Description><StartTime><Timestamp dt:dt=""int"">0</Timestamp><DateUtc dt:dt=""string"">2018-10-15T16:23:20Z</DateUtc></StartTime><FrequencyChanges><FrequencyChange><Frequency dt:dt=""r8"">3215244</Frequency><Timestamp dt:dt=""r8"">6568749424949</Timestamp><Current dt:dt=""r8"">0</Current><DateUtc dt:dt=""string"">2018-10-15T16:23:20Z</DateUtc></FrequencyChange></FrequencyChanges></Clock>\n",KW_Experiment5A-20-1,59.947,1.0.0.105,2,1745082179,Professional,2.0.10.353,2.0.10.353,10/15/2018,10/15/2018 16:23,12:23:20,2.0.10.248,3,2,1,3,,,,,,,,TrainingProc,BlockList,41,1,Distractor1.bmp,1,0,,0,1,2961058,600,,0,0,blue,600,3,600,3,vertical,blue,Distractor1.bmp,cyan,Distractor2.bmp,lime,Target1.bmp,purple,Distractor1.bmp,yellow,Distractor1.bmp,red,Distractor2.bmp,,,,TrialProc,,TrainingTrialList,1,1,-999999,0,2961658,0,1,664,2962322,Target1.bmp,lime,1,,,,3,5,89
