ExperimentName,Subject,Session,Clock.Information,DataFile.Basename,Display.RefreshRate,ExperimentVersion,Group,RandomSeed,RuntimeCapabilities,RuntimeVersion,RuntimeVersionExpected,SessionDate,SessionStartDateTimeUtc,SessionTime,StudioVersion,Block,BlockList,BlockList.Cycle,BlockList.Sample,PostTestQ1.RESP,PostTestQ1CJ.RESP,PostTestQ2.RESP,PostTestQ2CJ.RESP,PostTestQ3.RESP,PostTestQ3CJ.RESP,PostTestSlide.RESP,Procedure[Block],Running[Block],Trial,CorrectResponse,Distractor,DistractorList,Fixation.ACC,Fixation.CRESP,Fixation.DurationError,Fixation.OnsetDelay,Fixation.OnsetTime,Fixation.OnsetToOnsetTime,Fixation.RESP,Fixation.RT,Fixation.RTTime,ItemColor,Jitter,JitterList,JitterTime,Lime0List,Orientation,Pos1Color,Pos1Item,Pos2Color,Pos2Item,Pos3Color,Pos3Item,Pos4Color,Pos4Item,Pos5Color,Pos5Item,Pos6Color,Pos6Item,PracticeTrialList,PracticeTrialList.Cycle,PracticeTrialList.Sample,Procedure[Trial],Red0List,Running[Trial],Stimulus.ACC,Stimulus.CRESP,Stimulus.DurationError,Stimulus.OnsetDelay,Stimulus.OnsetTime,Stimulus.OnsetToOnsetTime,Stimulus.RESP,Stimulus.RT,Stimulus.RTTime,Target,TargetColor,TargetList,TestTrialList,TestTrialList.Cycle,TestTrialList.Sample,TrainingTrialList,TrainingTrialList.Cycle,TrainingTrialList.Sample
KW_Experiment5A,15,1,"<?xml version=""1.0""?>\n<Clock xmlns:dt=""urn:schemas-microsoft-com:datatypes""><Description dt:dt=""string"">E-Prime Primary Realtime Clock</Description><StartTime><Timestamp dt:dt=""int"">0</Timestamp><DateUtc dt:dt=""string"">2018-10-11T19:44:09Z</DateUtc></StartTime><FrequencyChanges><FrequencyChange><Frequency dt:dt=""r8"">3215292</Frequency><Timestamp dt:dt=""r8"">4212886722915</Timestamp><Current dt:dt=""r8"">0</Current><DateUtc dt:dt=""string"">2018-10-11T19:44:09Z</DateUtc></FrequencyChange></FrequencyChanges></Clock>\n",KW_Experiment5A-15-1,59.945,1.0.0.105,1,-475562240,Professional,2.0.10.353,2.0.10.353,10/11/2018,10/11/2018 19:44,15:44:09,2.0.10.248,1,1,1,1,,,,,,,,PracticeProc,BlockList,1,1,Distractor2.bmp,2,0,,0,36,2789060,601,,0,0,red,600,3,600,1,vertical,lime,Target1.bmp,yellow,Distractor2.bmp,cyan,Distractor2.bmp,blue,Distractor1.bmp,purple,Distractor1.bmp,red,Distractor1.bmp,1,1,1,TrialProc,,PracticeTrialList,1,1,-999999,1,2789661,0,1,731,2790392,Target1.bmp,lime,1,,,,,,
KW_Experiment5A,15,1,"<?xml version=""1.0""?>\n<Clock xmlns:dt=""urn:schemas-microsoft-com:datatypes""><Description dt:dt=""string"">E-Prime Primary Realtime Clock</Description><StartTime><Timestamp dt:dt=""int"">0</Timestamp><DateUtc dt:dt=""string"">2018-10-11T19:44:09Z</DateUtc></StartTime><FrequencyChanges><FrequencyChange><Frequency dt:dt=""r8"">3215292</Frequency><Timestamp dt:dt=""r8"">4212886722915</Timestamp><Current dt:dt=""r8"">0</Current><DateUtc dt:dt=""string"">2018-10-11T19:44:09Z</DateUtc></FrequencyChange></FrequencyChanges></Clock>\n",KW_Experiment5A-15-1,59.945,1.0.0.105,1,-475562240,Professional,2.0.10.353,2.0.10.353,10/11/2018,10/11/2018 19:44,15:44:09,2.0.10.248,1,1,1,1,,,,,,,,PracticeProc,BlockList,2,1,Distractor2.bmp,2,0,,0,1,2791412,501,,0,0,yellow,500,2,500,,vertical,blue,Distractor2.bmp,cyan,Distractor1.bmp,lime,Distractor1.bmp,purple,Distractor2.bmp,yellow,Distractor2.bmp,red,Target1.bmp,6,1,2,TrialProc,2,PracticeTrialList,1,1,-999999,1,2791913,0,1,823,2792736,Target1.bmp,red,1,,,,,,
KW_Experiment5A,15,1,"<?xml version=""1.0""?>\n<Clock xmlns:dt=""urn:schemas-microsoft-com:datatypes""><Description dt:dt=""string"">E-Prime Primary Realtime Clock</Description><StartTime><Timestamp dt:dt=""int"">0</Timestamp><DateUtc dt:dt=""string"">2018-10-11T19:44:09Z</DateUtc></StartTime><FrequencyChanges><FrequencyChange><Frequency dt:dt=""r8"">3215292</Frequency><Timestamp dt:dt=""r8"">4212886722915</Timestamp><Current dt:dt=""r8"">0</Current><DateUtc dt:dt=""string"">2018-10-11T19:44:09Z</DateUtc></FrequencyChange></FrequencyChanges></Clock>\n",KW_Experiment5A-15-1,59.945,1.0.0.105,1,-475562240,Professional,2.0.10.353,2.0.10.353,10/11/2018,10/11/2018 19:44,15:44:09,2.0.10.248,1,1,1,1,,,,,,,,PracticeProc,BlockList,3,1,Distractor2.bmp,2,0,,0,1,2793748,500,,0,0,purple,500,2,500,,vertical,purple,Distractor1.bmp,red,Target1.bmp,yellow,Distractor2.bmp,blue,Distractor2.bmp,lime,Distractor2.bmp,cyan,Distractor2.bmp,2,1,3,TrialProc,5,PracticeTrialList,0,1,-999999,0,2794248,0,2,728,2794976,Target1.bmp,red,1,,,,,,
KW_Experiment5A,15,1,"<?xml version=""1.0""?>\n<Clock xmlns:dt=""urn:schemas-microsoft-com:datatypes""><Description dt:dt=""string"">E-Prime Primary Realtime Clock</Description><StartTime><Timestamp dt:dt=""int"">0</Timestamp><DateUtc dt:dt=""string"">2018-10-11T19:44:09Z</DateUtc></StartTime><FrequencyChanges><FrequencyChange><Frequency dt:dt=""r8"">3215292</Frequency><Timestamp dt:dt=""r8"">4212886722915</Timestamp><Current dt:dt=""r8"">0</Current><DateUtc dt:dt=""string"">2018-10-11T19:44:09Z</DateUtc></FrequencyChange></FrequencyChanges></Clock>\n",KW_Experiment5A-15-1,59.945,1.0.0.105,1,-475562240,Professional,2.0.10.353,2.0.10.353,10/11/2018,10/11/2018 19:44,15:44:09,2.0.10.248,1,1,1,1,,,,,,,,PracticeProc,BlockList,4,2,Distractor1.bmp,1,0,,0,1,2796000,400,,0,0,red,400,1,400,1,horizontal,cyan,Distractor1.bmp,yellow,Distractor2.bmp,blue,Distractor1.bmp,red,Distractor1.bmp,lime,Target2.bmp,purple,Distractor1.bmp,5,1,4,TrialProc,,PracticeTrialList,1,2,-999999,0,2796400,0,2,1312,2797712,Target2.bmp,lime,2,,,,,,
KW_Experiment5A,15,1,"<?xml version=""1.0""?>\n<Clock xmlns:dt=""urn:schemas-microsoft-com:datatypes""><Description dt:dt=""string"">E-Prime Primary Realtime Clock</Description><StartTime><Timestamp dt:dt=""int"">0</Timestamp><DateUtc dt:dt=""string"">2018-10-11T19:44:09Z</DateUtc></StartTime><FrequencyChanges><FrequencyChange><Frequency dt:dt=""r8"">3215292</Frequency><Timestamp dt:dt=""r8"">4212886722915</Timestamp><Current dt:dt=""r8"">0</Current><DateUtc dt:dt=""string"">2018-10-11T19:44:09Z</DateUtc></FrequencyChange></FrequencyChanges></Clock>\n",KW_Experiment5A-15-1,59.945,1.0.0.105,1,-475562240,Professional,2.0.10.353,2.0.10.353,10/11/2018,10/11/2018 19:44,15:44:09,2.0.10.248,1,1,1,1,,,,,,,,PracticeProc,BlockList,5,2,Distractor1.bmp,1,0,,0,1,2798735,601,,0,0,blue,600,3,600,,horizontal,lime,Distractor1.bmp,purple,Distractor1.bmp,blue,Distractor1.bmp,red,Target2.bmp,yellow,Distractor1.bmp,cyan,Distractor1.bmp,4,1,5,TrialProc,3,PracticeTrialList,1,2,-999999,1,2799336,0,2,1072,2800408,Target2.bmp,red,2,,,,,,
KW_Experiment5A,15,1,"<?xml version=""1.0""?>\n<Clock xmlns:dt=""urn:schemas-microsoft-com:datatypes""><Description dt:dt=""string"">E-Prime Primary Realtime Clock</Description><StartTime><Timestamp dt:dt=""int"">0</Timestamp><DateUtc dt:dt=""string"">2018-10-11T19:44:09Z</DateUtc></StartTime><FrequencyChanges><FrequencyChange><Frequency dt:dt=""r8"">3215292</Frequency><Timestamp dt:dt=""r8"">4212886722915</Timestamp><Current dt:dt=""r8"">0</Current><DateUtc dt:dt=""string"">2018-10-11T19:44:09Z</DateUtc></FrequencyChange></FrequencyChanges></Clock>\n",KW_Experiment5A-15-1,59.945,1.0.0.105,1,-475562240,Professional,2.0.10.353,2.0.10.353,10/11/2018,10/11/2018 19:44,15:44:09,2.0.10.248,1,1,1,1,,,,,,,,PracticeProc,BlockList,6,2,Distractor1.bmp,1,0,,0,1,2801421,601,,0,0,cyan,600,3,600,4,horizontal,purple,Distractor1.bmp,cyan,Distractor1.bmp,lime,Target2.bmp,yellow,Distractor1.bmp,blue,Distractor2.bmp,red,Distractor1.bmp,3,1,6,TrialProc,,PracticeTrialList,1,2,-999999,1,2802022,0,2,946,2802968,Target2.bmp,lime,2,,,,,,
KW_Experiment5A,15,1,"<?xml version=""1.0""?>\n<Clock xmlns:dt=""urn:schemas-microsoft-com:datatypes""><Description dt:dt=""string"">E-Prime Primary Realtime Clock</Description><StartTime><Timestamp dt:dt=""int"">0</Timestamp><DateUtc dt:dt=""string"">2018-10-11T19:44:09Z</DateUtc></StartTime><FrequencyChanges><FrequencyChange><Frequency dt:dt=""r8"">3215292</Frequency><Timestamp dt:dt=""r8"">4212886722915</Timestamp><Current dt:dt=""r8"">0</Current><DateUtc dt:dt=""string"">2018-10-11T19:44:09Z</DateUtc></FrequencyChange></FrequencyChanges></Clock>\n",KW_Experiment5A-15-1,59.945,1.0.0.105,1,-475562240,Professional,2.0.10.353,2.0.10.353,10/11/2018,10/11/2018 19:44,15:44:09,2.0.10.248,2,2,1,2,,,,,,,,TrainingProc,BlockList,1,1,Distractor2.bmp,2,0,,0,35,2817019,500,,0,0,yellow,500,2,500,2,vertical,yellow,Distractor1.bmp,cyan,Distractor2.bmp,purple,Distractor2.bmp,blue,Distractor2.bmp,lime,Target1.bmp,red,Distractor2.bmp,,,,TrialProc,,TrainingTrialList,1,1,-999999,0,2817519,0,1,673,2818192,Target1.bmp,lime,1,,,,5,1,1
KW_Experiment5A,15,1,"<?xml version=""1.0""?>\n<Clock xmlns:dt=""urn:schemas-microsoft-com:datatypes""><Description dt:dt=""string"">E-Prime Primary Realtime Clock</Description><StartTime><Timestamp dt:dt=""int"">0</Timestamp><DateUtc dt:dt=""string"">2018-10-11T19:44:09Z</DateUtc></StartTime><FrequencyChanges><FrequencyChange><Frequency dt:dt=""r8"">3215292</Frequency><Timestamp dt:dt=""r8"">4212886722915</Timestamp><Current dt:dt=""r8"">0</Current><DateUtc dt:dt=""string"">2018-10-11T19:44:09Z</DateUtc></FrequencyChange></FrequencyChanges></Clock>\n",KW_Experiment5A-15-1,59.945,1.0.0.105,1,-475562240,Professional,2.0.10.353,2.0.10.353,10/11/2018,10/11/2018 19:44,15:44:09,2.0.10.248,2,2,1,2,,,,,,,,TrainingProc,BlockList,2,2,Distractor2.bmp,2,0,,0,1,2819204,601,,0,0,blue,600,3,600,,horizontal,blue,Distractor2.bmp,yellow,Distractor2.bmp,lime,Distractor1.bmp,red,Target2.bmp,purple,Distractor2.bmp,cyan,Distractor2.bmp,,,,TrialProc,3,TrainingTrialList,1,2,-999999,1,2819805,0,2,923,2820728,Target2.bmp,red,2,,,,10,1,2
KW_Experiment5A,15,1,"<?xml version=""1.0""?>\n<Clock xmlns:dt=""urn:schemas-microsoft-com:datatypes""><Description dt:dt=""string"">E-Prime Primary Realtime Clock</Description><StartTime><Timestamp dt:dt=""int"">0</Timestamp><DateUtc dt:dt=""string"">2018-10-11T19:44:09Z</DateUtc></StartTime><FrequencyChanges><FrequencyChange><Frequency dt:dt=""r8"">3215292</Frequency><Timestamp dt:dt=""r8"">4212886722915</Timestamp><Current dt:dt=""r8"">0</Current><DateUtc dt:dt=""string"">2018-10-11T19:44:09Z</DateUtc></FrequencyChange></FrequencyChanges></Clock>\n",KW_Experiment5A-15-1,59.945,1.0.0.105,1,-475562240,Professional,2.0.10.353,2.0.10.353,10/11/2018,10/11/2018 19:44,15:44:09,2.0.10.248,2,2,1,2,,,,,,,,TrainingProc,BlockList,3,2,Distractor2.bmp,2,0,,0,1,2821740,500,,0,0,blue,500,2,500,3,horizontal,blue,Distractor2.bmp,yellow,Distractor1.bmp,purple,Distractor2.bmp,red,Distractor2.bmp,lime,Target2.bmp,cyan,Distractor2.bmp,,,,TrialProc,,TrainingTrialList,1,2,-999999,0,2822240,0,2,592,2822832,Target2.bmp,lime,2,,,,5,1,3
KW_Experiment5A,15,1,"<?xml version=""1.0""?>\n<Clock xmlns:dt=""urn:schemas-microsoft-com:datatypes""><Description dt:dt=""string"">E-Prime Primary Realtime Clock</Description><StartTime><Timestamp dt:dt=""int"">0</Timestamp><DateUtc dt:dt=""string"">2018-10-11T19:44:09Z</DateUtc></StartTime><FrequencyChanges><FrequencyChange><Frequency dt:dt=""r8"">3215292</Frequency><Timestamp dt:dt=""r8"">4212886722915</Timestamp><Current dt:dt=""r8"">0</Current><DateUtc dt:dt=""string"">2018-10-11T19:44:09Z</DateUtc></FrequencyChange></FrequencyChanges></Clock>\n",KW_Experiment5A-15-1,59.945,1.0.0.105,1,-475562240,Professional,2.0.10.353,2.0.10.353,10/11/2018,10/11/2018 19:44,15:44:09,2.0.10.248,2,2,1,2,,,,,,,,TrainingProc,BlockList,4,2,Distractor1.bmp,1,0,,0,1,2823842,400,,0,0,purple,400,1,400,5,horizontal,purple,Distractor2.bmp,lime,Target2.bmp,red,Distractor1.bmp,yellow,Distractor2.bmp,blue,Distractor1.bmp,cyan,Distractor1.bmp,,,,TrialProc,,TrainingTrialList,1,2,-999999,0,2824242,0,2,598,2824840,Target2.bmp,lime,2,,,,2,1,4
KW_Experiment5A,15,1,"<?xml version=""1.0""?>\n<Clock xmlns:dt=""urn:schemas-microsoft-com:datatypes""><Description dt:dt=""string"">E-Prime Primary Realtime Clock</Description><StartTime><Timestamp dt:dt=""int"">0</Timestamp><DateUtc dt:dt=""string"">2018-10-11T19:44:09Z</DateUtc></StartTime><FrequencyChanges><FrequencyChange><Frequency dt:dt=""r8"">3215292</Frequency><Timestamp dt:dt=""r8"">4212886722915</Timestamp><Current dt:dt=""r8"">0</Current><DateUtc dt:dt=""string"">2018-10-11T19:44:09Z</DateUtc></FrequencyChange></FrequencyChanges></Clock>\n",KW_Experiment5A-15-1,59.945,1.0.0.105,1,-475562240,Professional,2.0.10.353,2.0.10.353,10/11/2018,10/11/2018 19:44,15:44:09,2.0.10.248,2,2,1,2,,,,,,,,TrainingProc,BlockList,5,2,Distractor1.bmp,1,0,,0,1,2825860,400,,0,0,lime,400,1,400,,horizontal,lime,Distractor1.bmp,red,Target2.bmp,cyan,Distractor1.bmp,blue,Distractor1.bmp,yellow,Distractor1.bmp,purple,Distractor1.bmp,,,,TrialProc,6,TrainingTrialList,1,2,-999999,0,2826260,0,2,539,2826799,Target2.bmp,red,2,,,,8,1,5
KW_Experiment5A,15,1,"<?xml version=""1.0""?>\n<Clock xmlns:dt=""urn:schemas-microsoft-com:datatypes""><Description dt:dt=""string"">E-Prime Primary Realtime Clock</Description><StartTime><Timestamp dt:dt=""int"">0</Timestamp><DateUtc dt:dt=""string"">2018-10-11T19:44:09Z</DateUtc></StartTime><FrequencyChanges><FrequencyChange><Frequency dt:dt=""r8"">3215292</Frequency><Timestamp dt:dt=""r8"">4212886722915</Timestamp><Current dt:dt=""r8"">0</Current><DateUtc dt:dt=""string"">2018-10-11T19:44:09Z</DateUtc></FrequencyChange></FrequencyChanges></Clock>\n",KW_Experiment5A-15-1,59.945,1.0.0.105,1,-475562240,Professional,2.0.10.353,2.0.10.353,10/11/2018,10/11/2018 19:44,15:44:09,2.0.10.248,2,2,1,2,,,,,,,,TrainingProc,BlockList,6,2,Distractor2.bmp,2,0,,0,1,2827812,500,,0,0,purple,500,2,500,,horizontal,purple,Distractor2.bmp,blue,Distractor2.bmp,red,Target2.bmp,lime,Distractor2.bmp,cyan,Distractor1.bmp,yellow,Distractor2.bmp,,,,TrialProc,5,TrainingTrialList,1,2,-999999,0,2828312,0,2,679,2828991,Target2.bmp,red,2,,,,9,1,6
KW_Experiment5A,15,1,"<?xml version=""1.0""?>\n<Clock xmlns:dt=""urn:schemas-microsoft-com:datatypes""><Description dt:dt=""string"">E-Prime Primary Realtime Clock</Description><StartTime><Timestamp dt:dt=""int"">0</Timestamp><DateUtc dt:dt=""string"">2018-10-11T19:44:09Z</DateUtc></StartTime><FrequencyChanges><FrequencyChange><Frequency dt:dt=""r8"">3215292</Frequency><Timestamp dt:dt=""r8"">4212886722915</Timestamp><Current dt:dt=""r8"">0</Current><DateUtc dt:dt=""string"">2018-10-11T19:44:09Z</DateUtc></FrequencyChange></FrequencyChanges></Clock>\n",KW_Experiment5A-15-1,59.945,1.0.0.105,1,-475562240,Professional,2.0.10.353,2.0.10.353,10/11/2018,10/11/2018 19:44,15:44:09,2.0.10.248,2,2,1,2,,,,,,,,TrainingProc,BlockList,7,1,Distractor1.bmp,1,0,,0,1,2830014,400,,0,0,red,400,1,400,1,vertical,red,Distractor2.bmp,lime,Target1.bmp,blue,Distractor1.bmp,yellow,Distractor1.bmp,cyan,Distractor1.bmp,purple,Distractor2.bmp,,,,TrialProc,,TrainingTrialList,1,1,-999999,0,2830414,0,1,801,2831215,Target1.bmp,lime,1,,,,2,1,7
KW_Experiment5A,15,1,"<?xml version=""1.0""?>\n<Clock xmlns:dt=""urn:schemas-microsoft-com:datatypes""><Description dt:dt=""string"">E-Prime Primary Realtime Clock</Description><StartTime><Timestamp dt:dt=""int"">0</Timestamp><DateUtc dt:dt=""string"">2018-10-11T19:44:09Z</DateUtc></StartTime><FrequencyChanges><FrequencyChange><Frequency dt:dt=""r8"">3215292</Frequency><Timestamp dt:dt=""r8"">4212886722915</Timestamp><Current dt:dt=""r8"">0</Current><DateUtc dt:dt=""string"">2018-10-11T19:44:09Z</DateUtc></FrequencyChange></FrequencyChanges></Clock>\n",KW_Experiment5A-15-1,59.945,1.0.0.105,1,-475562240,Professional,2.0.10.353,2.0.10.353,10/11/2018,10/11/2018 19:44,15:44:09,2.0.10.248,2,2,1,2,,,,,,,,TrainingProc,BlockList,8,2,Distractor1.bmp,1,0,,0,1,2832233,600,,0,0,yellow,600,3,600,2,horizontal,yellow,Distractor2.bmp,lime,Target2.bmp,blue,Distractor1.bmp,red,Distractor1.bmp,cyan,Distractor1.bmp,purple,Distractor2.bmp,,,,TrialProc,,TrainingTrialList,1,2,-999999,0,2832833,0,2,630,2833463,Target2.bmp,lime,2,,,,2,1,8
KW_Experiment5A,15,1,"<?xml version=""1.0""?>\n<Clock xmlns:dt=""urn:schemas-microsoft-com:datatypes""><Description dt:dt=""string"">E-Prime Primary Realtime Clock</Description><StartTime><Timestamp dt:dt=""int"">0</Timestamp><DateUtc dt:dt=""string"">2018-10-11T19:44:09Z</DateUtc></StartTime><FrequencyChanges><FrequencyChange><Frequency dt:dt=""r8"">3215292</Frequency><Timestamp dt:dt=""r8"">4212886722915</Timestamp><Current dt:dt=""r8"">0</Current><DateUtc dt:dt=""string"">2018-10-11T19:44:09Z</DateUtc></FrequencyChange></FrequencyChanges></Clock>\n",KW_Experiment5A-15-1,59.945,1.0.0.105,1,-475562240,Professional,2.0.10.353,2.0.10.353,10/11/2018,10/11/2018 19:44,15:44:09,2.0.10.248,2,2,1,2,,,,,,,,TrainingProc,BlockList,9,1,Distractor1.bmp,1,0,,0,1,2834485,400,,0,0,red,400,1,400,1,vertical,red,Distractor1.bmp,blue,Distractor1.bmp,lime,Target1.bmp,purple,Distractor1.bmp,cyan,Distractor1.bmp,yellow,Distractor2.bmp,,,,TrialProc,,TrainingTrialList,1,1,-999999,0,2834885,0,1,1210,2836095,Target1.bmp,lime,1,,,,3,1,9
KW_Experiment5A,15,1,"<?xml version=""1.0""?>\n<Clock xmlns:dt=""urn:schemas-microsoft-com:datatypes""><Description dt:dt=""string"">E-Prime Primary Realtime Clock</Description><StartTime><Timestamp dt:dt=""int"">0</Timestamp><DateUtc dt:dt=""string"">2018-10-11T19:44:09Z</DateUtc></StartTime><FrequencyChanges><FrequencyChange><Frequency dt:dt=""r8"">3215292</Frequency><Timestamp dt:dt=""r8"">4212886722915</Timestamp><Current dt:dt=""r8"">0</Current><DateUtc dt:dt=""string"">2018-10-11T19:44:09Z</DateUtc></FrequencyChange></FrequencyChanges></Clock>\n",KW_Experiment5A-15-1,59.945,1.0.0.105,1,-475562240,Professional,2.0.10.353,2.0.10.353,10/11/2018,10/11/2018 19:44,15:44:09,2.0.10.248,2,2,1,2,,,,,,,,TrainingProc,BlockList,10,1,Distractor1.bmp,1,0,,0,1,2837120,401,,0,0,yellow,400,1,400,,vertical,yellow,Distractor1.bmp,blue,Distractor2.bmp,purple,Distractor2.bmp,lime,Distractor2.bmp,cyan,Distractor1.bmp,red,Target1.bmp,,,,TrialProc,2,TrainingTrialList,1,1,-999999,1,2837521,0,1,686,2838207,Target1.bmp,red,1,,,,12,1,10
KW_Experiment5A,15,1,"<?xml version=""1.0""?>\n<Clock xmlns:dt=""urn:schemas-microsoft-com:datatypes""><Description dt:dt=""string"">E-Prime Primary Realtime Clock</Description><StartTime><Timestamp dt:dt=""int"">0</Timestamp><DateUtc dt:dt=""string"">2018-10-11T19:44:09Z</DateUtc></StartTime><FrequencyChanges><FrequencyChange><Frequency dt:dt=""r8"">3215292</Frequency><Timestamp dt:dt=""r8"">4212886722915</Timestamp><Current dt:dt=""r8"">0</Current><DateUtc dt:dt=""string"">2018-10-11T19:44:09Z</DateUtc></FrequencyChange></FrequencyChanges></Clock>\n",KW_Experiment5A-15-1,59.945,1.0.0.105,1,-475562240,Professional,2.0.10.353,2.0.10.353,10/11/2018,10/11/2018 19:44,15:44:09,2.0.10.248,2,2,1,2,,,,,,,,TrainingProc,BlockList,11,1,Distractor2.bmp,2,0,,0,1,2839222,401,,0,0,red,400,1,400,1,vertical,red,Distractor2.bmp,cyan,Distractor1.bmp,yellow,Distractor2.bmp,purple,Distractor2.bmp,blue,Distractor2.bmp,lime,Target1.bmp,,,,TrialProc,,TrainingTrialList,1,1,-999999,1,2839623,0,1,528,2840151,Target1.bmp,lime,1,,,,6,1,11
KW_Experiment5A,15,1,"<?xml version=""1.0""?>\n<Clock xmlns:dt=""urn:schemas-microsoft-com:datatypes""><Description dt:dt=""string"">E-Prime Primary Realtime Clock</Description><StartTime><Timestamp dt:dt=""int"">0</Timestamp><DateUtc dt:dt=""string"">2018-10-11T19:44:09Z</DateUtc></StartTime><FrequencyChanges><FrequencyChange><Frequency dt:dt=""r8"">3215292</Frequency><Timestamp dt:dt=""r8"">4212886722915</Timestamp><Current dt:dt=""r8"">0</Current><DateUtc dt:dt=""string"">2018-10-11T19:44:09Z</DateUtc></FrequencyChange></FrequencyChanges></Clock>\n",KW_Experiment5A-15-1,59.945,1.0.0.105,1,-475562240,Professional,2.0.10.353,2.0.10.353,10/11/2018,10/11/2018 19:44,15:44:09,2.0.10.248,2,2,1,2,,,,,,,,TrainingProc,BlockList,12,2,Distractor2.bmp,2,0,,0,1,2841174,500,,0,0,cyan,500,2,500,4,horizontal,cyan,Distractor2.bmp,blue,Distractor2.bmp,lime,Target2.bmp,yellow,Distractor2.bmp,purple,Distractor2.bmp,red,Distractor2.bmp,,,,TrialProc,,TrainingTrialList,1,2,-999999,0,2841674,0,2,997,2842671,Target2.bmp,lime,2,,,,3,1,12
KW_Experiment5A,15,1,"<?xml version=""1.0""?>\n<Clock xmlns:dt=""urn:schemas-microsoft-com:datatypes""><Description dt:dt=""string"">E-Prime Primary Realtime Clock</Description><StartTime><Timestamp dt:dt=""int"">0</Timestamp><DateUtc dt:dt=""string"">2018-10-11T19:44:09Z</DateUtc></StartTime><FrequencyChanges><FrequencyChange><Frequency dt:dt=""r8"">3215292</Frequency><Timestamp dt:dt=""r8"">4212886722915</Timestamp><Current dt:dt=""r8"">0</Current><DateUtc dt:dt=""string"">2018-10-11T19:44:09Z</DateUtc></FrequencyChange></FrequencyChanges></Clock>\n",KW_Experiment5A-15-1,59.945,1.0.0.105,1,-475562240,Professional,2.0.10.353,2.0.10.353,10/11/2018,10/11/2018 19:44,15:44:09,2.0.10.248,2,2,1,2,,,,,,,,TrainingProc,BlockList,13,1,Distractor2.bmp,2,0,,0,1,2843693,500,,0,0,purple,500,2,500,5,vertical,lime,Target1.bmp,purple,Distractor2.bmp,yellow,Distractor1.bmp,cyan,Distractor1.bmp,blue,Distractor1.bmp,red,Distractor2.bmp,,,,TrialProc,,TrainingTrialList,1,1,-999999,0,2844193,0,1,694,2844887,Target1.bmp,lime,1,,,,1,1,13
KW_Experiment5A,15,1,"<?xml version=""1.0""?>\n<Clock xmlns:dt=""urn:schemas-microsoft-com:datatypes""><Description dt:dt=""string"">E-Prime Primary Realtime Clock</Description><StartTime><Timestamp dt:dt=""int"">0</Timestamp><DateUtc dt:dt=""string"">2018-10-11T19:44:09Z</DateUtc></StartTime><FrequencyChanges><FrequencyChange><Frequency dt:dt=""r8"">3215292</Frequency><Timestamp dt:dt=""r8"">4212886722915</Timestamp><Current dt:dt=""r8"">0</Current><DateUtc dt:dt=""string"">2018-10-11T19:44:09Z</DateUtc></FrequencyChange></FrequencyChanges></Clock>\n",KW_Experiment5A-15-1,59.945,1.0.0.105,1,-475562240,Professional,2.0.10.353,2.0.10.353,10/11/2018,10/11/2018 19:44,15:44:09,2.0.10.248,2,2,1,2,,,,,,,,TrainingProc,BlockList,14,1,Distractor2.bmp,2,0,,0,1,2845912,600,,0,0,blue,600,3,600,3,vertical,blue,Distractor2.bmp,yellow,Distractor2.bmp,purple,Distractor2.bmp,lime,Target1.bmp,cyan,Distractor2.bmp,red,Distractor2.bmp,,,,TrialProc,,TrainingTrialList,1,1,-999999,0,2846512,0,1,799,2847311,Target1.bmp,lime,1,,,,4,1,14
KW_Experiment5A,15,1,"<?xml version=""1.0""?>\n<Clock xmlns:dt=""urn:schemas-microsoft-com:datatypes""><Description dt:dt=""string"">E-Prime Primary Realtime Clock</Description><StartTime><Timestamp dt:dt=""int"">0</Timestamp><DateUtc dt:dt=""string"">2018-10-11T19:44:09Z</DateUtc></StartTime><FrequencyChanges><FrequencyChange><Frequency dt:dt=""r8"">3215292</Frequency><Timestamp dt:dt=""r8"">4212886722915</Timestamp><Current dt:dt=""r8"">0</Current><DateUtc dt:dt=""string"">2018-10-11T19:44:09Z</DateUtc></FrequencyChange></FrequencyChanges></Clock>\n",KW_Experiment5A-15-1,59.945,1.0.0.105,1,-475562240,Professional,2.0.10.353,2.0.10.353,10/11/2018,10/11/2018 19:44,15:44:09,2.0.10.248,2,2,1,2,,,,,,,,TrainingProc,BlockList,15,2,Distractor1.bmp,1,0,,1,0,2848330,601,,0,0,yellow,600,3,600,,horizontal,red,Target2.bmp,purple,Distractor1.bmp,blue,Distractor2.bmp,lime,Distractor2.bmp,cyan,Distractor2.bmp,yellow,Distractor1.bmp,,,,TrialProc,2,TrainingTrialList,0,2,-999999,1,2848931,0,1,596,2849527,Target2.bmp,red,2,,,,7,1,15
KW_Experiment5A,15,1,"<?xml version=""1.0""?>\n<Clock xmlns:dt=""urn:schemas-microsoft-com:datatypes""><Description dt:dt=""string"">E-Prime Primary Realtime Clock</Description><StartTime><Timestamp dt:dt=""int"">0</Timestamp><DateUtc dt:dt=""string"">2018-10-11T19:44:09Z</DateUtc></StartTime><FrequencyChanges><FrequencyChange><Frequency dt:dt=""r8"">3215292</Frequency><Timestamp dt:dt=""r8"">4212886722915</Timestamp><Current dt:dt=""r8"">0</Current><DateUtc dt:dt=""string"">2018-10-11T19:44:09Z</DateUtc></FrequencyChange></FrequencyChanges></Clock>\n",KW_Experiment5A-15-1,59.945,1.0.0.105,1,-475562240,Professional,2.0.10.353,2.0.10.353,10/11/2018,10/11/2018 19:44,15:44:09,2.0.10.248,2,2,1,2,,,,,,,,TrainingProc,BlockList,16,1,Distractor2.bmp,2,0,,0,1,2850549,400,,0,0,yellow,400,1,400,2,vertical,yellow,Distractor1.bmp,cyan,Distractor1.bmp,lime,Target1.bmp,blue,Distractor2.bmp,purple,Distractor2.bmp,red,Distractor1.bmp,,,,TrialProc,,TrainingTrialList,1,1,-999999,0,2850949,0,1,1130,2852079,Target1.bmp,lime,1,,,,3,1,16
KW_Experiment5A,15,1,"<?xml version=""1.0""?>\n<Clock xmlns:dt=""urn:schemas-microsoft-com:datatypes""><Description dt:dt=""string"">E-Prime Primary Realtime Clock</Description><StartTime><Timestamp dt:dt=""int"">0</Timestamp><DateUtc dt:dt=""string"">2018-10-11T19:44:09Z</DateUtc></StartTime><FrequencyChanges><FrequencyChange><Frequency dt:dt=""r8"">3215292</Frequency><Timestamp dt:dt=""r8"">4212886722915</Timestamp><Current dt:dt=""r8"">0</Current><DateUtc dt:dt=""string"">2018-10-11T19:44:09Z</DateUtc></FrequencyChange></FrequencyChanges></Clock>\n",KW_Experiment5A-15-1,59.945,1.0.0.105,1,-475562240,Professional,2.0.10.353,2.0.10.353,10/11/2018,10/11/2018 19:44,15:44:09,2.0.10.248,2,2,1,2,,,,,,,,TrainingProc,BlockList,17,1,Distractor2.bmp,2,0,,1,0,2853101,501,,0,0,cyan,500,2,500,4,vertical,cyan,Distractor2.bmp,red,Distractor1.bmp,yellow,Distractor1.bmp,lime,Target1.bmp,purple,Distractor2.bmp,blue,Distractor2.bmp,,,,TrialProc,,TrainingTrialList,1,1,-999999,1,2853602,0,1,829,2854431,Target1.bmp,lime,1,,,,4,1,17
KW_Experiment5A,15,1,"<?xml version=""1.0""?>\n<Clock xmlns:dt=""urn:schemas-microsoft-com:datatypes""><Description dt:dt=""string"">E-Prime Primary Realtime Clock</Description><StartTime><Timestamp dt:dt=""int"">0</Timestamp><DateUtc dt:dt=""string"">2018-10-11T19:44:09Z</DateUtc></StartTime><FrequencyChanges><FrequencyChange><Frequency dt:dt=""r8"">3215292</Frequency><Timestamp dt:dt=""r8"">4212886722915</Timestamp><Current dt:dt=""r8"">0</Current><DateUtc dt:dt=""string"">2018-10-11T19:44:09Z</DateUtc></FrequencyChange></FrequencyChanges></Clock>\n",KW_Experiment5A-15-1,59.945,1.0.0.105,1,-475562240,Professional,2.0.10.353,2.0.10.353,10/11/2018,10/11/2018 19:44,15:44:09,2.0.10.248,2,2,1,2,,,,,,,,TrainingProc,BlockList,18,1,Distractor2.bmp,2,0,,0,1,2855454,600,,0,0,yellow,600,3,600,2,vertical,yellow,Distractor2.bmp,red,Distractor2.bmp,blue,Distractor1.bmp,cyan,Distractor2.bmp,lime,Target1.bmp,purple,Distractor2.bmp,,,,TrialProc,,TrainingTrialList,1,1,-999999,0,2856054,0,1,537,2856591,Target1.bmp,lime,1,,,,5,1,18
KW_Experiment5A,15,1,"<?xml version=""1.0""?>\n<Clock xmlns:dt=""urn:schemas-microsoft-com:datatypes""><Description dt:dt=""string"">E-Prime Primary Realtime Clock</Description><StartTime><Timestamp dt:dt=""int"">0</Timestamp><DateUtc dt:dt=""string"">2018-10-11T19:44:09Z</DateUtc></StartTime><FrequencyChanges><FrequencyChange><Frequency dt:dt=""r8"">3215292</Frequency><Timestamp dt:dt=""r8"">4212886722915</Timestamp><Current dt:dt=""r8"">0</Current><DateUtc dt:dt=""string"">2018-10-11T19:44:09Z</DateUtc></FrequencyChange></FrequencyChanges></Clock>\n",KW_Experiment5A-15-1,59.945,1.0.0.105,1,-475562240,Professional,2.0.10.353,2.0.10.353,10/11/2018,10/11/2018 19:44,15:44:09,2.0.10.248,2,2,1,2,,,,,,,,TrainingProc,BlockList,19,1,Distractor2.bmp,2,0,,0,1,2857606,400,,0,0,blue,400,1,400,3,vertical,lime,Target1.bmp,blue,Distractor2.bmp,cyan,Distractor2.bmp,yellow,Distractor2.bmp,purple,Distractor1.bmp,red,Distractor2.bmp,,,,TrialProc,,TrainingTrialList,1,1,-999999,0,2858006,0,1,641,2858647,Target1.bmp,lime,1,,,,1,1,19
KW_Experiment5A,15,1,"<?xml version=""1.0""?>\n<Clock xmlns:dt=""urn:schemas-microsoft-com:datatypes""><Description dt:dt=""string"">E-Prime Primary Realtime Clock</Description><StartTime><Timestamp dt:dt=""int"">0</Timestamp><DateUtc dt:dt=""string"">2018-10-11T19:44:09Z</DateUtc></StartTime><FrequencyChanges><FrequencyChange><Frequency dt:dt=""r8"">3215292</Frequency><Timestamp dt:dt=""r8"">4212886722915</Timestamp><Current dt:dt=""r8"">0</Current><DateUtc dt:dt=""string"">2018-10-11T19:44:09Z</DateUtc></FrequencyChange></FrequencyChanges></Clock>\n",KW_Experiment5A-15-1,59.945,1.0.0.105,1,-475562240,Professional,2.0.10.353,2.0.10.353,10/11/2018,10/11/2018 19:44,15:44:09,2.0.10.248,2,2,1,2,,,,,,,,TrainingProc,BlockList,20,1,Distractor1.bmp,1,0,,0,0,2859657,401,,0,0,blue,400,1,400,,vertical,blue,Distractor1.bmp,cyan,Distractor1.bmp,purple,Distractor2.bmp,yellow,Distractor2.bmp,red,Target1.bmp,lime,Distractor1.bmp,,,,TrialProc,3,TrainingTrialList,1,1,-999999,1,2860058,0,1,581,2860639,Target1.bmp,red,1,,,,11,1,20
KW_Experiment5A,15,1,"<?xml version=""1.0""?>\n<Clock xmlns:dt=""urn:schemas-microsoft-com:datatypes""><Description dt:dt=""string"">E-Prime Primary Realtime Clock</Description><StartTime><Timestamp dt:dt=""int"">0</Timestamp><DateUtc dt:dt=""string"">2018-10-11T19:44:09Z</DateUtc></StartTime><FrequencyChanges><FrequencyChange><Frequency dt:dt=""r8"">3215292</Frequency><Timestamp dt:dt=""r8"">4212886722915</Timestamp><Current dt:dt=""r8"">0</Current><DateUtc dt:dt=""string"">2018-10-11T19:44:09Z</DateUtc></FrequencyChange></FrequencyChanges></Clock>\n",KW_Experiment5A-15-1,59.945,1.0.0.105,1,-475562240,Professional,2.0.10.353,2.0.10.353,10/11/2018,10/11/2018 19:44,15:44:09,2.0.10.248,2,2,1,2,,,,,,,,TrainingProc,BlockList,21,2,Distractor1.bmp,1,0,,0,1,2861659,401,,0,0,yellow,400,1,400,2,horizontal,yellow,Distractor1.bmp,cyan,Distractor1.bmp,blue,Distractor2.bmp,purple,Distractor2.bmp,red,Distractor2.bmp,lime,Target2.bmp,,,,TrialProc,,TrainingTrialList,1,2,-999999,1,2862060,0,2,947,2863007,Target2.bmp,lime,2,,,,6,1,21
KW_Experiment5A,15,1,"<?xml version=""1.0""?>\n<Clock xmlns:dt=""urn:schemas-microsoft-com:datatypes""><Description dt:dt=""string"">E-Prime Primary Realtime Clock</Description><StartTime><Timestamp dt:dt=""int"">0</Timestamp><DateUtc dt:dt=""string"">2018-10-11T19:44:09Z</DateUtc></StartTime><FrequencyChanges><FrequencyChange><Frequency dt:dt=""r8"">3215292</Frequency><Timestamp dt:dt=""r8"">4212886722915</Timestamp><Current dt:dt=""r8"">0</Current><DateUtc dt:dt=""string"">2018-10-11T19:44:09Z</DateUtc></FrequencyChange></FrequencyChanges></Clock>\n",KW_Experiment5A-15-1,59.945,1.0.0.105,1,-475562240,Professional,2.0.10.353,2.0.10.353,10/11/2018,10/11/2018 19:44,15:44:09,2.0.10.248,2,2,1,2,,,,,,,,TrainingProc,BlockList,22,1,Distractor2.bmp,2,0,,0,1,2864028,400,,0,0,purple,400,1,400,5,vertical,lime,Target1.bmp,purple,Distractor2.bmp,cyan,Distractor1.bmp,blue,Distractor1.bmp,yellow,Distractor1.bmp,red,Distractor2.bmp,,,,TrialProc,,TrainingTrialList,1,1,-999999,0,2864428,0,1,827,2865255,Target1.bmp,lime,1,,,,1,1,22
KW_Experiment5A,15,1,"<?xml version=""1.0""?>\n<Clock xmlns:dt=""urn:schemas-microsoft-com:datatypes""><Description dt:dt=""string"">E-Prime Primary Realtime Clock</Description><StartTime><Timestamp dt:dt=""int"">0</Timestamp><DateUtc dt:dt=""string"">2018-10-11T19:44:09Z</DateUtc></StartTime><FrequencyChanges><FrequencyChange><Frequency dt:dt=""r8"">3215292</Frequency><Timestamp dt:dt=""r8"">4212886722915</Timestamp><Current dt:dt=""r8"">0</Current><DateUtc dt:dt=""string"">2018-10-11T19:44:09Z</DateUtc></FrequencyChange></FrequencyChanges></Clock>\n",KW_Experiment5A-15-1,59.945,1.0.0.105,1,-475562240,Professional,2.0.10.353,2.0.10.353,10/11/2018,10/11/2018 19:44,15:44:09,2.0.10.248,2,2,1,2,,,,,,,,TrainingProc,BlockList,23,1,Distractor2.bmp,2,0,,0,1,2866280,400,,0,0,cyan,400,1,400,4,vertical,cyan,Distractor1.bmp,yellow,Distractor1.bmp,red,Distractor1.bmp,lime,Target1.bmp,purple,Distractor2.bmp,blue,Distractor1.bmp,,,,TrialProc,,TrainingTrialList,1,1,-999999,0,2866680,0,1,710,2867390,Target1.bmp,lime,1,,,,4,1,23
KW_Experiment5A,15,1,"<?xml version=""1.0""?>\n<Clock xmlns:dt=""urn:schemas-microsoft-com:datatypes""><Description dt:dt=""string"">E-Prime Primary Realtime Clock</Description><StartTime><Timestamp dt:dt=""int"">0</Timestamp><DateUtc dt:dt=""string"">2018-10-11T19:44:09Z</DateUtc></StartTime><FrequencyChanges><FrequencyChange><Frequency dt:dt=""r8"">3215292</Frequency><Timestamp dt:dt=""r8"">4212886722915</Timestamp><Current dt:dt=""r8"">0</Current><DateUtc dt:dt=""string"">2018-10-11T19:44:09Z</DateUtc></FrequencyChange></FrequencyChanges></Clock>\n",KW_Experiment5A-15-1,59.945,1.0.0.105,1,-475562240,Professional,2.0.10.353,2.0.10.353,10/11/2018,10/11/2018 19:44,15:44:09,2.0.10.248,2,2,1,2,,,,,,,,TrainingProc,BlockList,24,2,Distractor2.bmp,2,0,,0,1,2868415,601,,0,0,purple,600,3,600,5,horizontal,purple,Distractor2.bmp,yellow,Distractor2.bmp,blue,Distractor2.bmp,cyan,Distractor1.bmp,red,Distractor2.bmp,lime,Target2.bmp,,,,TrialProc,,TrainingTrialList,1,2,-999999,1,2869016,0,2,702,2869718,Target2.bmp,lime,2,,,,6,1,24
KW_Experiment5A,15,1,"<?xml version=""1.0""?>\n<Clock xmlns:dt=""urn:schemas-microsoft-com:datatypes""><Description dt:dt=""string"">E-Prime Primary Realtime Clock</Description><StartTime><Timestamp dt:dt=""int"">0</Timestamp><DateUtc dt:dt=""string"">2018-10-11T19:44:09Z</DateUtc></StartTime><FrequencyChanges><FrequencyChange><Frequency dt:dt=""r8"">3215292</Frequency><Timestamp dt:dt=""r8"">4212886722915</Timestamp><Current dt:dt=""r8"">0</Current><DateUtc dt:dt=""string"">2018-10-11T19:44:09Z</DateUtc></FrequencyChange></FrequencyChanges></Clock>\n",KW_Experiment5A-15-1,59.945,1.0.0.105,1,-475562240,Professional,2.0.10.353,2.0.10.353,10/11/2018,10/11/2018 19:44,15:44:09,2.0.10.248,2,2,1,2,,,,,,,,TrainingProc,BlockList,25,1,Distractor1.bmp,1,0,,0,1,2870734,501,,0,0,purple,500,2,500,5,vertical,purple,Distractor1.bmp,lime,Target1.bmp,blue,Distractor1.bmp,cyan,Distractor2.bmp,yellow,Distractor2.bmp,red,Distractor1.bmp,,,,TrialProc,,TrainingTrialList,0,1,-999999,1,2871235,0,2,619,2871854,Target1.bmp,lime,1,,,,2,2,25
KW_Experiment5A,15,1,"<?xml version=""1.0""?>\n<Clock xmlns:dt=""urn:schemas-microsoft-com:datatypes""><Description dt:dt=""string"">E-Prime Primary Realtime Clock</Description><StartTime><Timestamp dt:dt=""int"">0</Timestamp><DateUtc dt:dt=""string"">2018-10-11T19:44:09Z</DateUtc></StartTime><FrequencyChanges><FrequencyChange><Frequency dt:dt=""r8"">3215292</Frequency><Timestamp dt:dt=""r8"">4212886722915</Timestamp><Current dt:dt=""r8"">0</Current><DateUtc dt:dt=""string"">2018-10-11T19:44:09Z</DateUtc></FrequencyChange></FrequencyChanges></Clock>\n",KW_Experiment5A-15-1,59.945,1.0.0.105,1,-475562240,Professional,2.0.10.353,2.0.10.353,10/11/2018,10/11/2018 19:44,15:44:09,2.0.10.248,2,2,1,2,,,,,,,,TrainingProc,BlockList,26,1,Distractor2.bmp,2,0,,1,0,2872869,501,,0,0,red,500,2,500,1,vertical,red,Distractor1.bmp,lime,Target1.bmp,cyan,Distractor2.bmp,purple,Distractor1.bmp,blue,Distractor2.bmp,yellow,Distractor1.bmp,,,,TrialProc,,TrainingTrialList,1,1,-999999,1,2873370,0,1,772,2874142,Target1.bmp,lime,1,,,,2,2,26
KW_Experiment5A,15,1,"<?xml version=""1.0""?>\n<Clock xmlns:dt=""urn:schemas-microsoft-com:datatypes""><Description dt:dt=""string"">E-Prime Primary Realtime Clock</Description><StartTime><Timestamp dt:dt=""int"">0</Timestamp><DateUtc dt:dt=""string"">2018-10-11T19:44:09Z</DateUtc></StartTime><FrequencyChanges><FrequencyChange><Frequency dt:dt=""r8"">3215292</Frequency><Timestamp dt:dt=""r8"">4212886722915</Timestamp><Current dt:dt=""r8"">0</Current><DateUtc dt:dt=""string"">2018-10-11T19:44:09Z</DateUtc></FrequencyChange></FrequencyChanges></Clock>\n",KW_Experiment5A-15-1,59.945,1.0.0.105,1,-475562240,Professional,2.0.10.353,2.0.10.353,10/11/2018,10/11/2018 19:44,15:44:09,2.0.10.248,2,2,1,2,,,,,,,,TrainingProc,BlockList,27,1,Distractor2.bmp,2,0,,0,1,2875155,600,,0,0,yellow,600,3,600,2,vertical,yellow,Distractor2.bmp,red,Distractor1.bmp,lime,Target1.bmp,purple,Distractor2.bmp,blue,Distractor1.bmp,cyan,Distractor1.bmp,,,,TrialProc,,TrainingTrialList,1,1,-999999,0,2875755,0,1,811,2876566,Target1.bmp,lime,1,,,,3,2,27
KW_Experiment5A,15,1,"<?xml version=""1.0""?>\n<Clock xmlns:dt=""urn:schemas-microsoft-com:datatypes""><Description dt:dt=""string"">E-Prime Primary Realtime Clock</Description><StartTime><Timestamp dt:dt=""int"">0</Timestamp><DateUtc dt:dt=""string"">2018-10-11T19:44:09Z</DateUtc></StartTime><FrequencyChanges><FrequencyChange><Frequency dt:dt=""r8"">3215292</Frequency><Timestamp dt:dt=""r8"">4212886722915</Timestamp><Current dt:dt=""r8"">0</Current><DateUtc dt:dt=""string"">2018-10-11T19:44:09Z</DateUtc></FrequencyChange></FrequencyChanges></Clock>\n",KW_Experiment5A-15-1,59.945,1.0.0.105,1,-475562240,Professional,2.0.10.353,2.0.10.353,10/11/2018,10/11/2018 19:44,15:44:09,2.0.10.248,2,2,1,2,,,,,,,,TrainingProc,BlockList,28,2,Distractor2.bmp,2,0,,0,1,2877590,601,,0,0,yellow,600,3,600,,horizontal,yellow,Distractor2.bmp,cyan,Distractor1.bmp,blue,Distractor1.bmp,purple,Distractor1.bmp,red,Target2.bmp,lime,Distractor2.bmp,,,,TrialProc,2,TrainingTrialList,1,2,-999999,1,2878191,0,2,1511,2879702,Target2.bmp,red,2,,,,11,2,28
KW_Experiment5A,15,1,"<?xml version=""1.0""?>\n<Clock xmlns:dt=""urn:schemas-microsoft-com:datatypes""><Description dt:dt=""string"">E-Prime Primary Realtime Clock</Description><StartTime><Timestamp dt:dt=""int"">0</Timestamp><DateUtc dt:dt=""string"">2018-10-11T19:44:09Z</DateUtc></StartTime><FrequencyChanges><FrequencyChange><Frequency dt:dt=""r8"">3215292</Frequency><Timestamp dt:dt=""r8"">4212886722915</Timestamp><Current dt:dt=""r8"">0</Current><DateUtc dt:dt=""string"">2018-10-11T19:44:09Z</DateUtc></FrequencyChange></FrequencyChanges></Clock>\n",KW_Experiment5A-15-1,59.945,1.0.0.105,1,-475562240,Professional,2.0.10.353,2.0.10.353,10/11/2018,10/11/2018 19:44,15:44:09,2.0.10.248,2,2,1,2,,,,,,,,TrainingProc,BlockList,29,2,Distractor1.bmp,1,0,,0,1,2880727,500,,0,0,cyan,500,2,500,4,horizontal,lime,Target2.bmp,cyan,Distractor1.bmp,purple,Distractor1.bmp,blue,Distractor2.bmp,red,Distractor1.bmp,yellow,Distractor2.bmp,,,,TrialProc,,TrainingTrialList,1,2,-999999,0,2881227,0,2,1491,2882718,Target2.bmp,lime,2,,,,1,2,29
KW_Experiment5A,15,1,"<?xml version=""1.0""?>\n<Clock xmlns:dt=""urn:schemas-microsoft-com:datatypes""><Description dt:dt=""string"">E-Prime Primary Realtime Clock</Description><StartTime><Timestamp dt:dt=""int"">0</Timestamp><DateUtc dt:dt=""string"">2018-10-11T19:44:09Z</DateUtc></StartTime><FrequencyChanges><FrequencyChange><Frequency dt:dt=""r8"">3215292</Frequency><Timestamp dt:dt=""r8"">4212886722915</Timestamp><Current dt:dt=""r8"">0</Current><DateUtc dt:dt=""string"">2018-10-11T19:44:09Z</DateUtc></FrequencyChange></FrequencyChanges></Clock>\n",KW_Experiment5A-15-1,59.945,1.0.0.105,1,-475562240,Professional,2.0.10.353,2.0.10.353,10/11/2018,10/11/2018 19:44,15:44:09,2.0.10.248,2,2,1,2,,,,,,,,TrainingProc,BlockList,30,1,Distractor1.bmp,1,0,,0,1,2883729,501,,0,0,cyan,500,2,500,4,vertical,cyan,Distractor2.bmp,yellow,Distractor2.bmp,red,Distractor1.bmp,blue,Distractor2.bmp,lime,Target1.bmp,purple,Distractor1.bmp,,,,TrialProc,,TrainingTrialList,1,1,-999999,1,2884230,0,1,1352,2885582,Target1.bmp,lime,1,,,,5,2,30
KW_Experiment5A,15,1,"<?xml version=""1.0""?>\n<Clock xmlns:dt=""urn:schemas-microsoft-com:datatypes""><Description dt:dt=""string"">E-Prime Primary Realtime Clock</Description><StartTime><Timestamp dt:dt=""int"">0</Timestamp><DateUtc dt:dt=""string"">2018-10-11T19:44:09Z</DateUtc></StartTime><FrequencyChanges><FrequencyChange><Frequency dt:dt=""r8"">3215292</Frequency><Timestamp dt:dt=""r8"">4212886722915</Timestamp><Current dt:dt=""r8"">0</Current><DateUtc dt:dt=""string"">2018-10-11T19:44:09Z</DateUtc></FrequencyChange></FrequencyChanges></Clock>\n",KW_Experiment5A-15-1,59.945,1.0.0.105,1,-475562240,Professional,2.0.10.353,2.0.10.353,10/11/2018,10/11/2018 19:44,15:44:09,2.0.10.248,2,2,1,2,,,,,,,,TrainingProc,BlockList,31,1,Distractor1.bmp,1,0,,0,1,2886599,400,,0,0,cyan,400,1,400,4,vertical,cyan,Distractor1.bmp,purple,Distractor2.bmp,blue,Distractor2.bmp,lime,Target1.bmp,yellow,Distractor1.bmp,red,Distractor2.bmp,,,,TrialProc,,TrainingTrialList,1,1,-999999,0,2886999,0,1,823,2887822,Target1.bmp,lime,1,,,,4,2,31
KW_Experiment5A,15,1,"<?xml version=""1.0""?>\n<Clock xmlns:dt=""urn:schemas-microsoft-com:datatypes""><Description dt:dt=""string"">E-Prime Primary Realtime Clock</Description><StartTime><Timestamp dt:dt=""int"">0</Timestamp><DateUtc dt:dt=""string"">2018-10-11T19:44:09Z</DateUtc></StartTime><FrequencyChanges><FrequencyChange><Frequency dt:dt=""r8"">3215292</Frequency><Timestamp dt:dt=""r8"">4212886722915</Timestamp><Current dt:dt=""r8"">0</Current><DateUtc dt:dt=""string"">2018-10-11T19:44:09Z</DateUtc></FrequencyChange></FrequencyChanges></Clock>\n",KW_Experiment5A-15-1,59.945,1.0.0.105,1,-475562240,Professional,2.0.10.353,2.0.10.353,10/11/2018,10/11/2018 19:44,15:44:09,2.0.10.248,2,2,1,2,,,,,,,,TrainingProc,BlockList,32,2,Distractor2.bmp,2,0,,0,1,2888834,600,,0,0,blue,600,3,600,3,horizontal,blue,Distractor2.bmp,yellow,Distractor2.bmp,red,Distractor1.bmp,cyan,Distractor1.bmp,purple,Distractor1.bmp,lime,Target2.bmp,,,,TrialProc,,TrainingTrialList,1,2,-999999,0,2889434,0,2,524,2889958,Target2.bmp,lime,2,,,,6,2,32
KW_Experiment5A,15,1,"<?xml version=""1.0""?>\n<Clock xmlns:dt=""urn:schemas-microsoft-com:datatypes""><Description dt:dt=""string"">E-Prime Primary Realtime Clock</Description><StartTime><Timestamp dt:dt=""int"">0</Timestamp><DateUtc dt:dt=""string"">2018-10-11T19:44:09Z</DateUtc></StartTime><FrequencyChanges><FrequencyChange><Frequency dt:dt=""r8"">3215292</Frequency><Timestamp dt:dt=""r8"">4212886722915</Timestamp><Current dt:dt=""r8"">0</Current><DateUtc dt:dt=""string"">2018-10-11T19:44:09Z</DateUtc></FrequencyChange></FrequencyChanges></Clock>\n",KW_Experiment5A-15-1,59.945,1.0.0.105,1,-475562240,Professional,2.0.10.353,2.0.10.353,10/11/2018,10/11/2018 19:44,15:44:09,2.0.10.248,2,2,1,2,,,,,,,,TrainingProc,BlockList,33,2,Distractor2.bmp,2,0,,0,1,2890969,501,,0,0,blue,500,2,500,3,horizontal,blue,Distractor2.bmp,purple,Distractor2.bmp,red,Distractor2.bmp,yellow,Distractor2.bmp,cyan,Distractor1.bmp,lime,Target2.bmp,,,,TrialProc,,TrainingTrialList,1,2,-999999,1,2891470,0,2,512,2891982,Target2.bmp,lime,2,,,,6,2,33
KW_Experiment5A,15,1,"<?xml version=""1.0""?>\n<Clock xmlns:dt=""urn:schemas-microsoft-com:datatypes""><Description dt:dt=""string"">E-Prime Primary Realtime Clock</Description><StartTime><Timestamp dt:dt=""int"">0</Timestamp><DateUtc dt:dt=""string"">2018-10-11T19:44:09Z</DateUtc></StartTime><FrequencyChanges><FrequencyChange><Frequency dt:dt=""r8"">3215292</Frequency><Timestamp dt:dt=""r8"">4212886722915</Timestamp><Current dt:dt=""r8"">0</Current><DateUtc dt:dt=""string"">2018-10-11T19:44:09Z</DateUtc></FrequencyChange></FrequencyChanges></Clock>\n",KW_Experiment5A-15-1,59.945,1.0.0.105,1,-475562240,Professional,2.0.10.353,2.0.10.353,10/11/2018,10/11/2018 19:44,15:44:09,2.0.10.248,2,2,1,2,,,,,,,,TrainingProc,BlockList,34,2,Distractor2.bmp,2,0,,0,1,2893004,501,,0,0,cyan,500,2,500,4,horizontal,cyan,Distractor1.bmp,purple,Distractor2.bmp,lime,Target2.bmp,yellow,Distractor2.bmp,red,Distractor2.bmp,blue,Distractor2.bmp,,,,TrialProc,,TrainingTrialList,1,2,-999999,1,2893505,0,2,693,2894198,Target2.bmp,lime,2,,,,3,2,34
KW_Experiment5A,15,1,"<?xml version=""1.0""?>\n<Clock xmlns:dt=""urn:schemas-microsoft-com:datatypes""><Description dt:dt=""string"">E-Prime Primary Realtime Clock</Description><StartTime><Timestamp dt:dt=""int"">0</Timestamp><DateUtc dt:dt=""string"">2018-10-11T19:44:09Z</DateUtc></StartTime><FrequencyChanges><FrequencyChange><Frequency dt:dt=""r8"">3215292</Frequency><Timestamp dt:dt=""r8"">4212886722915</Timestamp><Current dt:dt=""r8"">0</Current><DateUtc dt:dt=""string"">2018-10-11T19:44:09Z</DateUtc></FrequencyChange></FrequencyChanges></Clock>\n",KW_Experiment5A-15-1,59.945,1.0.0.105,1,-475562240,Professional,2.0.10.353,2.0.10.353,10/11/2018,10/11/2018 19:44,15:44:09,2.0.10.248,2,2,1,2,,,,,,,,TrainingProc,BlockList,35,2,Distractor1.bmp,1,0,,0,1,2895223,601,,0,0,blue,600,3,600,3,horizontal,blue,Distractor1.bmp,yellow,Distractor2.bmp,cyan,Distractor1.bmp,lime,Target2.bmp,purple,Distractor1.bmp,red,Distractor1.bmp,,,,TrialProc,,TrainingTrialList,1,2,-999999,1,2895824,0,2,678,2896502,Target2.bmp,lime,2,,,,4,2,35
KW_Experiment5A,15,1,"<?xml version=""1.0""?>\n<Clock xmlns:dt=""urn:schemas-microsoft-com:datatypes""><Description dt:dt=""string"">E-Prime Primary Realtime Clock</Description><StartTime><Timestamp dt:dt=""int"">0</Timestamp><DateUtc dt:dt=""string"">2018-10-11T19:44:09Z</DateUtc></StartTime><FrequencyChanges><FrequencyChange><Frequency dt:dt=""r8"">3215292</Frequency><Timestamp dt:dt=""r8"">4212886722915</Timestamp><Current dt:dt=""r8"">0</Current><DateUtc dt:dt=""string"">2018-10-11T19:44:09Z</DateUtc></FrequencyChange></FrequencyChanges></Clock>\n",KW_Experiment5A-15-1,59.945,1.0.0.105,1,-475562240,Professional,2.0.10.353,2.0.10.353,10/11/2018,10/11/2018 19:44,15:44:09,2.0.10.248,2,2,1,2,,,,,,,,TrainingProc,BlockList,36,1,Distractor2.bmp,2,0,,0,1,2897525,501,,0,0,purple,500,2,500,5,vertical,lime,Target1.bmp,purple,Distractor2.bmp,red,Distractor2.bmp,blue,Distractor2.bmp,yellow,Distractor2.bmp,cyan,Distractor2.bmp,,,,TrialProc,,TrainingTrialList,1,1,-999999,1,2898026,0,1,660,2898686,Target1.bmp,lime,1,,,,1,2,36
KW_Experiment5A,15,1,"<?xml version=""1.0""?>\n<Clock xmlns:dt=""urn:schemas-microsoft-com:datatypes""><Description dt:dt=""string"">E-Prime Primary Realtime Clock</Description><StartTime><Timestamp dt:dt=""int"">0</Timestamp><DateUtc dt:dt=""string"">2018-10-11T19:44:09Z</DateUtc></StartTime><FrequencyChanges><FrequencyChange><Frequency dt:dt=""r8"">3215292</Frequency><Timestamp dt:dt=""r8"">4212886722915</Timestamp><Current dt:dt=""r8"">0</Current><DateUtc dt:dt=""string"">2018-10-11T19:44:09Z</DateUtc></FrequencyChange></FrequencyChanges></Clock>\n",KW_Experiment5A-15-1,59.945,1.0.0.105,1,-475562240,Professional,2.0.10.353,2.0.10.353,10/11/2018,10/11/2018 19:44,15:44:09,2.0.10.248,2,2,1,2,,,,,,,,TrainingProc,BlockList,37,2,Distractor1.bmp,1,0,,0,1,2899711,500,,0,0,cyan,500,2,500,,horizontal,cyan,Distractor2.bmp,yellow,Distractor2.bmp,lime,Distractor1.bmp,red,Target2.bmp,purple,Distractor1.bmp,blue,Distractor1.bmp,,,,TrialProc,4,TrainingTrialList,0,2,-999999,0,2900211,0,1,1091,2901302,Target2.bmp,red,2,,,,10,2,37
KW_Experiment5A,15,1,"<?xml version=""1.0""?>\n<Clock xmlns:dt=""urn:schemas-microsoft-com:datatypes""><Description dt:dt=""string"">E-Prime Primary Realtime Clock</Description><StartTime><Timestamp dt:dt=""int"">0</Timestamp><DateUtc dt:dt=""string"">2018-10-11T19:44:09Z</DateUtc></StartTime><FrequencyChanges><FrequencyChange><Frequency dt:dt=""r8"">3215292</Frequency><Timestamp dt:dt=""r8"">4212886722915</Timestamp><Current dt:dt=""r8"">0</Current><DateUtc dt:dt=""string"">2018-10-11T19:44:09Z</DateUtc></FrequencyChange></FrequencyChanges></Clock>\n",KW_Experiment5A-15-1,59.945,1.0.0.105,1,-475562240,Professional,2.0.10.353,2.0.10.353,10/11/2018,10/11/2018 19:44,15:44:09,2.0.10.248,2,2,1,2,,,,,,,,TrainingProc,BlockList,38,2,Distractor1.bmp,1,0,,0,1,2902313,500,,0,0,cyan,500,2,500,4,horizontal,cyan,Distractor2.bmp,yellow,Distractor1.bmp,purple,Distractor2.bmp,red,Distractor2.bmp,lime,Target2.bmp,blue,Distractor1.bmp,,,,TrialProc,,TrainingTrialList,1,2,-999999,0,2902813,0,2,1025,2903838,Target2.bmp,lime,2,,,,5,2,38
KW_Experiment5A,15,1,"<?xml version=""1.0""?>\n<Clock xmlns:dt=""urn:schemas-microsoft-com:datatypes""><Description dt:dt=""string"">E-Prime Primary Realtime Clock</Description><StartTime><Timestamp dt:dt=""int"">0</Timestamp><DateUtc dt:dt=""string"">2018-10-11T19:44:09Z</DateUtc></StartTime><FrequencyChanges><FrequencyChange><Frequency dt:dt=""r8"">3215292</Frequency><Timestamp dt:dt=""r8"">4212886722915</Timestamp><Current dt:dt=""r8"">0</Current><DateUtc dt:dt=""string"">2018-10-11T19:44:09Z</DateUtc></FrequencyChange></FrequencyChanges></Clock>\n",KW_Experiment5A-15-1,59.945,1.0.0.105,1,-475562240,Professional,2.0.10.353,2.0.10.353,10/11/2018,10/11/2018 19:44,15:44:09,2.0.10.248,2,2,1,2,,,,,,,,TrainingProc,BlockList,39,2,Distractor2.bmp,2,0,,0,1,2904849,400,,0,0,cyan,400,1,400,4,horizontal,cyan,Distractor2.bmp,purple,Distractor1.bmp,lime,Target2.bmp,red,Distractor2.bmp,blue,Distractor1.bmp,yellow,Distractor2.bmp,,,,TrialProc,,TrainingTrialList,1,2,-999999,0,2905249,0,2,581,2905830,Target2.bmp,lime,2,,,,3,2,39
KW_Experiment5A,15,1,"<?xml version=""1.0""?>\n<Clock xmlns:dt=""urn:schemas-microsoft-com:datatypes""><Description dt:dt=""string"">E-Prime Primary Realtime Clock</Description><StartTime><Timestamp dt:dt=""int"">0</Timestamp><DateUtc dt:dt=""string"">2018-10-11T19:44:09Z</DateUtc></StartTime><FrequencyChanges><FrequencyChange><Frequency dt:dt=""r8"">3215292</Frequency><Timestamp dt:dt=""r8"">4212886722915</Timestamp><Current dt:dt=""r8"">0</Current><DateUtc dt:dt=""string"">2018-10-11T19:44:09Z</DateUtc></FrequencyChange></FrequencyChanges></Clock>\n",KW_Experiment5A-15-1,59.945,1.0.0.105,1,-475562240,Professional,2.0.10.353,2.0.10.353,10/11/2018,10/11/2018 19:44,15:44:09,2.0.10.248,2,2,1,2,,,,,,,,TrainingProc,BlockList,40,2,Distractor1.bmp,1,0,,0,1,2906850,601,,0,0,red,600,3,600,1,horizontal,red,Distractor1.bmp,yellow,Distractor2.bmp,purple,Distractor2.bmp,lime,Target2.bmp,cyan,Distractor1.bmp,blue,Distractor1.bmp,,,,TrialProc,,TrainingTrialList,1,2,-999999,1,2907451,0,2,666,2908117,Target2.bmp,lime,2,,,,4,2,40
KW_Experiment5A,15,1,"<?xml version=""1.0""?>\n<Clock xmlns:dt=""urn:schemas-microsoft-com:datatypes""><Description dt:dt=""string"">E-Prime Primary Realtime Clock</Description><StartTime><Timestamp dt:dt=""int"">0</Timestamp><DateUtc dt:dt=""string"">2018-10-11T19:44:09Z</DateUtc></StartTime><FrequencyChanges><FrequencyChange><Frequency dt:dt=""r8"">3215292</Frequency><Timestamp dt:dt=""r8"">4212886722915</Timestamp><Current dt:dt=""r8"">0</Current><DateUtc dt:dt=""string"">2018-10-11T19:44:09Z</DateUtc></FrequencyChange></FrequencyChanges></Clock>\n",KW_Experiment5A-15-1,59.945,1.0.0.105,1,-475562240,Professional,2.0.10.353,2.0.10.353,10/11/2018,10/11/2018 19:44,15:44:09,2.0.10.248,2,2,1,2,,,,,,,,TrainingProc,BlockList,41,2,Distractor2.bmp,2,0,,0,1,2909136,600,,0,0,cyan,600,3,600,4,horizontal,lime,Target2.bmp,cyan,Distractor2.bmp,blue,Distractor2.bmp,red,Distractor2.bmp,yellow,Distractor2.bmp,purple,Distractor1.bmp,,,,TrialProc,,TrainingTrialList,1,2,-999999,0,2909736,0,2,445,2910181,Target2.bmp,lime,2,,,,1,2,41
KW_Experiment5A,15,1,"<?xml version=""1.0""?>\n<Clock xmlns:dt=""urn:schemas-microsoft-com:datatypes""><Description dt:dt=""string"">E-Prime Primary Realtime Clock</Description><StartTime><Timestamp dt:dt=""int"">0</Timestamp><DateUtc dt:dt=""string"">2018-10-11T19:44:09Z</DateUtc></StartTime><FrequencyChanges><FrequencyChange><Frequency dt:dt=""r8"">3215292</Frequency><Timestamp dt:dt=""r8"">4212886722915</Timestamp><Current dt:dt=""r8"">0</Current><DateUtc dt:dt=""string"">2018-10-11T19:44:09Z</DateUtc></FrequencyChange></FrequencyChanges></Clock>\n",KW_Experiment5A-15-1,59.945,1.0.0.105,1,-475562240,Professional,2.0.10.353,2.0.10.353,10/11/2018,10/11/2018 19:44,15:44:09,2.0.10.248,2,2,1,2,,,,,,,,TrainingProc,BlockList,42,1,Distractor1.bmp,1,0,,0,1,2911204,401,,0,0,purple,400,1,400,,vertical,purple,Distractor1.bmp,red,Target1.bmp,cyan,Distractor1.bmp,lime,Distractor1.bmp,blue,Distractor1.bmp,yellow,Distractor1.bmp,,,,TrialProc,5,TrainingTrialList,0,1,-999999,1,2911605,0,2,624,2912229,Target1.bmp,red,1,,,,8,2,42
KW_Experiment5A,15,1,"<?xml version=""1.0""?>\n<Clock xmlns:dt=""urn:schemas-microsoft-com:datatypes""><Description dt:dt=""string"">E-Prime Primary Realtime Clock</Description><StartTime><Timestamp dt:dt=""int"">0</Timestamp><DateUtc dt:dt=""string"">2018-10-11T19:44:09Z</DateUtc></StartTime><FrequencyChanges><FrequencyChange><Frequency dt:dt=""r8"">3215292</Frequency><Timestamp dt:dt=""r8"">4212886722915</Timestamp><Current dt:dt=""r8"">0</Current><DateUtc dt:dt=""string"">2018-10-11T19:44:09Z</DateUtc></FrequencyChange></FrequencyChanges></Clock>\n",KW_Experiment5A-15-1,59.945,1.0.0.105,1,-475562240,Professional,2.0.10.353,2.0.10.353,10/11/2018,10/11/2018 19:44,15:44:09,2.0.10.248,2,2,1,2,,,,,,,,TrainingProc,BlockList,43,2,Distractor2.bmp,2,0,,0,1,2913256,401,,0,0,cyan,400,1,400,,horizontal,cyan,Distractor2.bmp,purple,Distractor2.bmp,blue,Distractor2.bmp,yellow,Distractor2.bmp,lime,Distractor2.bmp,red,Target2.bmp,,,,TrialProc,4,TrainingTrialList,0,2,-999999,1,2913657,0,1,636,2914293,Target2.bmp,red,2,,,,12,2,43
KW_Experiment5A,15,1,"<?xml version=""1.0""?>\n<Clock xmlns:dt=""urn:schemas-microsoft-com:datatypes""><Description dt:dt=""string"">E-Prime Primary Realtime Clock</Description><StartTime><Timestamp dt:dt=""int"">0</Timestamp><DateUtc dt:dt=""string"">2018-10-11T19:44:09Z</DateUtc></StartTime><FrequencyChanges><FrequencyChange><Frequency dt:dt=""r8"">3215292</Frequency><Timestamp dt:dt=""r8"">4212886722915</Timestamp><Current dt:dt=""r8"">0</Current><DateUtc dt:dt=""string"">2018-10-11T19:44:09Z</DateUtc></FrequencyChange></FrequencyChanges></Clock>\n",KW_Experiment5A-15-1,59.945,1.0.0.105,1,-475562240,Professional,2.0.10.353,2.0.10.353,10/11/2018,10/11/2018 19:44,15:44:09,2.0.10.248,2,2,1,2,,,,,,,,TrainingProc,BlockList,44,1,Distractor2.bmp,2,0,,0,1,2915308,400,,0,0,cyan,400,1,400,,vertical,red,Target1.bmp,lime,Distractor2.bmp,blue,Distractor2.bmp,purple,Distractor1.bmp,yellow,Distractor1.bmp,cyan,Distractor2.bmp,,,,TrialProc,4,TrainingTrialList,1,1,-999999,0,2915708,0,1,841,2916549,Target1.bmp,red,1,,,,7,2,44
KW_Experiment5A,15,1,"<?xml version=""1.0""?>\n<Clock xmlns:dt=""urn:schemas-microsoft-com:datatypes""><Description dt:dt=""string"">E-Prime Primary Realtime Clock</Description><StartTime><Timestamp dt:dt=""int"">0</Timestamp><DateUtc dt:dt=""string"">2018-10-11T19:44:09Z</DateUtc></StartTime><FrequencyChanges><FrequencyChange><Frequency dt:dt=""r8"">3215292</Frequency><Timestamp dt:dt=""r8"">4212886722915</Timestamp><Current dt:dt=""r8"">0</Current><DateUtc dt:dt=""string"">2018-10-11T19:44:09Z</DateUtc></FrequencyChange></FrequencyChanges></Clock>\n",KW_Experiment5A-15-1,59.945,1.0.0.105,1,-475562240,Professional,2.0.10.353,2.0.10.353,10/11/2018,10/11/2018 19:44,15:44:09,2.0.10.248,2,2,1,2,,,,,,,,TrainingProc,BlockList,45,2,Distractor1.bmp,1,0,,0,1,2917560,601,,0,0,purple,600,3,600,,horizontal,purple,Distractor2.bmp,lime,Distractor1.bmp,red,Target2.bmp,blue,Distractor1.bmp,cyan,Distractor1.bmp,yellow,Distractor2.bmp,,,,TrialProc,5,TrainingTrialList,1,2,-999999,1,2918161,0,2,972,2919133,Target2.bmp,red,2,,,,9,2,45
KW_Experiment5A,15,1,"<?xml version=""1.0""?>\n<Clock xmlns:dt=""urn:schemas-microsoft-com:datatypes""><Description dt:dt=""string"">E-Prime Primary Realtime Clock</Description><StartTime><Timestamp dt:dt=""int"">0</Timestamp><DateUtc dt:dt=""string"">2018-10-11T19:44:09Z</DateUtc></StartTime><FrequencyChanges><FrequencyChange><Frequency dt:dt=""r8"">3215292</Frequency><Timestamp dt:dt=""r8"">4212886722915</Timestamp><Current dt:dt=""r8"">0</Current><DateUtc dt:dt=""string"">2018-10-11T19:44:09Z</DateUtc></FrequencyChange></FrequencyChanges></Clock>\n",KW_Experiment5A-15-1,59.945,1.0.0.105,1,-475562240,Professional,2.0.10.353,2.0.10.353,10/11/2018,10/11/2018 19:44,15:44:09,2.0.10.248,2,2,1,2,,,,,,,,TrainingProc,BlockList,46,1,Distractor2.bmp,2,0,,0,1,2920146,600,,0,0,cyan,600,3,600,4,vertical,cyan,Distractor1.bmp,lime,Target1.bmp,yellow,Distractor2.bmp,blue,Distractor1.bmp,red,Distractor1.bmp,purple,Distractor1.bmp,,,,TrialProc,,TrainingTrialList,1,1,-999999,0,2920746,0,1,1227,2921973,Target1.bmp,lime,1,,,,2,2,46
KW_Experiment5A,15,1,"<?xml version=""1.0""?>\n<Clock xmlns:dt=""urn:schemas-microsoft-com:datatypes""><Description dt:dt=""string"">E-Prime Primary Realtime Clock</Description><StartTime><Timestamp dt:dt=""int"">0</Timestamp><DateUtc dt:dt=""string"">2018-10-11T19:44:09Z</DateUtc></StartTime><FrequencyChanges><FrequencyChange><Frequency dt:dt=""r8"">3215292</Frequency><Timestamp dt:dt=""r8"">4212886722915</Timestamp><Current dt:dt=""r8"">0</Current><DateUtc dt:dt=""string"">2018-10-11T19:44:09Z</DateUtc></FrequencyChange></FrequencyChanges></Clock>\n",KW_Experiment5A-15-1,59.945,1.0.0.105,1,-475562240,Professional,2.0.10.353,2.0.10.353,10/11/2018,10/11/2018 19:44,15:44:09,2.0.10.248,2,2,1,2,,,,,,,,TrainingProc,BlockList,47,1,Distractor2.bmp,2,0,,0,1,2922998,601,,0,0,yellow,600,3,600,2,vertical,yellow,Distractor1.bmp,blue,Distractor1.bmp,red,Distractor1.bmp,purple,Distractor2.bmp,lime,Target1.bmp,cyan,Distractor2.bmp,,,,TrialProc,,TrainingTrialList,1,1,-999999,1,2923599,0,1,542,2924141,Target1.bmp,lime,1,,,,5,2,47
KW_Experiment5A,15,1,"<?xml version=""1.0""?>\n<Clock xmlns:dt=""urn:schemas-microsoft-com:datatypes""><Description dt:dt=""string"">E-Prime Primary Realtime Clock</Description><StartTime><Timestamp dt:dt=""int"">0</Timestamp><DateUtc dt:dt=""string"">2018-10-11T19:44:09Z</DateUtc></StartTime><FrequencyChanges><FrequencyChange><Frequency dt:dt=""r8"">3215292</Frequency><Timestamp dt:dt=""r8"">4212886722915</Timestamp><Current dt:dt=""r8"">0</Current><DateUtc dt:dt=""string"">2018-10-11T19:44:09Z</DateUtc></FrequencyChange></FrequencyChanges></Clock>\n",KW_Experiment5A-15-1,59.945,1.0.0.105,1,-475562240,Professional,2.0.10.353,2.0.10.353,10/11/2018,10/11/2018 19:44,15:44:09,2.0.10.248,2,2,1,2,,,,,,,,TrainingProc,BlockList,48,2,Distractor2.bmp,2,0,,0,1,2925150,601,,0,0,yellow,600,3,600,2,horizontal,yellow,Distractor2.bmp,red,Distractor1.bmp,purple,Distractor1.bmp,cyan,Distractor2.bmp,blue,Distractor1.bmp,lime,Target2.bmp,,,,TrialProc,,TrainingTrialList,1,2,-999999,1,2925751,0,2,614,2926365,Target2.bmp,lime,2,,,,6,2,48
KW_Experiment5A,15,1,"<?xml version=""1.0""?>\n<Clock xmlns:dt=""urn:schemas-microsoft-com:datatypes""><Description dt:dt=""string"">E-Prime Primary Realtime Clock</Description><StartTime><Timestamp dt:dt=""int"">0</Timestamp><DateUtc dt:dt=""string"">2018-10-11T19:44:09Z</DateUtc></StartTime><FrequencyChanges><FrequencyChange><Frequency dt:dt=""r8"">3215292</Frequency><Timestamp dt:dt=""r8"">4212886722915</Timestamp><Current dt:dt=""r8"">0</Current><DateUtc dt:dt=""string"">2018-10-11T19:44:09Z</DateUtc></FrequencyChange></FrequencyChanges></Clock>\n",KW_Experiment5A-15-1,59.945,1.0.0.105,1,-475562240,Professional,2.0.10.353,2.0.10.353,10/11/2018,10/11/2018 19:44,15:44:09,2.0.10.248,3,2,1,3,,,,,,,,TrainingProc,BlockList,1,1,Distractor1.bmp,1,0,,1,30,2938195,401,,0,0,purple,400,1,400,,vertical,red,Target1.bmp,blue,Distractor1.bmp,cyan,Distractor2.bmp,lime,Distractor1.bmp,yellow,Distractor1.bmp,purple,Distractor2.bmp,,,,TrialProc,5,TrainingTrialList,1,1,-999999,1,2938596,0,1,617,2939213,Target1.bmp,red,1,,,,7,3,49
KW_Experiment5A,15,1,"<?xml version=""1.0""?>\n<Clock xmlns:dt=""urn:schemas-microsoft-com:datatypes""><Description dt:dt=""string"">E-Prime Primary Realtime Clock</Description><StartTime><Timestamp dt:dt=""int"">0</Timestamp><DateUtc dt:dt=""string"">2018-10-11T19:44:09Z</DateUtc></StartTime><FrequencyChanges><FrequencyChange><Frequency dt:dt=""r8"">3215292</Frequency><Timestamp dt:dt=""r8"">4212886722915</Timestamp><Current dt:dt=""r8"">0</Current><DateUtc dt:dt=""string"">2018-10-11T19:44:09Z</DateUtc></FrequencyChange></FrequencyChanges></Clock>\n",KW_Experiment5A-15-1,59.945,1.0.0.105,1,-475562240,Professional,2.0.10.353,2.0.10.353,10/11/2018,10/11/2018 19:44,15:44:09,2.0.10.248,3,2,1,3,,,,,,,,TrainingProc,BlockList,2,1,Distractor1.bmp,1,0,,0,1,2940231,400,,0,0,blue,400,1,400,,vertical,blue,Distractor2.bmp,cyan,Distractor1.bmp,yellow,Distractor2.bmp,lime,Distractor2.bmp,red,Target1.bmp,purple,Distractor1.bmp,,,,TrialProc,3,TrainingTrialList,1,1,-999999,0,2940631,0,1,478,2941109,Target1.bmp,red,1,,,,11,3,50
KW_Experiment5A,15,1,"<?xml version=""1.0""?>\n<Clock xmlns:dt=""urn:schemas-microsoft-com:datatypes""><Description dt:dt=""string"">E-Prime Primary Realtime Clock</Description><StartTime><Timestamp dt:dt=""int"">0</Timestamp><DateUtc dt:dt=""string"">2018-10-11T19:44:09Z</DateUtc></StartTime><FrequencyChanges><FrequencyChange><Frequency dt:dt=""r8"">3215292</Frequency><Timestamp dt:dt=""r8"">4212886722915</Timestamp><Current dt:dt=""r8"">0</Current><DateUtc dt:dt=""string"">2018-10-11T19:44:09Z</DateUtc></FrequencyChange></FrequencyChanges></Clock>\n",KW_Experiment5A-15-1,59.945,1.0.0.105,1,-475562240,Professional,2.0.10.353,2.0.10.353,10/11/2018,10/11/2018 19:44,15:44:09,2.0.10.248,3,2,1,3,,,,,,,,TrainingProc,BlockList,3,1,Distractor2.bmp,2,0,,0,1,2942132,601,,0,0,red,600,3,600,1,vertical,red,Distractor2.bmp,lime,Target1.bmp,cyan,Distractor2.bmp,blue,Distractor2.bmp,purple,Distractor1.bmp,yellow,Distractor1.bmp,,,,TrialProc,,TrainingTrialList,1,1,-999999,1,2942733,0,1,776,2943509,Target1.bmp,lime,1,,,,2,3,51
KW_Experiment5A,15,1,"<?xml version=""1.0""?>\n<Clock xmlns:dt=""urn:schemas-microsoft-com:datatypes""><Description dt:dt=""string"">E-Prime Primary Realtime Clock</Description><StartTime><Timestamp dt:dt=""int"">0</Timestamp><DateUtc dt:dt=""string"">2018-10-11T19:44:09Z</DateUtc></StartTime><FrequencyChanges><FrequencyChange><Frequency dt:dt=""r8"">3215292</Frequency><Timestamp dt:dt=""r8"">4212886722915</Timestamp><Current dt:dt=""r8"">0</Current><DateUtc dt:dt=""string"">2018-10-11T19:44:09Z</DateUtc></FrequencyChange></FrequencyChanges></Clock>\n",KW_Experiment5A-15-1,59.945,1.0.0.105,1,-475562240,Professional,2.0.10.353,2.0.10.353,10/11/2018,10/11/2018 19:44,15:44:09,2.0.10.248,3,2,1,3,,,,,,,,TrainingProc,BlockList,4,1,Distractor2.bmp,2,0,,0,1,2944535,600,,0,0,blue,600,3,600,3,vertical,blue,Distractor1.bmp,red,Distractor2.bmp,yellow,Distractor1.bmp,purple,Distractor2.bmp,lime,Target1.bmp,cyan,Distractor2.bmp,,,,TrialProc,,TrainingTrialList,1,1,-999999,0,2945135,0,1,550,2945685,Target1.bmp,lime,1,,,,5,3,52
KW_Experiment5A,15,1,"<?xml version=""1.0""?>\n<Clock xmlns:dt=""urn:schemas-microsoft-com:datatypes""><Description dt:dt=""string"">E-Prime Primary Realtime Clock</Description><StartTime><Timestamp dt:dt=""int"">0</Timestamp><DateUtc dt:dt=""string"">2018-10-11T19:44:09Z</DateUtc></StartTime><FrequencyChanges><FrequencyChange><Frequency dt:dt=""r8"">3215292</Frequency><Timestamp dt:dt=""r8"">4212886722915</Timestamp><Current dt:dt=""r8"">0</Current><DateUtc dt:dt=""string"">2018-10-11T19:44:09Z</DateUtc></FrequencyChange></FrequencyChanges></Clock>\n",KW_Experiment5A-15-1,59.945,1.0.0.105,1,-475562240,Professional,2.0.10.353,2.0.10.353,10/11/2018,10/11/2018 19:44,15:44:09,2.0.10.248,3,2,1,3,,,,,,,,TrainingProc,BlockList,5,1,Distractor2.bmp,2,0,,0,1,2946703,401,,0,0,purple,400,1,400,5,vertical,lime,Target1.bmp,purple,Distractor2.bmp,yellow,Distractor1.bmp,cyan,Distractor1.bmp,blue,Distractor2.bmp,red,Distractor1.bmp,,,,TrialProc,,TrainingTrialList,1,1,-999999,1,2947104,0,1,509,2947613,Target1.bmp,lime,1,,,,1,3,53
KW_Experiment5A,15,1,"<?xml version=""1.0""?>\n<Clock xmlns:dt=""urn:schemas-microsoft-com:datatypes""><Description dt:dt=""string"">E-Prime Primary Realtime Clock</Description><StartTime><Timestamp dt:dt=""int"">0</Timestamp><DateUtc dt:dt=""string"">2018-10-11T19:44:09Z</DateUtc></StartTime><FrequencyChanges><FrequencyChange><Frequency dt:dt=""r8"">3215292</Frequency><Timestamp dt:dt=""r8"">4212886722915</Timestamp><Current dt:dt=""r8"">0</Current><DateUtc dt:dt=""string"">2018-10-11T19:44:09Z</DateUtc></FrequencyChange></FrequencyChanges></Clock>\n",KW_Experiment5A-15-1,59.945,1.0.0.105,1,-475562240,Professional,2.0.10.353,2.0.10.353,10/11/2018,10/11/2018 19:44,15:44:09,2.0.10.248,3,2,1,3,,,,,,,,TrainingProc,BlockList,6,2,Distractor1.bmp,1,0,,0,1,2948622,500,,0,0,yellow,500,2,500,2,horizontal,yellow,Distractor1.bmp,lime,Target2.bmp,blue,Distractor1.bmp,cyan,Distractor1.bmp,purple,Distractor2.bmp,red,Distractor1.bmp,,,,TrialProc,,TrainingTrialList,1,2,-999999,0,2949122,0,2,498,2949620,Target2.bmp,lime,2,,,,2,3,54
KW_Experiment5A,15,1,"<?xml version=""1.0""?>\n<Clock xmlns:dt=""urn:schemas-microsoft-com:datatypes""><Description dt:dt=""string"">E-Prime Primary Realtime Clock</Description><StartTime><Timestamp dt:dt=""int"">0</Timestamp><DateUtc dt:dt=""string"">2018-10-11T19:44:09Z</DateUtc></StartTime><FrequencyChanges><FrequencyChange><Frequency dt:dt=""r8"">3215292</Frequency><Timestamp dt:dt=""r8"">4212886722915</Timestamp><Current dt:dt=""r8"">0</Current><DateUtc dt:dt=""string"">2018-10-11T19:44:09Z</DateUtc></FrequencyChange></FrequencyChanges></Clock>\n",KW_Experiment5A-15-1,59.945,1.0.0.105,1,-475562240,Professional,2.0.10.353,2.0.10.353,10/11/2018,10/11/2018 19:44,15:44:09,2.0.10.248,3,2,1,3,,,,,,,,TrainingProc,BlockList,7,2,Distractor1.bmp,1,0,,0,1,2950640,400,,0,0,cyan,400,1,400,4,horizontal,cyan,Distractor1.bmp,purple,Distractor1.bmp,lime,Target2.bmp,red,Distractor1.bmp,blue,Distractor2.bmp,yellow,Distractor2.bmp,,,,TrialProc,,TrainingTrialList,1,2,-999999,0,2951040,0,2,588,2951628,Target2.bmp,lime,2,,,,3,3,55
KW_Experiment5A,15,1,"<?xml version=""1.0""?>\n<Clock xmlns:dt=""urn:schemas-microsoft-com:datatypes""><Description dt:dt=""string"">E-Prime Primary Realtime Clock</Description><StartTime><Timestamp dt:dt=""int"">0</Timestamp><DateUtc dt:dt=""string"">2018-10-11T19:44:09Z</DateUtc></StartTime><FrequencyChanges><FrequencyChange><Frequency dt:dt=""r8"">3215292</Frequency><Timestamp dt:dt=""r8"">4212886722915</Timestamp><Current dt:dt=""r8"">0</Current><DateUtc dt:dt=""string"">2018-10-11T19:44:09Z</DateUtc></FrequencyChange></FrequencyChanges></Clock>\n",KW_Experiment5A-15-1,59.945,1.0.0.105,1,-475562240,Professional,2.0.10.353,2.0.10.353,10/11/2018,10/11/2018 19:44,15:44:09,2.0.10.248,3,2,1,3,,,,,,,,TrainingProc,BlockList,8,2,Distractor1.bmp,1,0,,0,1,2952642,400,,0,0,purple,400,1,400,5,horizontal,purple,Distractor1.bmp,cyan,Distractor1.bmp,blue,Distractor2.bmp,lime,Target2.bmp,red,Distractor1.bmp,yellow,Distractor2.bmp,,,,TrialProc,,TrainingTrialList,1,2,-999999,0,2953042,0,2,650,2953692,Target2.bmp,lime,2,,,,4,3,56
KW_Experiment5A,15,1,"<?xml version=""1.0""?>\n<Clock xmlns:dt=""urn:schemas-microsoft-com:datatypes""><Description dt:dt=""string"">E-Prime Primary Realtime Clock</Description><StartTime><Timestamp dt:dt=""int"">0</Timestamp><DateUtc dt:dt=""string"">2018-10-11T19:44:09Z</DateUtc></StartTime><FrequencyChanges><FrequencyChange><Frequency dt:dt=""r8"">3215292</Frequency><Timestamp dt:dt=""r8"">4212886722915</Timestamp><Current dt:dt=""r8"">0</Current><DateUtc dt:dt=""string"">2018-10-11T19:44:09Z</DateUtc></FrequencyChange></FrequencyChanges></Clock>\n",KW_Experiment5A-15-1,59.945,1.0.0.105,1,-475562240,Professional,2.0.10.353,2.0.10.353,10/11/2018,10/11/2018 19:44,15:44:09,2.0.10.248,3,2,1,3,,,,,,,,TrainingProc,BlockList,9,1,Distractor1.bmp,1,0,,1,0,2954710,501,,0,0,lime,500,2,500,,vertical,lime,Distractor1.bmp,blue,Distractor1.bmp,purple,Distractor1.bmp,yellow,Distractor2.bmp,cyan,Distractor1.bmp,red,Target1.bmp,,,,TrialProc,6,TrainingTrialList,1,1,-999999,1,2955211,0,1,1009,2956220,Target1.bmp,red,1,,,,12,3,57
KW_Experiment5A,15,1,"<?xml version=""1.0""?>\n<Clock xmlns:dt=""urn:schemas-microsoft-com:datatypes""><Description dt:dt=""string"">E-Prime Primary Realtime Clock</Description><StartTime><Timestamp dt:dt=""int"">0</Timestamp><DateUtc dt:dt=""string"">2018-10-11T19:44:09Z</DateUtc></StartTime><FrequencyChanges><FrequencyChange><Frequency dt:dt=""r8"">3215292</Frequency><Timestamp dt:dt=""r8"">4212886722915</Timestamp><Current dt:dt=""r8"">0</Current><DateUtc dt:dt=""string"">2018-10-11T19:44:09Z</DateUtc></FrequencyChange></FrequencyChanges></Clock>\n",KW_Experiment5A-15-1,59.945,1.0.0.105,1,-475562240,Professional,2.0.10.353,2.0.10.353,10/11/2018,10/11/2018 19:44,15:44:09,2.0.10.248,3,2,1,3,,,,,,,,TrainingProc,BlockList,10,1,Distractor2.bmp,2,0,,0,1,2957246,501,,0,0,blue,500,2,500,3,vertical,blue,Distractor2.bmp,red,Distractor2.bmp,cyan,Distractor1.bmp,purple,Distractor1.bmp,lime,Target1.bmp,yellow,Distractor2.bmp,,,,TrialProc,,TrainingTrialList,1,1,-999999,1,2957747,0,1,585,2958332,Target1.bmp,lime,1,,,,5,3,58
KW_Experiment5A,15,1,"<?xml version=""1.0""?>\n<Clock xmlns:dt=""urn:schemas-microsoft-com:datatypes""><Description dt:dt=""string"">E-Prime Primary Realtime Clock</Description><StartTime><Timestamp dt:dt=""int"">0</Timestamp><DateUtc dt:dt=""string"">2018-10-11T19:44:09Z</DateUtc></StartTime><FrequencyChanges><FrequencyChange><Frequency dt:dt=""r8"">3215292</Frequency><Timestamp dt:dt=""r8"">4212886722915</Timestamp><Current dt:dt=""r8"">0</Current><DateUtc dt:dt=""string"">2018-10-11T19:44:09Z</DateUtc></FrequencyChange></FrequencyChanges></Clock>\n",KW_Experiment5A-15-1,59.945,1.0.0.105,1,-475562240,Professional,2.0.10.353,2.0.10.353,10/11/2018,10/11/2018 19:44,15:44:09,2.0.10.248,3,2,1,3,,,,,,,,TrainingProc,BlockList,11,2,Distractor2.bmp,2,0,,0,1,2959348,500,,0,0,cyan,500,2,500,4,horizontal,cyan,Distractor2.bmp,yellow,Distractor2.bmp,lime,Target2.bmp,red,Distractor2.bmp,blue,Distractor2.bmp,purple,Distractor2.bmp,,,,TrialProc,,TrainingTrialList,1,2,-999999,0,2959848,0,2,908,2960756,Target2.bmp,lime,2,,,,3,3,59
KW_Experiment5A,15,1,"<?xml version=""1.0""?>\n<Clock xmlns:dt=""urn:schemas-microsoft-com:datatypes""><Description dt:dt=""string"">E-Prime Primary Realtime Clock</Description><StartTime><Timestamp dt:dt=""int"">0</Timestamp><DateUtc dt:dt=""string"">2018-10-11T19:44:09Z</DateUtc></StartTime><FrequencyChanges><FrequencyChange><Frequency dt:dt=""r8"">3215292</Frequency><Timestamp dt:dt=""r8"">4212886722915</Timestamp><Current dt:dt=""r8"">0</Current><DateUtc dt:dt=""string"">2018-10-11T19:44:09Z</DateUtc></FrequencyChange></FrequencyChanges></Clock>\n",KW_Experiment5A-15-1,59.945,1.0.0.105,1,-475562240,Professional,2.0.10.353,2.0.10.353,10/11/2018,10/11/2018 19:44,15:44:09,2.0.10.248,3,2,1,3,,,,,,,,TrainingProc,BlockList,12,2,Distractor2.bmp,2,0,,0,1,2961767,600,,0,0,cyan,600,3,600,4,horizontal,lime,Target2.bmp,cyan,Distractor2.bmp,red,Distractor2.bmp,blue,Distractor1.bmp,purple,Distractor1.bmp,yellow,Distractor2.bmp,,,,TrialProc,,TrainingTrialList,1,2,-999999,0,2962367,0,2,573,2962940,Target2.bmp,lime,2,,,,1,3,60
KW_Experiment5A,15,1,"<?xml version=""1.0""?>\n<Clock xmlns:dt=""urn:schemas-microsoft-com:datatypes""><Description dt:dt=""string"">E-Prime Primary Realtime Clock</Description><StartTime><Timestamp dt:dt=""int"">0</Timestamp><DateUtc dt:dt=""string"">2018-10-11T19:44:09Z</DateUtc></StartTime><FrequencyChanges><FrequencyChange><Frequency dt:dt=""r8"">3215292</Frequency><Timestamp dt:dt=""r8"">4212886722915</Timestamp><Current dt:dt=""r8"">0</Current><DateUtc dt:dt=""string"">2018-10-11T19:44:09Z</DateUtc></FrequencyChange></FrequencyChanges></Clock>\n",KW_Experiment5A-15-1,59.945,1.0.0.105,1,-475562240,Professional,2.0.10.353,2.0.10.353,10/11/2018,10/11/2018 19:44,15:44:09,2.0.10.248,3,2,1,3,,,,,,,,TrainingProc,BlockList,13,1,Distractor2.bmp,2,0,,0,1,2963952,501,,0,0,yellow,500,2,500,2,vertical,yellow,Distractor2.bmp,blue,Distractor1.bmp,cyan,Distractor1.bmp,lime,Target1.bmp,purple,Distractor2.bmp,red,Distractor2.bmp,,,,TrialProc,,TrainingTrialList,1,1,-999999,1,2964453,0,1,719,2965172,Target1.bmp,lime,1,,,,4,3,61
KW_Experiment5A,15,1,"<?xml version=""1.0""?>\n<Clock xmlns:dt=""urn:schemas-microsoft-com:datatypes""><Description dt:dt=""string"">E-Prime Primary Realtime Clock</Description><StartTime><Timestamp dt:dt=""int"">0</Timestamp><DateUtc dt:dt=""string"">2018-10-11T19:44:09Z</DateUtc></StartTime><FrequencyChanges><FrequencyChange><Frequency dt:dt=""r8"">3215292</Frequency><Timestamp dt:dt=""r8"">4212886722915</Timestamp><Current dt:dt=""r8"">0</Current><DateUtc dt:dt=""string"">2018-10-11T19:44:09Z</DateUtc></FrequencyChange></FrequencyChanges></Clock>\n",KW_Experiment5A-15-1,59.945,1.0.0.105,1,-475562240,Professional,2.0.10.353,2.0.10.353,10/11/2018,10/11/2018 19:44,15:44:09,2.0.10.248,3,2,1,3,,,,,,,,TrainingProc,BlockList,14,1,Distractor2.bmp,2,0,,0,1,2966188,600,,0,0,lime,600,3,600,,vertical,lime,Distractor2.bmp,red,Target1.bmp,cyan,Distractor2.bmp,purple,Distractor1.bmp,blue,Distractor1.bmp,yellow,Distractor2.bmp,,,,TrialProc,6,TrainingTrialList,1,1,-999999,0,2966788,0,1,864,2967652,Target1.bmp,red,1,,,,8,3,62
KW_Experiment5A,15,1,"<?xml version=""1.0""?>\n<Clock xmlns:dt=""urn:schemas-microsoft-com:datatypes""><Description dt:dt=""string"">E-Prime Primary Realtime Clock</Description><StartTime><Timestamp dt:dt=""int"">0</Timestamp><DateUtc dt:dt=""string"">2018-10-11T19:44:09Z</DateUtc></StartTime><FrequencyChanges><FrequencyChange><Frequency dt:dt=""r8"">3215292</Frequency><Timestamp dt:dt=""r8"">4212886722915</Timestamp><Current dt:dt=""r8"">0</Current><DateUtc dt:dt=""string"">2018-10-11T19:44:09Z</DateUtc></FrequencyChange></FrequencyChanges></Clock>\n",KW_Experiment5A-15-1,59.945,1.0.0.105,1,-475562240,Professional,2.0.10.353,2.0.10.353,10/11/2018,10/11/2018 19:44,15:44:09,2.0.10.248,3,2,1,3,,,,,,,,TrainingProc,BlockList,15,2,Distractor2.bmp,2,0,,0,1,2968673,401,,0,0,red,400,1,400,1,horizontal,red,Distractor2.bmp,blue,Distractor1.bmp,purple,Distractor1.bmp,lime,Target2.bmp,cyan,Distractor2.bmp,yellow,Distractor1.bmp,,,,TrialProc,,TrainingTrialList,1,2,-999999,1,2969074,0,2,858,2969932,Target2.bmp,lime,2,,,,4,3,63
KW_Experiment5A,15,1,"<?xml version=""1.0""?>\n<Clock xmlns:dt=""urn:schemas-microsoft-com:datatypes""><Description dt:dt=""string"">E-Prime Primary Realtime Clock</Description><StartTime><Timestamp dt:dt=""int"">0</Timestamp><DateUtc dt:dt=""string"">2018-10-11T19:44:09Z</DateUtc></StartTime><FrequencyChanges><FrequencyChange><Frequency dt:dt=""r8"">3215292</Frequency><Timestamp dt:dt=""r8"">4212886722915</Timestamp><Current dt:dt=""r8"">0</Current><DateUtc dt:dt=""string"">2018-10-11T19:44:09Z</DateUtc></FrequencyChange></FrequencyChanges></Clock>\n",KW_Experiment5A-15-1,59.945,1.0.0.105,1,-475562240,Professional,2.0.10.353,2.0.10.353,10/11/2018,10/11/2018 19:44,15:44:09,2.0.10.248,3,2,1,3,,,,,,,,TrainingProc,BlockList,16,2,Distractor2.bmp,2,0,,0,1,2970942,400,,0,0,blue,400,1,400,3,horizontal,blue,Distractor2.bmp,cyan,Distractor2.bmp,yellow,Distractor2.bmp,red,Distractor1.bmp,purple,Distractor2.bmp,lime,Target2.bmp,,,,TrialProc,,TrainingTrialList,1,2,-999999,0,2971342,0,2,830,2972172,Target2.bmp,lime,2,,,,6,3,64
KW_Experiment5A,15,1,"<?xml version=""1.0""?>\n<Clock xmlns:dt=""urn:schemas-microsoft-com:datatypes""><Description dt:dt=""string"">E-Prime Primary Realtime Clock</Description><StartTime><Timestamp dt:dt=""int"">0</Timestamp><DateUtc dt:dt=""string"">2018-10-11T19:44:09Z</DateUtc></StartTime><FrequencyChanges><FrequencyChange><Frequency dt:dt=""r8"">3215292</Frequency><Timestamp dt:dt=""r8"">4212886722915</Timestamp><Current dt:dt=""r8"">0</Current><DateUtc dt:dt=""string"">2018-10-11T19:44:09Z</DateUtc></FrequencyChange></FrequencyChanges></Clock>\n",KW_Experiment5A-15-1,59.945,1.0.0.105,1,-475562240,Professional,2.0.10.353,2.0.10.353,10/11/2018,10/11/2018 19:44,15:44:09,2.0.10.248,3,2,1,3,,,,,,,,TrainingProc,BlockList,17,1,Distractor1.bmp,1,0,,0,1,2973194,500,,0,0,cyan,500,2,500,,vertical,cyan,Distractor2.bmp,yellow,Distractor2.bmp,red,Target1.bmp,purple,Distractor1.bmp,lime,Distractor2.bmp,blue,Distractor1.bmp,,,,TrialProc,4,TrainingTrialList,1,1,-999999,0,2973694,0,1,910,2974604,Target1.bmp,red,1,,,,9,3,65
KW_Experiment5A,15,1,"<?xml version=""1.0""?>\n<Clock xmlns:dt=""urn:schemas-microsoft-com:datatypes""><Description dt:dt=""string"">E-Prime Primary Realtime Clock</Description><StartTime><Timestamp dt:dt=""int"">0</Timestamp><DateUtc dt:dt=""string"">2018-10-11T19:44:09Z</DateUtc></StartTime><FrequencyChanges><FrequencyChange><Frequency dt:dt=""r8"">3215292</Frequency><Timestamp dt:dt=""r8"">4212886722915</Timestamp><Current dt:dt=""r8"">0</Current><DateUtc dt:dt=""string"">2018-10-11T19:44:09Z</DateUtc></FrequencyChange></FrequencyChanges></Clock>\n",KW_Experiment5A-15-1,59.945,1.0.0.105,1,-475562240,Professional,2.0.10.353,2.0.10.353,10/11/2018,10/11/2018 19:44,15:44:09,2.0.10.248,3,2,1,3,,,,,,,,TrainingProc,BlockList,18,2,Distractor1.bmp,1,0,,1,0,2975629,401,,0,0,purple,400,1,400,5,horizontal,purple,Distractor1.bmp,yellow,Distractor1.bmp,blue,Distractor1.bmp,red,Distractor2.bmp,cyan,Distractor1.bmp,lime,Target2.bmp,,,,TrialProc,,TrainingTrialList,1,2,-999999,1,2976030,0,2,1102,2977132,Target2.bmp,lime,2,,,,6,3,66
KW_Experiment5A,15,1,"<?xml version=""1.0""?>\n<Clock xmlns:dt=""urn:schemas-microsoft-com:datatypes""><Description dt:dt=""string"">E-Prime Primary Realtime Clock</Description><StartTime><Timestamp dt:dt=""int"">0</Timestamp><DateUtc dt:dt=""string"">2018-10-11T19:44:09Z</DateUtc></StartTime><FrequencyChanges><FrequencyChange><Frequency dt:dt=""r8"">3215292</Frequency><Timestamp dt:dt=""r8"">4212886722915</Timestamp><Current dt:dt=""r8"">0</Current><DateUtc dt:dt=""string"">2018-10-11T19:44:09Z</DateUtc></FrequencyChange></FrequencyChanges></Clock>\n",KW_Experiment5A-15-1,59.945,1.0.0.105,1,-475562240,Professional,2.0.10.353,2.0.10.353,10/11/2018,10/11/2018 19:44,15:44:09,2.0.10.248,3,2,1,3,,,,,,,,TrainingProc,BlockList,19,1,Distractor2.bmp,2,0,,0,0,2978148,601,,0,0,blue,600,3,600,3,vertical,blue,Distractor1.bmp,purple,Distractor1.bmp,cyan,Distractor1.bmp,red,Distractor2.bmp,lime,Target1.bmp,yellow,Distractor2.bmp,,,,TrialProc,,TrainingTrialList,1,1,-999999,1,2978749,0,1,599,2979348,Target1.bmp,lime,1,,,,5,3,67
KW_Experiment5A,15,1,"<?xml version=""1.0""?>\n<Clock xmlns:dt=""urn:schemas-microsoft-com:datatypes""><Description dt:dt=""string"">E-Prime Primary Realtime Clock</Description><StartTime><Timestamp dt:dt=""int"">0</Timestamp><DateUtc dt:dt=""string"">2018-10-11T19:44:09Z</DateUtc></StartTime><FrequencyChanges><FrequencyChange><Frequency dt:dt=""r8"">3215292</Frequency><Timestamp dt:dt=""r8"">4212886722915</Timestamp><Current dt:dt=""r8"">0</Current><DateUtc dt:dt=""string"">2018-10-11T19:44:09Z</DateUtc></FrequencyChange></FrequencyChanges></Clock>\n",KW_Experiment5A-15-1,59.945,1.0.0.105,1,-475562240,Professional,2.0.10.353,2.0.10.353,10/11/2018,10/11/2018 19:44,15:44:09,2.0.10.248,3,2,1,3,,,,,,,,TrainingProc,BlockList,20,1,Distractor1.bmp,1,0,,0,1,2980367,501,,0,0,cyan,500,2,500,4,vertical,cyan,Distractor1.bmp,lime,Target1.bmp,blue,Distractor1.bmp,yellow,Distractor2.bmp,red,Distractor1.bmp,purple,Distractor2.bmp,,,,TrialProc,,TrainingTrialList,1,1,-999999,1,2980868,0,1,800,2981668,Target1.bmp,lime,1,,,,2,3,68
KW_Experiment5A,15,1,"<?xml version=""1.0""?>\n<Clock xmlns:dt=""urn:schemas-microsoft-com:datatypes""><Description dt:dt=""string"">E-Prime Primary Realtime Clock</Description><StartTime><Timestamp dt:dt=""int"">0</Timestamp><DateUtc dt:dt=""string"">2018-10-11T19:44:09Z</DateUtc></StartTime><FrequencyChanges><FrequencyChange><Frequency dt:dt=""r8"">3215292</Frequency><Timestamp dt:dt=""r8"">4212886722915</Timestamp><Current dt:dt=""r8"">0</Current><DateUtc dt:dt=""string"">2018-10-11T19:44:09Z</DateUtc></FrequencyChange></FrequencyChanges></Clock>\n",KW_Experiment5A-15-1,59.945,1.0.0.105,1,-475562240,Professional,2.0.10.353,2.0.10.353,10/11/2018,10/11/2018 19:44,15:44:09,2.0.10.248,3,2,1,3,,,,,,,,TrainingProc,BlockList,21,1,Distractor1.bmp,1,0,,0,1,2982686,400,,0,0,blue,400,1,400,3,vertical,lime,Target1.bmp,blue,Distractor1.bmp,red,Distractor2.bmp,cyan,Distractor2.bmp,purple,Distractor2.bmp,yellow,Distractor2.bmp,,,,TrialProc,,TrainingTrialList,1,1,-999999,0,2983086,0,1,550,2983636,Target1.bmp,lime,1,,,,1,3,69
KW_Experiment5A,15,1,"<?xml version=""1.0""?>\n<Clock xmlns:dt=""urn:schemas-microsoft-com:datatypes""><Description dt:dt=""string"">E-Prime Primary Realtime Clock</Description><StartTime><Timestamp dt:dt=""int"">0</Timestamp><DateUtc dt:dt=""string"">2018-10-11T19:44:09Z</DateUtc></StartTime><FrequencyChanges><FrequencyChange><Frequency dt:dt=""r8"">3215292</Frequency><Timestamp dt:dt=""r8"">4212886722915</Timestamp><Current dt:dt=""r8"">0</Current><DateUtc dt:dt=""string"">2018-10-11T19:44:09Z</DateUtc></FrequencyChange></FrequencyChanges></Clock>\n",KW_Experiment5A-15-1,59.945,1.0.0.105,1,-475562240,Professional,2.0.10.353,2.0.10.353,10/11/2018,10/11/2018 19:44,15:44:09,2.0.10.248,3,2,1,3,,,,,,,,TrainingProc,BlockList,22,2,Distractor2.bmp,2,0,,0,1,2984654,401,,0,0,cyan,400,1,400,4,horizontal,cyan,Distractor2.bmp,purple,Distractor2.bmp,blue,Distractor2.bmp,yellow,Distractor2.bmp,red,Distractor2.bmp,lime,Target2.bmp,,,,TrialProc,,TrainingTrialList,1,2,-999999,1,2985055,0,2,677,2985732,Target2.bmp,lime,2,,,,6,3,70
KW_Experiment5A,15,1,"<?xml version=""1.0""?>\n<Clock xmlns:dt=""urn:schemas-microsoft-com:datatypes""><Description dt:dt=""string"">E-Prime Primary Realtime Clock</Description><StartTime><Timestamp dt:dt=""int"">0</Timestamp><DateUtc dt:dt=""string"">2018-10-11T19:44:09Z</DateUtc></StartTime><FrequencyChanges><FrequencyChange><Frequency dt:dt=""r8"">3215292</Frequency><Timestamp dt:dt=""r8"">4212886722915</Timestamp><Current dt:dt=""r8"">0</Current><DateUtc dt:dt=""string"">2018-10-11T19:44:09Z</DateUtc></FrequencyChange></FrequencyChanges></Clock>\n",KW_Experiment5A-15-1,59.945,1.0.0.105,1,-475562240,Professional,2.0.10.353,2.0.10.353,10/11/2018,10/11/2018 19:44,15:44:09,2.0.10.248,3,2,1,3,,,,,,,,TrainingProc,BlockList,23,1,Distractor2.bmp,2,0,,0,1,2986756,601,,0,0,red,600,3,600,1,vertical,red,Distractor2.bmp,yellow,Distractor1.bmp,lime,Target1.bmp,blue,Distractor2.bmp,cyan,Distractor2.bmp,purple,Distractor1.bmp,,,,TrialProc,,TrainingTrialList,1,1,-999999,1,2987357,0,1,751,2988108,Target1.bmp,lime,1,,,,3,3,71
KW_Experiment5A,15,1,"<?xml version=""1.0""?>\n<Clock xmlns:dt=""urn:schemas-microsoft-com:datatypes""><Description dt:dt=""string"">E-Prime Primary Realtime Clock</Description><StartTime><Timestamp dt:dt=""int"">0</Timestamp><DateUtc dt:dt=""string"">2018-10-11T19:44:09Z</DateUtc></StartTime><FrequencyChanges><FrequencyChange><Frequency dt:dt=""r8"">3215292</Frequency><Timestamp dt:dt=""r8"">4212886722915</Timestamp><Current dt:dt=""r8"">0</Current><DateUtc dt:dt=""string"">2018-10-11T19:44:09Z</DateUtc></FrequencyChange></FrequencyChanges></Clock>\n",KW_Experiment5A-15-1,59.945,1.0.0.105,1,-475562240,Professional,2.0.10.353,2.0.10.353,10/11/2018,10/11/2018 19:44,15:44:09,2.0.10.248,3,2,1,3,,,,,,,,TrainingProc,BlockList,24,1,Distractor1.bmp,1,0,,0,1,2989125,501,,0,0,blue,500,2,500,,vertical,blue,Distractor2.bmp,yellow,Distractor1.bmp,purple,Distractor2.bmp,red,Target1.bmp,cyan,Distractor1.bmp,lime,Distractor1.bmp,,,,TrialProc,3,TrainingTrialList,1,1,-999999,1,2989626,0,1,1145,2990771,Target1.bmp,red,1,,,,10,3,72
KW_Experiment5A,15,1,"<?xml version=""1.0""?>\n<Clock xmlns:dt=""urn:schemas-microsoft-com:datatypes""><Description dt:dt=""string"">E-Prime Primary Realtime Clock</Description><StartTime><Timestamp dt:dt=""int"">0</Timestamp><DateUtc dt:dt=""string"">2018-10-11T19:44:09Z</DateUtc></StartTime><FrequencyChanges><FrequencyChange><Frequency dt:dt=""r8"">3215292</Frequency><Timestamp dt:dt=""r8"">4212886722915</Timestamp><Current dt:dt=""r8"">0</Current><DateUtc dt:dt=""string"">2018-10-11T19:44:09Z</DateUtc></FrequencyChange></FrequencyChanges></Clock>\n",KW_Experiment5A-15-1,59.945,1.0.0.105,1,-475562240,Professional,2.0.10.353,2.0.10.353,10/11/2018,10/11/2018 19:44,15:44:09,2.0.10.248,3,2,1,3,,,,,,,,TrainingProc,BlockList,25,1,Distractor2.bmp,2,0,,0,1,2991794,401,,0,0,yellow,400,1,400,2,vertical,yellow,Distractor2.bmp,cyan,Distractor1.bmp,purple,Distractor2.bmp,lime,Target1.bmp,blue,Distractor2.bmp,red,Distractor1.bmp,,,,TrialProc,,TrainingTrialList,1,1,-999999,1,2992195,0,1,1088,2993283,Target1.bmp,lime,1,,,,4,4,73
KW_Experiment5A,15,1,"<?xml version=""1.0""?>\n<Clock xmlns:dt=""urn:schemas-microsoft-com:datatypes""><Description dt:dt=""string"">E-Prime Primary Realtime Clock</Description><StartTime><Timestamp dt:dt=""int"">0</Timestamp><DateUtc dt:dt=""string"">2018-10-11T19:44:09Z</DateUtc></StartTime><FrequencyChanges><FrequencyChange><Frequency dt:dt=""r8"">3215292</Frequency><Timestamp dt:dt=""r8"">4212886722915</Timestamp><Current dt:dt=""r8"">0</Current><DateUtc dt:dt=""string"">2018-10-11T19:44:09Z</DateUtc></FrequencyChange></FrequencyChanges></Clock>\n",KW_Experiment5A-15-1,59.945,1.0.0.105,1,-475562240,Professional,2.0.10.353,2.0.10.353,10/11/2018,10/11/2018 19:44,15:44:09,2.0.10.248,3,2,1,3,,,,,,,,TrainingProc,BlockList,26,2,Distractor2.bmp,2,0,,1,0,2994296,401,,0,0,lime,400,1,400,,horizontal,lime,Distractor1.bmp,yellow,Distractor2.bmp,cyan,Distractor2.bmp,red,Target2.bmp,purple,Distractor2.bmp,blue,Distractor1.bmp,,,,TrialProc,6,TrainingTrialList,1,2,-999999,1,2994697,0,2,794,2995491,Target2.bmp,red,2,,,,10,4,74
KW_Experiment5A,15,1,"<?xml version=""1.0""?>\n<Clock xmlns:dt=""urn:schemas-microsoft-com:datatypes""><Description dt:dt=""string"">E-Prime Primary Realtime Clock</Description><StartTime><Timestamp dt:dt=""int"">0</Timestamp><DateUtc dt:dt=""string"">2018-10-11T19:44:09Z</DateUtc></StartTime><FrequencyChanges><FrequencyChange><Frequency dt:dt=""r8"">3215292</Frequency><Timestamp dt:dt=""r8"">4212886722915</Timestamp><Current dt:dt=""r8"">0</Current><DateUtc dt:dt=""string"">2018-10-11T19:44:09Z</DateUtc></FrequencyChange></FrequencyChanges></Clock>\n",KW_Experiment5A-15-1,59.945,1.0.0.105,1,-475562240,Professional,2.0.10.353,2.0.10.353,10/11/2018,10/11/2018 19:44,15:44:09,2.0.10.248,3,2,1,3,,,,,,,,TrainingProc,BlockList,27,2,Distractor2.bmp,2,0,,0,1,2996515,401,,0,0,yellow,400,1,400,2,horizontal,yellow,Distractor1.bmp,cyan,Distractor2.bmp,purple,Distractor2.bmp,lime,Target2.bmp,red,Distractor2.bmp,blue,Distractor2.bmp,,,,TrialProc,,TrainingTrialList,1,2,-999999,1,2996916,0,2,1847,2998763,Target2.bmp,lime,2,,,,4,4,75
KW_Experiment5A,15,1,"<?xml version=""1.0""?>\n<Clock xmlns:dt=""urn:schemas-microsoft-com:datatypes""><Description dt:dt=""string"">E-Prime Primary Realtime Clock</Description><StartTime><Timestamp dt:dt=""int"">0</Timestamp><DateUtc dt:dt=""string"">2018-10-11T19:44:09Z</DateUtc></StartTime><FrequencyChanges><FrequencyChange><Frequency dt:dt=""r8"">3215292</Frequency><Timestamp dt:dt=""r8"">4212886722915</Timestamp><Current dt:dt=""r8"">0</Current><DateUtc dt:dt=""string"">2018-10-11T19:44:09Z</DateUtc></FrequencyChange></FrequencyChanges></Clock>\n",KW_Experiment5A-15-1,59.945,1.0.0.105,1,-475562240,Professional,2.0.10.353,2.0.10.353,10/11/2018,10/11/2018 19:44,15:44:09,2.0.10.248,3,2,1,3,,,,,,,,TrainingProc,BlockList,28,1,Distractor1.bmp,1,0,,0,1,2999785,600,,0,0,blue,600,3,600,3,vertical,blue,Distractor2.bmp,lime,Target1.bmp,red,Distractor1.bmp,purple,Distractor2.bmp,cyan,Distractor1.bmp,yellow,Distractor2.bmp,,,,TrialProc,,TrainingTrialList,1,1,-999999,0,3000385,0,1,970,3001355,Target1.bmp,lime,1,,,,2,4,76
KW_Experiment5A,15,1,"<?xml version=""1.0""?>\n<Clock xmlns:dt=""urn:schemas-microsoft-com:datatypes""><Description dt:dt=""string"">E-Prime Primary Realtime Clock</Description><StartTime><Timestamp dt:dt=""int"">0</Timestamp><DateUtc dt:dt=""string"">2018-10-11T19:44:09Z</DateUtc></StartTime><FrequencyChanges><FrequencyChange><Frequency dt:dt=""r8"">3215292</Frequency><Timestamp dt:dt=""r8"">4212886722915</Timestamp><Current dt:dt=""r8"">0</Current><DateUtc dt:dt=""string"">2018-10-11T19:44:09Z</DateUtc></FrequencyChange></FrequencyChanges></Clock>\n",KW_Experiment5A-15-1,59.945,1.0.0.105,1,-475562240,Professional,2.0.10.353,2.0.10.353,10/11/2018,10/11/2018 19:44,15:44:09,2.0.10.248,3,2,1,3,,,,,,,,TrainingProc,BlockList,29,1,Distractor2.bmp,2,0,,1,0,3002370,501,,0,0,blue,500,2,500,,vertical,red,Target1.bmp,cyan,Distractor2.bmp,purple,Distractor1.bmp,lime,Distractor2.bmp,yellow,Distractor2.bmp,blue,Distractor2.bmp,,,,TrialProc,3,TrainingTrialList,1,1,-999999,1,3002871,0,1,996,3003867,Target1.bmp,red,1,,,,7,4,77
KW_Experiment5A,15,1,"<?xml version=""1.0""?>\n<Clock xmlns:dt=""urn:schemas-microsoft-com:datatypes""><Description dt:dt=""string"">E-Prime Primary Realtime Clock</Description><StartTime><Timestamp dt:dt=""int"">0</Timestamp><DateUtc dt:dt=""string"">2018-10-11T19:44:09Z</DateUtc></StartTime><FrequencyChanges><FrequencyChange><Frequency dt:dt=""r8"">3215292</Frequency><Timestamp dt:dt=""r8"">4212886722915</Timestamp><Current dt:dt=""r8"">0</Current><DateUtc dt:dt=""string"">2018-10-11T19:44:09Z</DateUtc></FrequencyChange></FrequencyChanges></Clock>\n",KW_Experiment5A-15-1,59.945,1.0.0.105,1,-475562240,Professional,2.0.10.353,2.0.10.353,10/11/2018,10/11/2018 19:44,15:44:09,2.0.10.248,3,2,1,3,,,,,,,,TrainingProc,BlockList,30,2,Distractor1.bmp,1,0,,0,0,3004889,501,,0,0,purple,500,2,500,5,horizontal,purple,Distractor2.bmp,lime,Target2.bmp,red,Distractor1.bmp,blue,Distractor2.bmp,cyan,Distractor1.bmp,yellow,Distractor2.bmp,,,,TrialProc,,TrainingTrialList,1,2,-999999,1,3005390,0,2,917,3006307,Target2.bmp,lime,2,,,,2,4,78
KW_Experiment5A,15,1,"<?xml version=""1.0""?>\n<Clock xmlns:dt=""urn:schemas-microsoft-com:datatypes""><Description dt:dt=""string"">E-Prime Primary Realtime Clock</Description><StartTime><Timestamp dt:dt=""int"">0</Timestamp><DateUtc dt:dt=""string"">2018-10-11T19:44:09Z</DateUtc></StartTime><FrequencyChanges><FrequencyChange><Frequency dt:dt=""r8"">3215292</Frequency><Timestamp dt:dt=""r8"">4212886722915</Timestamp><Current dt:dt=""r8"">0</Current><DateUtc dt:dt=""string"">2018-10-11T19:44:09Z</DateUtc></FrequencyChange></FrequencyChanges></Clock>\n",KW_Experiment5A-15-1,59.945,1.0.0.105,1,-475562240,Professional,2.0.10.353,2.0.10.353,10/11/2018,10/11/2018 19:44,15:44:09,2.0.10.248,3,2,1,3,,,,,,,,TrainingProc,BlockList,31,2,Distractor1.bmp,1,0,,0,1,3007325,500,,0,0,red,500,2,500,1,horizontal,red,Distractor2.bmp,cyan,Distractor1.bmp,blue,Distractor2.bmp,purple,Distractor1.bmp,lime,Target2.bmp,yellow,Distractor1.bmp,,,,TrialProc,,TrainingTrialList,0,2,-999999,0,3007825,0,1,594,3008419,Target2.bmp,lime,2,,,,5,4,79
KW_Experiment5A,15,1,"<?xml version=""1.0""?>\n<Clock xmlns:dt=""urn:schemas-microsoft-com:datatypes""><Description dt:dt=""string"">E-Prime Primary Realtime Clock</Description><StartTime><Timestamp dt:dt=""int"">0</Timestamp><DateUtc dt:dt=""string"">2018-10-11T19:44:09Z</DateUtc></StartTime><FrequencyChanges><FrequencyChange><Frequency dt:dt=""r8"">3215292</Frequency><Timestamp dt:dt=""r8"">4212886722915</Timestamp><Current dt:dt=""r8"">0</Current><DateUtc dt:dt=""string"">2018-10-11T19:44:09Z</DateUtc></FrequencyChange></FrequencyChanges></Clock>\n",KW_Experiment5A-15-1,59.945,1.0.0.105,1,-475562240,Professional,2.0.10.353,2.0.10.353,10/11/2018,10/11/2018 19:44,15:44:09,2.0.10.248,3,2,1,3,,,,,,,,TrainingProc,BlockList,32,1,Distractor2.bmp,2,0,,0,1,3009444,500,,0,0,red,500,2,500,1,vertical,red,Distractor1.bmp,yellow,Distractor2.bmp,lime,Target1.bmp,blue,Distractor2.bmp,purple,Distractor2.bmp,cyan,Distractor1.bmp,,,,TrialProc,,TrainingTrialList,1,1,-999999,0,3009944,0,1,795,3010739,Target1.bmp,lime,1,,,,3,4,80
KW_Experiment5A,15,1,"<?xml version=""1.0""?>\n<Clock xmlns:dt=""urn:schemas-microsoft-com:datatypes""><Description dt:dt=""string"">E-Prime Primary Realtime Clock</Description><StartTime><Timestamp dt:dt=""int"">0</Timestamp><DateUtc dt:dt=""string"">2018-10-11T19:44:09Z</DateUtc></StartTime><FrequencyChanges><FrequencyChange><Frequency dt:dt=""r8"">3215292</Frequency><Timestamp dt:dt=""r8"">4212886722915</Timestamp><Current dt:dt=""r8"">0</Current><DateUtc dt:dt=""string"">2018-10-11T19:44:09Z</DateUtc></FrequencyChange></FrequencyChanges></Clock>\n",KW_Experiment5A-15-1,59.945,1.0.0.105,1,-475562240,Professional,2.0.10.353,2.0.10.353,10/11/2018,10/11/2018 19:44,15:44:09,2.0.10.248,3,2,1,3,,,,,,,,TrainingProc,BlockList,33,1,Distractor2.bmp,2,0,,0,1,3011762,601,,0,0,red,600,3,600,1,vertical,red,Distractor1.bmp,purple,Distractor2.bmp,lime,Target1.bmp,cyan,Distractor2.bmp,yellow,Distractor1.bmp,blue,Distractor1.bmp,,,,TrialProc,,TrainingTrialList,1,1,-999999,1,3012363,0,1,800,3013163,Target1.bmp,lime,1,,,,3,4,81
KW_Experiment5A,15,1,"<?xml version=""1.0""?>\n<Clock xmlns:dt=""urn:schemas-microsoft-com:datatypes""><Description dt:dt=""string"">E-Prime Primary Realtime Clock</Description><StartTime><Timestamp dt:dt=""int"">0</Timestamp><DateUtc dt:dt=""string"">2018-10-11T19:44:09Z</DateUtc></StartTime><FrequencyChanges><FrequencyChange><Frequency dt:dt=""r8"">3215292</Frequency><Timestamp dt:dt=""r8"">4212886722915</Timestamp><Current dt:dt=""r8"">0</Current><DateUtc dt:dt=""string"">2018-10-11T19:44:09Z</DateUtc></FrequencyChange></FrequencyChanges></Clock>\n",KW_Experiment5A-15-1,59.945,1.0.0.105,1,-475562240,Professional,2.0.10.353,2.0.10.353,10/11/2018,10/11/2018 19:44,15:44:09,2.0.10.248,3,2,1,3,,,,,,,,TrainingProc,BlockList,34,1,Distractor1.bmp,1,0,,0,1,3014181,501,,0,0,lime,500,2,500,,vertical,lime,Distractor1.bmp,red,Target1.bmp,yellow,Distractor1.bmp,cyan,Distractor1.bmp,purple,Distractor2.bmp,blue,Distractor1.bmp,,,,TrialProc,6,TrainingTrialList,1,1,-999999,1,3014682,0,1,857,3015539,Target1.bmp,red,1,,,,8,4,82
KW_Experiment5A,15,1,"<?xml version=""1.0""?>\n<Clock xmlns:dt=""urn:schemas-microsoft-com:datatypes""><Description dt:dt=""string"">E-Prime Primary Realtime Clock</Description><StartTime><Timestamp dt:dt=""int"">0</Timestamp><DateUtc dt:dt=""string"">2018-10-11T19:44:09Z</DateUtc></StartTime><FrequencyChanges><FrequencyChange><Frequency dt:dt=""r8"">3215292</Frequency><Timestamp dt:dt=""r8"">4212886722915</Timestamp><Current dt:dt=""r8"">0</Current><DateUtc dt:dt=""string"">2018-10-11T19:44:09Z</DateUtc></FrequencyChange></FrequencyChanges></Clock>\n",KW_Experiment5A-15-1,59.945,1.0.0.105,1,-475562240,Professional,2.0.10.353,2.0.10.353,10/11/2018,10/11/2018 19:44,15:44:09,2.0.10.248,3,2,1,3,,,,,,,,TrainingProc,BlockList,35,1,Distractor1.bmp,1,0,,0,1,3016550,400,,0,0,purple,400,1,400,5,vertical,purple,Distractor1.bmp,red,Distractor2.bmp,blue,Distractor1.bmp,yellow,Distractor1.bmp,lime,Target1.bmp,cyan,Distractor1.bmp,,,,TrialProc,,TrainingTrialList,1,1,-999999,0,3016950,0,1,621,3017571,Target1.bmp,lime,1,,,,5,4,83
KW_Experiment5A,15,1,"<?xml version=""1.0""?>\n<Clock xmlns:dt=""urn:schemas-microsoft-com:datatypes""><Description dt:dt=""string"">E-Prime Primary Realtime Clock</Description><StartTime><Timestamp dt:dt=""int"">0</Timestamp><DateUtc dt:dt=""string"">2018-10-11T19:44:09Z</DateUtc></StartTime><FrequencyChanges><FrequencyChange><Frequency dt:dt=""r8"">3215292</Frequency><Timestamp dt:dt=""r8"">4212886722915</Timestamp><Current dt:dt=""r8"">0</Current><DateUtc dt:dt=""string"">2018-10-11T19:44:09Z</DateUtc></FrequencyChange></FrequencyChanges></Clock>\n",KW_Experiment5A-15-1,59.945,1.0.0.105,1,-475562240,Professional,2.0.10.353,2.0.10.353,10/11/2018,10/11/2018 19:44,15:44:09,2.0.10.248,3,2,1,3,,,,,,,,TrainingProc,BlockList,36,1,Distractor1.bmp,1,0,,0,1,3018585,401,,0,0,cyan,400,1,400,4,vertical,cyan,Distractor1.bmp,red,Distractor1.bmp,blue,Distractor1.bmp,yellow,Distractor1.bmp,purple,Distractor2.bmp,lime,Target1.bmp,,,,TrialProc,,TrainingTrialList,1,1,-999999,1,3018986,0,1,617,3019603,Target1.bmp,lime,1,,,,6,4,84
KW_Experiment5A,15,1,"<?xml version=""1.0""?>\n<Clock xmlns:dt=""urn:schemas-microsoft-com:datatypes""><Description dt:dt=""string"">E-Prime Primary Realtime Clock</Description><StartTime><Timestamp dt:dt=""int"">0</Timestamp><DateUtc dt:dt=""string"">2018-10-11T19:44:09Z</DateUtc></StartTime><FrequencyChanges><FrequencyChange><Frequency dt:dt=""r8"">3215292</Frequency><Timestamp dt:dt=""r8"">4212886722915</Timestamp><Current dt:dt=""r8"">0</Current><DateUtc dt:dt=""string"">2018-10-11T19:44:09Z</DateUtc></FrequencyChange></FrequencyChanges></Clock>\n",KW_Experiment5A-15-1,59.945,1.0.0.105,1,-475562240,Professional,2.0.10.353,2.0.10.353,10/11/2018,10/11/2018 19:44,15:44:09,2.0.10.248,3,2,1,3,,,,,,,,TrainingProc,BlockList,37,2,Distractor1.bmp,1,0,,0,1,3020620,501,,0,0,lime,500,2,500,,horizontal,lime,Distractor1.bmp,yellow,Distractor2.bmp,blue,Distractor1.bmp,purple,Distractor1.bmp,cyan,Distractor1.bmp,red,Target2.bmp,,,,TrialProc,6,TrainingTrialList,1,2,-999999,1,3021121,0,2,706,3021827,Target2.bmp,red,2,,,,12,4,85
KW_Experiment5A,15,1,"<?xml version=""1.0""?>\n<Clock xmlns:dt=""urn:schemas-microsoft-com:datatypes""><Description dt:dt=""string"">E-Prime Primary Realtime Clock</Description><StartTime><Timestamp dt:dt=""int"">0</Timestamp><DateUtc dt:dt=""string"">2018-10-11T19:44:09Z</DateUtc></StartTime><FrequencyChanges><FrequencyChange><Frequency dt:dt=""r8"">3215292</Frequency><Timestamp dt:dt=""r8"">4212886722915</Timestamp><Current dt:dt=""r8"">0</Current><DateUtc dt:dt=""string"">2018-10-11T19:44:09Z</DateUtc></FrequencyChange></FrequencyChanges></Clock>\n",KW_Experiment5A-15-1,59.945,1.0.0.105,1,-475562240,Professional,2.0.10.353,2.0.10.353,10/11/2018,10/11/2018 19:44,15:44:09,2.0.10.248,3,2,1,3,,,,,,,,TrainingProc,BlockList,38,1,Distractor1.bmp,1,0,,0,1,3022839,501,,0,0,cyan,500,2,500,4,vertical,lime,Target1.bmp,cyan,Distractor1.bmp,purple,Distractor1.bmp,blue,Distractor2.bmp,red,Distractor2.bmp,yellow,Distractor2.bmp,,,,TrialProc,,TrainingTrialList,1,1,-999999,1,3023340,0,1,759,3024099,Target1.bmp,lime,1,,,,1,4,86
KW_Experiment5A,15,1,"<?xml version=""1.0""?>\n<Clock xmlns:dt=""urn:schemas-microsoft-com:datatypes""><Description dt:dt=""string"">E-Prime Primary Realtime Clock</Description><StartTime><Timestamp dt:dt=""int"">0</Timestamp><DateUtc dt:dt=""string"">2018-10-11T19:44:09Z</DateUtc></StartTime><FrequencyChanges><FrequencyChange><Frequency dt:dt=""r8"">3215292</Frequency><Timestamp dt:dt=""r8"">4212886722915</Timestamp><Current dt:dt=""r8"">0</Current><DateUtc dt:dt=""string"">2018-10-11T19:44:09Z</DateUtc></FrequencyChange></FrequencyChanges></Clock>\n",KW_Experiment5A-15-1,59.945,1.0.0.105,1,-475562240,Professional,2.0.10.353,2.0.10.353,10/11/2018,10/11/2018 19:44,15:44:09,2.0.10.248,3,2,1,3,,,,,,,,TrainingProc,BlockList,39,1,Distractor2.bmp,2,0,,0,1,3025108,500,,0,0,blue,500,2,500,3,vertical,lime,Target1.bmp,blue,Distractor2.bmp,cyan,Distractor1.bmp,red,Distractor1.bmp,purple,Distractor1.bmp,yellow,Distractor1.bmp,,,,TrialProc,,TrainingTrialList,1,1,-999999,0,3025608,0,1,755,3026363,Target1.bmp,lime,1,,,,1,4,87
KW_Experiment5A,15,1,"<?xml version=""1.0""?>\n<Clock xmlns:dt=""urn:schemas-microsoft-com:datatypes""><Description dt:dt=""string"">E-Prime Primary Realtime Clock</Description><StartTime><Timestamp dt:dt=""int"">0</Timestamp><DateUtc dt:dt=""string"">2018-10-11T19:44:09Z</DateUtc></StartTime><FrequencyChanges><FrequencyChange><Frequency dt:dt=""r8"">3215292</Frequency><Timestamp dt:dt=""r8"">4212886722915</Timestamp><Current dt:dt=""r8"">0</Current><DateUtc dt:dt=""string"">2018-10-11T19:44:09Z</DateUtc></FrequencyChange></FrequencyChanges></Clock>\n",KW_Experiment5A-15-1,59.945,1.0.0.105,1,-475562240,Professional,2.0.10.353,2.0.10.353,10/11/2018,10/11/2018 19:44,15:44:09,2.0.10.248,3,2,1,3,,,,,,,,TrainingProc,BlockList,40,2,Distractor1.bmp,1,0,,0,1,3027377,400,,0,0,blue,400,1,400,,horizontal,blue,Distractor1.bmp,cyan,Distractor2.bmp,red,Target2.bmp,lime,Distractor1.bmp,yellow,Distractor1.bmp,purple,Distractor1.bmp,,,,TrialProc,3,TrainingTrialList,1,2,-999999,0,3027777,0,2,706,3028483,Target2.bmp,red,2,,,,9,4,88
KW_Experiment5A,15,1,"<?xml version=""1.0""?>\n<Clock xmlns:dt=""urn:schemas-microsoft-com:datatypes""><Description dt:dt=""string"">E-Prime Primary Realtime Clock</Description><StartTime><Timestamp dt:dt=""int"">0</Timestamp><DateUtc dt:dt=""string"">2018-10-11T19:44:09Z</DateUtc></StartTime><FrequencyChanges><FrequencyChange><Frequency dt:dt=""r8"">3215292</Frequency><Timestamp dt:dt=""r8"">4212886722915</Timestamp><Current dt:dt=""r8"">0</Current><DateUtc dt:dt=""string"">2018-10-11T19:44:09Z</DateUtc></FrequencyChange></FrequencyChanges></Clock>\n",KW_Experiment5A-15-1,59.945,1.0.0.105,1,-475562240,Professional,2.0.10.353,2.0.10.353,10/11/2018,10/11/2018 19:44,15:44:09,2.0.10.248,3,2,1,3,,,,,,,,TrainingProc,BlockList,41,1,Distractor1.bmp,1,0,,0,1,3029495,400,,0,0,cyan,400,1,400,4,vertical,lime,Target1.bmp,cyan,Distractor1.bmp,blue,Distractor1.bmp,purple,Distractor2.bmp,yellow,Distractor2.bmp,red,Distractor2.bmp,,,,TrialProc,,TrainingTrialList,1,1,-999999,0,3029895,0,1,652,3030547,Target1.bmp,lime,1,,,,1,4,89
