ExperimentName,Subject,Session,Clock.Information,DataFile.Basename,Display.RefreshRate,ExperimentVersion,Group,RandomSeed,RuntimeCapabilities,RuntimeVersion,RuntimeVersionExpected,SessionDate,SessionStartDateTimeUtc,SessionTime,StudioVersion,Block,BlockList,BlockList.Cycle,BlockList.Sample,PostTestQ1.RESP,PostTestQ1CJ.RESP,PostTestQ2.RESP,PostTestQ2CJ.RESP,PostTestQ3.RESP,PostTestQ3CJ.RESP,PostTestSlide.RESP,Procedure[Block],Running[Block],Trial,CorrectResponse,Distractor,DistractorList,Fixation.ACC,Fixation.CRESP,Fixation.DurationError,Fixation.OnsetDelay,Fixation.OnsetTime,Fixation.OnsetToOnsetTime,Fixation.RESP,Fixation.RT,Fixation.RTTime,ItemColor,Jitter,JitterList,JitterTime,Lime0List,Orientation,Pos1Color,Pos1Item,Pos2Color,Pos2Item,Pos3Color,Pos3Item,Pos4Color,Pos4Item,Pos5Color,Pos5Item,Pos6Color,Pos6Item,PracticeTrialList,PracticeTrialList.Cycle,PracticeTrialList.Sample,Procedure[Trial],Red0List,Running[Trial],Stimulus.ACC,Stimulus.CRESP,Stimulus.DurationError,Stimulus.OnsetDelay,Stimulus.OnsetTime,Stimulus.OnsetToOnsetTime,Stimulus.RESP,Stimulus.RT,Stimulus.RTTime,Target,TargetColor,TargetList,TestTrialList,TestTrialList.Cycle,TestTrialList.Sample,TrainingTrialList,TrainingTrialList.Cycle,TrainingTrialList.Sample
KW_Experiment5A,6,1,"<?xml version=""1.0""?>\n<Clock xmlns:dt=""urn:schemas-microsoft-com:datatypes""><Description dt:dt=""string"">E-Prime Primary Realtime Clock</Description><StartTime><Timestamp dt:dt=""int"">0</Timestamp><DateUtc dt:dt=""string"">2018-10-08T17:57:38Z</DateUtc></StartTime><FrequencyChanges><FrequencyChange><Frequency dt:dt=""r8"">3215292</Frequency><Timestamp dt:dt=""r8"">3358960655865</Timestamp><Current dt:dt=""r8"">0</Current><DateUtc dt:dt=""string"">2018-10-08T17:57:38Z</DateUtc></FrequencyChange></FrequencyChanges></Clock>\n",KW_Experiment5A-6-1,59.947,1.0.0.105,2,296847084,Professional,2.0.10.353,2.0.10.353,10/8/2018,10/8/2018 17:57,13:57:38,2.0.10.248,1,1,1,1,,,,,,,,PracticeProc,BlockList,1,1,Distractor1.bmp,1,0,,0,39,202239,501,,0,0,yellow,500,2,500,,vertical,yellow,Distractor2.bmp,red,Target1.bmp,cyan,Distractor1.bmp,purple,Distractor2.bmp,blue,Distractor2.bmp,lime,Distractor1.bmp,2,1,1,TrialProc,2,PracticeTrialList,1,1,-999999,1,202740,0,1,1828,204568,Target1.bmp,red,1,,,,,,
KW_Experiment5A,6,1,"<?xml version=""1.0""?>\n<Clock xmlns:dt=""urn:schemas-microsoft-com:datatypes""><Description dt:dt=""string"">E-Prime Primary Realtime Clock</Description><StartTime><Timestamp dt:dt=""int"">0</Timestamp><DateUtc dt:dt=""string"">2018-10-08T17:57:38Z</DateUtc></StartTime><FrequencyChanges><FrequencyChange><Frequency dt:dt=""r8"">3215292</Frequency><Timestamp dt:dt=""r8"">3358960655865</Timestamp><Current dt:dt=""r8"">0</Current><DateUtc dt:dt=""string"">2018-10-08T17:57:38Z</DateUtc></FrequencyChange></FrequencyChanges></Clock>\n",KW_Experiment5A-6-1,59.947,1.0.0.105,2,296847084,Professional,2.0.10.353,2.0.10.353,10/8/2018,10/8/2018 17:57,13:57:38,2.0.10.248,1,1,1,1,,,,,,,,PracticeProc,BlockList,2,1,Distractor1.bmp,1,0,,0,1,205592,501,,0,0,purple,500,2,500,5,vertical,yellow,Distractor1.bmp,purple,Distractor1.bmp,lime,Target1.bmp,cyan,Distractor1.bmp,blue,Distractor2.bmp,red,Distractor1.bmp,3,1,2,TrialProc,,PracticeTrialList,1,1,-999999,1,206093,0,1,1507,207600,Target1.bmp,lime,1,,,,,,
KW_Experiment5A,6,1,"<?xml version=""1.0""?>\n<Clock xmlns:dt=""urn:schemas-microsoft-com:datatypes""><Description dt:dt=""string"">E-Prime Primary Realtime Clock</Description><StartTime><Timestamp dt:dt=""int"">0</Timestamp><DateUtc dt:dt=""string"">2018-10-08T17:57:38Z</DateUtc></StartTime><FrequencyChanges><FrequencyChange><Frequency dt:dt=""r8"">3215292</Frequency><Timestamp dt:dt=""r8"">3358960655865</Timestamp><Current dt:dt=""r8"">0</Current><DateUtc dt:dt=""string"">2018-10-08T17:57:38Z</DateUtc></FrequencyChange></FrequencyChanges></Clock>\n",KW_Experiment5A-6-1,59.947,1.0.0.105,2,296847084,Professional,2.0.10.353,2.0.10.353,10/8/2018,10/8/2018 17:57,13:57:38,2.0.10.248,1,1,1,1,,,,,,,,PracticeProc,BlockList,3,1,Distractor2.bmp,2,0,,0,1,208612,400,,0,0,yellow,400,1,400,,vertical,cyan,Distractor1.bmp,purple,Distractor2.bmp,yellow,Distractor2.bmp,red,Target1.bmp,lime,Distractor2.bmp,blue,Distractor1.bmp,4,1,3,TrialProc,2,PracticeTrialList,1,1,-999999,0,209012,0,1,932,209944,Target1.bmp,red,1,,,,,,
KW_Experiment5A,6,1,"<?xml version=""1.0""?>\n<Clock xmlns:dt=""urn:schemas-microsoft-com:datatypes""><Description dt:dt=""string"">E-Prime Primary Realtime Clock</Description><StartTime><Timestamp dt:dt=""int"">0</Timestamp><DateUtc dt:dt=""string"">2018-10-08T17:57:38Z</DateUtc></StartTime><FrequencyChanges><FrequencyChange><Frequency dt:dt=""r8"">3215292</Frequency><Timestamp dt:dt=""r8"">3358960655865</Timestamp><Current dt:dt=""r8"">0</Current><DateUtc dt:dt=""string"">2018-10-08T17:57:38Z</DateUtc></FrequencyChange></FrequencyChanges></Clock>\n",KW_Experiment5A-6-1,59.947,1.0.0.105,2,296847084,Professional,2.0.10.353,2.0.10.353,10/8/2018,10/8/2018 17:57,13:57:38,2.0.10.248,1,1,1,1,,,,,,,,PracticeProc,BlockList,4,1,Distractor1.bmp,1,0,,0,1,210964,500,,0,0,purple,500,2,500,5,vertical,lime,Target1.bmp,blue,Distractor1.bmp,yellow,Distractor1.bmp,cyan,Distractor2.bmp,red,Distractor1.bmp,purple,Distractor2.bmp,1,1,4,TrialProc,,PracticeTrialList,1,1,-999999,0,211464,0,1,479,211943,Target1.bmp,lime,1,,,,,,
KW_Experiment5A,6,1,"<?xml version=""1.0""?>\n<Clock xmlns:dt=""urn:schemas-microsoft-com:datatypes""><Description dt:dt=""string"">E-Prime Primary Realtime Clock</Description><StartTime><Timestamp dt:dt=""int"">0</Timestamp><DateUtc dt:dt=""string"">2018-10-08T17:57:38Z</DateUtc></StartTime><FrequencyChanges><FrequencyChange><Frequency dt:dt=""r8"">3215292</Frequency><Timestamp dt:dt=""r8"">3358960655865</Timestamp><Current dt:dt=""r8"">0</Current><DateUtc dt:dt=""string"">2018-10-08T17:57:38Z</DateUtc></FrequencyChange></FrequencyChanges></Clock>\n",KW_Experiment5A-6-1,59.947,1.0.0.105,2,296847084,Professional,2.0.10.353,2.0.10.353,10/8/2018,10/8/2018 17:57,13:57:38,2.0.10.248,1,1,1,1,,,,,,,,PracticeProc,BlockList,5,1,Distractor2.bmp,2,0,,1,0,212965,501,,0,0,purple,500,2,500,5,vertical,blue,Distractor1.bmp,red,Distractor2.bmp,yellow,Distractor1.bmp,purple,Distractor2.bmp,lime,Target1.bmp,cyan,Distractor2.bmp,5,1,5,TrialProc,,PracticeTrialList,1,1,-999999,1,213466,0,1,965,214431,Target1.bmp,lime,1,,,,,,
KW_Experiment5A,6,1,"<?xml version=""1.0""?>\n<Clock xmlns:dt=""urn:schemas-microsoft-com:datatypes""><Description dt:dt=""string"">E-Prime Primary Realtime Clock</Description><StartTime><Timestamp dt:dt=""int"">0</Timestamp><DateUtc dt:dt=""string"">2018-10-08T17:57:38Z</DateUtc></StartTime><FrequencyChanges><FrequencyChange><Frequency dt:dt=""r8"">3215292</Frequency><Timestamp dt:dt=""r8"">3358960655865</Timestamp><Current dt:dt=""r8"">0</Current><DateUtc dt:dt=""string"">2018-10-08T17:57:38Z</DateUtc></FrequencyChange></FrequencyChanges></Clock>\n",KW_Experiment5A-6-1,59.947,1.0.0.105,2,296847084,Professional,2.0.10.353,2.0.10.353,10/8/2018,10/8/2018 17:57,13:57:38,2.0.10.248,1,1,1,1,,,,,,,,PracticeProc,BlockList,6,1,Distractor1.bmp,1,0,,0,1,215451,400,,0,0,yellow,400,1,400,,vertical,lime,Distractor1.bmp,blue,Distractor2.bmp,cyan,Distractor2.bmp,purple,Distractor2.bmp,yellow,Distractor2.bmp,red,Target1.bmp,6,1,6,TrialProc,2,PracticeTrialList,1,1,-999999,0,215851,0,1,1308,217159,Target1.bmp,red,1,,,,,,
KW_Experiment5A,6,1,"<?xml version=""1.0""?>\n<Clock xmlns:dt=""urn:schemas-microsoft-com:datatypes""><Description dt:dt=""string"">E-Prime Primary Realtime Clock</Description><StartTime><Timestamp dt:dt=""int"">0</Timestamp><DateUtc dt:dt=""string"">2018-10-08T17:57:38Z</DateUtc></StartTime><FrequencyChanges><FrequencyChange><Frequency dt:dt=""r8"">3215292</Frequency><Timestamp dt:dt=""r8"">3358960655865</Timestamp><Current dt:dt=""r8"">0</Current><DateUtc dt:dt=""string"">2018-10-08T17:57:38Z</DateUtc></FrequencyChange></FrequencyChanges></Clock>\n",KW_Experiment5A-6-1,59.947,1.0.0.105,2,296847084,Professional,2.0.10.353,2.0.10.353,10/8/2018,10/8/2018 17:57,13:57:38,2.0.10.248,2,2,1,2,,,,,,,,TrainingProc,BlockList,1,1,Distractor1.bmp,1,0,,0,19,223842,501,,0,0,red,500,2,500,1,vertical,red,Distractor1.bmp,yellow,Distractor2.bmp,lime,Target1.bmp,purple,Distractor1.bmp,blue,Distractor1.bmp,cyan,Distractor1.bmp,,,,TrialProc,,TrainingTrialList,1,1,-999999,1,224343,0,1,1192,225535,Target1.bmp,lime,1,,,,3,2,1
KW_Experiment5A,6,1,"<?xml version=""1.0""?>\n<Clock xmlns:dt=""urn:schemas-microsoft-com:datatypes""><Description dt:dt=""string"">E-Prime Primary Realtime Clock</Description><StartTime><Timestamp dt:dt=""int"">0</Timestamp><DateUtc dt:dt=""string"">2018-10-08T17:57:38Z</DateUtc></StartTime><FrequencyChanges><FrequencyChange><Frequency dt:dt=""r8"">3215292</Frequency><Timestamp dt:dt=""r8"">3358960655865</Timestamp><Current dt:dt=""r8"">0</Current><DateUtc dt:dt=""string"">2018-10-08T17:57:38Z</DateUtc></FrequencyChange></FrequencyChanges></Clock>\n",KW_Experiment5A-6-1,59.947,1.0.0.105,2,296847084,Professional,2.0.10.353,2.0.10.353,10/8/2018,10/8/2018 17:57,13:57:38,2.0.10.248,2,2,1,2,,,,,,,,TrainingProc,BlockList,2,2,Distractor2.bmp,2,0,,0,1,226561,501,,0,0,purple,500,2,500,,horizontal,purple,Distractor2.bmp,red,Target2.bmp,blue,Distractor2.bmp,yellow,Distractor2.bmp,cyan,Distractor1.bmp,lime,Distractor2.bmp,,,,TrialProc,5,TrainingTrialList,1,2,-999999,1,227062,0,2,1257,228319,Target2.bmp,red,2,,,,8,2,2
KW_Experiment5A,6,1,"<?xml version=""1.0""?>\n<Clock xmlns:dt=""urn:schemas-microsoft-com:datatypes""><Description dt:dt=""string"">E-Prime Primary Realtime Clock</Description><StartTime><Timestamp dt:dt=""int"">0</Timestamp><DateUtc dt:dt=""string"">2018-10-08T17:57:38Z</DateUtc></StartTime><FrequencyChanges><FrequencyChange><Frequency dt:dt=""r8"">3215292</Frequency><Timestamp dt:dt=""r8"">3358960655865</Timestamp><Current dt:dt=""r8"">0</Current><DateUtc dt:dt=""string"">2018-10-08T17:57:38Z</DateUtc></FrequencyChange></FrequencyChanges></Clock>\n",KW_Experiment5A-6-1,59.947,1.0.0.105,2,296847084,Professional,2.0.10.353,2.0.10.353,10/8/2018,10/8/2018 17:57,13:57:38,2.0.10.248,2,2,1,2,,,,,,,,TrainingProc,BlockList,3,2,Distractor1.bmp,1,0,,0,0,229330,601,,0,0,lime,600,3,600,,horizontal,lime,Distractor1.bmp,red,Target2.bmp,yellow,Distractor1.bmp,cyan,Distractor2.bmp,blue,Distractor2.bmp,purple,Distractor1.bmp,,,,TrialProc,6,TrainingTrialList,1,2,-999999,1,229931,0,2,892,230823,Target2.bmp,red,2,,,,8,2,3
KW_Experiment5A,6,1,"<?xml version=""1.0""?>\n<Clock xmlns:dt=""urn:schemas-microsoft-com:datatypes""><Description dt:dt=""string"">E-Prime Primary Realtime Clock</Description><StartTime><Timestamp dt:dt=""int"">0</Timestamp><DateUtc dt:dt=""string"">2018-10-08T17:57:38Z</DateUtc></StartTime><FrequencyChanges><FrequencyChange><Frequency dt:dt=""r8"">3215292</Frequency><Timestamp dt:dt=""r8"">3358960655865</Timestamp><Current dt:dt=""r8"">0</Current><DateUtc dt:dt=""string"">2018-10-08T17:57:38Z</DateUtc></FrequencyChange></FrequencyChanges></Clock>\n",KW_Experiment5A-6-1,59.947,1.0.0.105,2,296847084,Professional,2.0.10.353,2.0.10.353,10/8/2018,10/8/2018 17:57,13:57:38,2.0.10.248,2,2,1,2,,,,,,,,TrainingProc,BlockList,4,2,Distractor1.bmp,1,0,,0,1,231833,500,,0,0,cyan,500,2,500,,horizontal,cyan,Distractor1.bmp,lime,Distractor2.bmp,purple,Distractor2.bmp,red,Target2.bmp,yellow,Distractor1.bmp,blue,Distractor1.bmp,,,,TrialProc,4,TrainingTrialList,1,2,-999999,0,232333,0,2,1122,233455,Target2.bmp,red,2,,,,10,2,4
KW_Experiment5A,6,1,"<?xml version=""1.0""?>\n<Clock xmlns:dt=""urn:schemas-microsoft-com:datatypes""><Description dt:dt=""string"">E-Prime Primary Realtime Clock</Description><StartTime><Timestamp dt:dt=""int"">0</Timestamp><DateUtc dt:dt=""string"">2018-10-08T17:57:38Z</DateUtc></StartTime><FrequencyChanges><FrequencyChange><Frequency dt:dt=""r8"">3215292</Frequency><Timestamp dt:dt=""r8"">3358960655865</Timestamp><Current dt:dt=""r8"">0</Current><DateUtc dt:dt=""string"">2018-10-08T17:57:38Z</DateUtc></FrequencyChange></FrequencyChanges></Clock>\n",KW_Experiment5A-6-1,59.947,1.0.0.105,2,296847084,Professional,2.0.10.353,2.0.10.353,10/8/2018,10/8/2018 17:57,13:57:38,2.0.10.248,2,2,1,2,,,,,,,,TrainingProc,BlockList,5,2,Distractor2.bmp,2,0,,0,0,234468,601,,0,0,cyan,600,3,600,,horizontal,cyan,Distractor1.bmp,blue,Distractor1.bmp,red,Target2.bmp,purple,Distractor2.bmp,yellow,Distractor2.bmp,lime,Distractor1.bmp,,,,TrialProc,4,TrainingTrialList,1,2,-999999,1,235069,0,2,562,235631,Target2.bmp,red,2,,,,9,2,5
KW_Experiment5A,6,1,"<?xml version=""1.0""?>\n<Clock xmlns:dt=""urn:schemas-microsoft-com:datatypes""><Description dt:dt=""string"">E-Prime Primary Realtime Clock</Description><StartTime><Timestamp dt:dt=""int"">0</Timestamp><DateUtc dt:dt=""string"">2018-10-08T17:57:38Z</DateUtc></StartTime><FrequencyChanges><FrequencyChange><Frequency dt:dt=""r8"">3215292</Frequency><Timestamp dt:dt=""r8"">3358960655865</Timestamp><Current dt:dt=""r8"">0</Current><DateUtc dt:dt=""string"">2018-10-08T17:57:38Z</DateUtc></FrequencyChange></FrequencyChanges></Clock>\n",KW_Experiment5A-6-1,59.947,1.0.0.105,2,296847084,Professional,2.0.10.353,2.0.10.353,10/8/2018,10/8/2018 17:57,13:57:38,2.0.10.248,2,2,1,2,,,,,,,,TrainingProc,BlockList,6,1,Distractor1.bmp,1,0,,0,1,236654,600,,0,0,cyan,600,3,600,,vertical,cyan,Distractor2.bmp,blue,Distractor2.bmp,red,Target1.bmp,yellow,Distractor1.bmp,purple,Distractor2.bmp,lime,Distractor1.bmp,,,,TrialProc,4,TrainingTrialList,1,1,-999999,0,237254,0,1,609,237863,Target1.bmp,red,1,,,,9,2,6
KW_Experiment5A,6,1,"<?xml version=""1.0""?>\n<Clock xmlns:dt=""urn:schemas-microsoft-com:datatypes""><Description dt:dt=""string"">E-Prime Primary Realtime Clock</Description><StartTime><Timestamp dt:dt=""int"">0</Timestamp><DateUtc dt:dt=""string"">2018-10-08T17:57:38Z</DateUtc></StartTime><FrequencyChanges><FrequencyChange><Frequency dt:dt=""r8"">3215292</Frequency><Timestamp dt:dt=""r8"">3358960655865</Timestamp><Current dt:dt=""r8"">0</Current><DateUtc dt:dt=""string"">2018-10-08T17:57:38Z</DateUtc></FrequencyChange></FrequencyChanges></Clock>\n",KW_Experiment5A-6-1,59.947,1.0.0.105,2,296847084,Professional,2.0.10.353,2.0.10.353,10/8/2018,10/8/2018 17:57,13:57:38,2.0.10.248,2,2,1,2,,,,,,,,TrainingProc,BlockList,7,1,Distractor2.bmp,2,0,,0,1,238889,501,,0,0,purple,500,2,500,,vertical,red,Target1.bmp,lime,Distractor2.bmp,blue,Distractor1.bmp,cyan,Distractor1.bmp,yellow,Distractor2.bmp,purple,Distractor1.bmp,,,,TrialProc,5,TrainingTrialList,1,1,-999999,1,239390,0,1,1257,240647,Target1.bmp,red,1,,,,7,2,7
KW_Experiment5A,6,1,"<?xml version=""1.0""?>\n<Clock xmlns:dt=""urn:schemas-microsoft-com:datatypes""><Description dt:dt=""string"">E-Prime Primary Realtime Clock</Description><StartTime><Timestamp dt:dt=""int"">0</Timestamp><DateUtc dt:dt=""string"">2018-10-08T17:57:38Z</DateUtc></StartTime><FrequencyChanges><FrequencyChange><Frequency dt:dt=""r8"">3215292</Frequency><Timestamp dt:dt=""r8"">3358960655865</Timestamp><Current dt:dt=""r8"">0</Current><DateUtc dt:dt=""string"">2018-10-08T17:57:38Z</DateUtc></FrequencyChange></FrequencyChanges></Clock>\n",KW_Experiment5A-6-1,59.947,1.0.0.105,2,296847084,Professional,2.0.10.353,2.0.10.353,10/8/2018,10/8/2018 17:57,13:57:38,2.0.10.248,2,2,1,2,,,,,,,,TrainingProc,BlockList,8,1,Distractor2.bmp,2,0,,0,1,241658,601,,0,0,purple,600,3,600,,vertical,purple,Distractor1.bmp,red,Target1.bmp,yellow,Distractor2.bmp,lime,Distractor1.bmp,cyan,Distractor1.bmp,blue,Distractor1.bmp,,,,TrialProc,5,TrainingTrialList,1,1,-999999,1,242259,0,1,1156,243415,Target1.bmp,red,1,,,,8,2,8
KW_Experiment5A,6,1,"<?xml version=""1.0""?>\n<Clock xmlns:dt=""urn:schemas-microsoft-com:datatypes""><Description dt:dt=""string"">E-Prime Primary Realtime Clock</Description><StartTime><Timestamp dt:dt=""int"">0</Timestamp><DateUtc dt:dt=""string"">2018-10-08T17:57:38Z</DateUtc></StartTime><FrequencyChanges><FrequencyChange><Frequency dt:dt=""r8"">3215292</Frequency><Timestamp dt:dt=""r8"">3358960655865</Timestamp><Current dt:dt=""r8"">0</Current><DateUtc dt:dt=""string"">2018-10-08T17:57:38Z</DateUtc></FrequencyChange></FrequencyChanges></Clock>\n",KW_Experiment5A-6-1,59.947,1.0.0.105,2,296847084,Professional,2.0.10.353,2.0.10.353,10/8/2018,10/8/2018 17:57,13:57:38,2.0.10.248,2,2,1,2,,,,,,,,TrainingProc,BlockList,9,1,Distractor1.bmp,1,0,,0,0,244427,401,,0,0,blue,400,1,400,,vertical,blue,Distractor2.bmp,yellow,Distractor2.bmp,red,Target1.bmp,purple,Distractor1.bmp,lime,Distractor1.bmp,cyan,Distractor2.bmp,,,,TrialProc,3,TrainingTrialList,1,1,-999999,1,244828,0,1,907,245735,Target1.bmp,red,1,,,,9,2,9
KW_Experiment5A,6,1,"<?xml version=""1.0""?>\n<Clock xmlns:dt=""urn:schemas-microsoft-com:datatypes""><Description dt:dt=""string"">E-Prime Primary Realtime Clock</Description><StartTime><Timestamp dt:dt=""int"">0</Timestamp><DateUtc dt:dt=""string"">2018-10-08T17:57:38Z</DateUtc></StartTime><FrequencyChanges><FrequencyChange><Frequency dt:dt=""r8"">3215292</Frequency><Timestamp dt:dt=""r8"">3358960655865</Timestamp><Current dt:dt=""r8"">0</Current><DateUtc dt:dt=""string"">2018-10-08T17:57:38Z</DateUtc></FrequencyChange></FrequencyChanges></Clock>\n",KW_Experiment5A-6-1,59.947,1.0.0.105,2,296847084,Professional,2.0.10.353,2.0.10.353,10/8/2018,10/8/2018 17:57,13:57:38,2.0.10.248,2,2,1,2,,,,,,,,TrainingProc,BlockList,10,1,Distractor2.bmp,2,0,,0,1,246746,601,,0,0,cyan,600,3,600,,vertical,cyan,Distractor2.bmp,blue,Distractor1.bmp,purple,Distractor1.bmp,red,Target1.bmp,yellow,Distractor2.bmp,lime,Distractor2.bmp,,,,TrialProc,4,TrainingTrialList,1,1,-999999,1,247347,0,1,708,248055,Target1.bmp,red,1,,,,10,2,10
KW_Experiment5A,6,1,"<?xml version=""1.0""?>\n<Clock xmlns:dt=""urn:schemas-microsoft-com:datatypes""><Description dt:dt=""string"">E-Prime Primary Realtime Clock</Description><StartTime><Timestamp dt:dt=""int"">0</Timestamp><DateUtc dt:dt=""string"">2018-10-08T17:57:38Z</DateUtc></StartTime><FrequencyChanges><FrequencyChange><Frequency dt:dt=""r8"">3215292</Frequency><Timestamp dt:dt=""r8"">3358960655865</Timestamp><Current dt:dt=""r8"">0</Current><DateUtc dt:dt=""string"">2018-10-08T17:57:38Z</DateUtc></FrequencyChange></FrequencyChanges></Clock>\n",KW_Experiment5A-6-1,59.947,1.0.0.105,2,296847084,Professional,2.0.10.353,2.0.10.353,10/8/2018,10/8/2018 17:57,13:57:38,2.0.10.248,2,2,1,2,,,,,,,,TrainingProc,BlockList,11,1,Distractor2.bmp,2,0,,0,1,249065,601,,0,0,cyan,600,3,600,4,vertical,cyan,Distractor1.bmp,lime,Target1.bmp,purple,Distractor2.bmp,blue,Distractor2.bmp,yellow,Distractor1.bmp,red,Distractor1.bmp,,,,TrialProc,,TrainingTrialList,1,1,-999999,1,249666,0,1,885,250551,Target1.bmp,lime,1,,,,2,2,11
KW_Experiment5A,6,1,"<?xml version=""1.0""?>\n<Clock xmlns:dt=""urn:schemas-microsoft-com:datatypes""><Description dt:dt=""string"">E-Prime Primary Realtime Clock</Description><StartTime><Timestamp dt:dt=""int"">0</Timestamp><DateUtc dt:dt=""string"">2018-10-08T17:57:38Z</DateUtc></StartTime><FrequencyChanges><FrequencyChange><Frequency dt:dt=""r8"">3215292</Frequency><Timestamp dt:dt=""r8"">3358960655865</Timestamp><Current dt:dt=""r8"">0</Current><DateUtc dt:dt=""string"">2018-10-08T17:57:38Z</DateUtc></FrequencyChange></FrequencyChanges></Clock>\n",KW_Experiment5A-6-1,59.947,1.0.0.105,2,296847084,Professional,2.0.10.353,2.0.10.353,10/8/2018,10/8/2018 17:57,13:57:38,2.0.10.248,2,2,1,2,,,,,,,,TrainingProc,BlockList,12,2,Distractor1.bmp,1,0,,0,1,251567,401,,0,0,lime,400,1,400,,horizontal,red,Target2.bmp,yellow,Distractor1.bmp,cyan,Distractor2.bmp,purple,Distractor1.bmp,blue,Distractor2.bmp,lime,Distractor2.bmp,,,,TrialProc,6,TrainingTrialList,1,2,-999999,1,251968,0,2,1078,253046,Target2.bmp,red,2,,,,7,2,12
KW_Experiment5A,6,1,"<?xml version=""1.0""?>\n<Clock xmlns:dt=""urn:schemas-microsoft-com:datatypes""><Description dt:dt=""string"">E-Prime Primary Realtime Clock</Description><StartTime><Timestamp dt:dt=""int"">0</Timestamp><DateUtc dt:dt=""string"">2018-10-08T17:57:38Z</DateUtc></StartTime><FrequencyChanges><FrequencyChange><Frequency dt:dt=""r8"">3215292</Frequency><Timestamp dt:dt=""r8"">3358960655865</Timestamp><Current dt:dt=""r8"">0</Current><DateUtc dt:dt=""string"">2018-10-08T17:57:38Z</DateUtc></FrequencyChange></FrequencyChanges></Clock>\n",KW_Experiment5A-6-1,59.947,1.0.0.105,2,296847084,Professional,2.0.10.353,2.0.10.353,10/8/2018,10/8/2018 17:57,13:57:38,2.0.10.248,2,2,1,2,,,,,,,,TrainingProc,BlockList,13,2,Distractor2.bmp,2,0,,0,1,254070,400,,0,0,purple,400,1,400,,horizontal,purple,Distractor2.bmp,yellow,Distractor1.bmp,lime,Distractor2.bmp,blue,Distractor2.bmp,cyan,Distractor2.bmp,red,Target2.bmp,,,,TrialProc,5,TrainingTrialList,1,2,-999999,0,254470,0,2,824,255294,Target2.bmp,red,2,,,,12,2,13
KW_Experiment5A,6,1,"<?xml version=""1.0""?>\n<Clock xmlns:dt=""urn:schemas-microsoft-com:datatypes""><Description dt:dt=""string"">E-Prime Primary Realtime Clock</Description><StartTime><Timestamp dt:dt=""int"">0</Timestamp><DateUtc dt:dt=""string"">2018-10-08T17:57:38Z</DateUtc></StartTime><FrequencyChanges><FrequencyChange><Frequency dt:dt=""r8"">3215292</Frequency><Timestamp dt:dt=""r8"">3358960655865</Timestamp><Current dt:dt=""r8"">0</Current><DateUtc dt:dt=""string"">2018-10-08T17:57:38Z</DateUtc></FrequencyChange></FrequencyChanges></Clock>\n",KW_Experiment5A-6-1,59.947,1.0.0.105,2,296847084,Professional,2.0.10.353,2.0.10.353,10/8/2018,10/8/2018 17:57,13:57:38,2.0.10.248,2,2,1,2,,,,,,,,TrainingProc,BlockList,14,1,Distractor2.bmp,2,0,,0,1,256305,500,,0,0,yellow,500,2,500,,vertical,yellow,Distractor2.bmp,purple,Distractor1.bmp,blue,Distractor1.bmp,lime,Distractor1.bmp,cyan,Distractor2.bmp,red,Target1.bmp,,,,TrialProc,2,TrainingTrialList,1,1,-999999,0,256805,0,1,601,257406,Target1.bmp,red,1,,,,12,2,14
KW_Experiment5A,6,1,"<?xml version=""1.0""?>\n<Clock xmlns:dt=""urn:schemas-microsoft-com:datatypes""><Description dt:dt=""string"">E-Prime Primary Realtime Clock</Description><StartTime><Timestamp dt:dt=""int"">0</Timestamp><DateUtc dt:dt=""string"">2018-10-08T17:57:38Z</DateUtc></StartTime><FrequencyChanges><FrequencyChange><Frequency dt:dt=""r8"">3215292</Frequency><Timestamp dt:dt=""r8"">3358960655865</Timestamp><Current dt:dt=""r8"">0</Current><DateUtc dt:dt=""string"">2018-10-08T17:57:38Z</DateUtc></FrequencyChange></FrequencyChanges></Clock>\n",KW_Experiment5A-6-1,59.947,1.0.0.105,2,296847084,Professional,2.0.10.353,2.0.10.353,10/8/2018,10/8/2018 17:57,13:57:38,2.0.10.248,2,2,1,2,,,,,,,,TrainingProc,BlockList,15,2,Distractor1.bmp,1,0,,1,0,258423,401,,0,0,yellow,400,1,400,,horizontal,yellow,Distractor1.bmp,purple,Distractor1.bmp,cyan,Distractor1.bmp,blue,Distractor2.bmp,lime,Distractor2.bmp,red,Target2.bmp,,,,TrialProc,2,TrainingTrialList,1,2,-999999,1,258824,0,2,678,259502,Target2.bmp,red,2,,,,12,2,15
KW_Experiment5A,6,1,"<?xml version=""1.0""?>\n<Clock xmlns:dt=""urn:schemas-microsoft-com:datatypes""><Description dt:dt=""string"">E-Prime Primary Realtime Clock</Description><StartTime><Timestamp dt:dt=""int"">0</Timestamp><DateUtc dt:dt=""string"">2018-10-08T17:57:38Z</DateUtc></StartTime><FrequencyChanges><FrequencyChange><Frequency dt:dt=""r8"">3215292</Frequency><Timestamp dt:dt=""r8"">3358960655865</Timestamp><Current dt:dt=""r8"">0</Current><DateUtc dt:dt=""string"">2018-10-08T17:57:38Z</DateUtc></FrequencyChange></FrequencyChanges></Clock>\n",KW_Experiment5A-6-1,59.947,1.0.0.105,2,296847084,Professional,2.0.10.353,2.0.10.353,10/8/2018,10/8/2018 17:57,13:57:38,2.0.10.248,2,2,1,2,,,,,,,,TrainingProc,BlockList,16,1,Distractor1.bmp,1,0,,0,1,260525,601,,0,0,yellow,600,3,600,,vertical,yellow,Distractor1.bmp,cyan,Distractor1.bmp,purple,Distractor1.bmp,red,Target1.bmp,blue,Distractor1.bmp,lime,Distractor1.bmp,,,,TrialProc,2,TrainingTrialList,1,1,-999999,1,261126,0,1,552,261678,Target1.bmp,red,1,,,,10,2,16
KW_Experiment5A,6,1,"<?xml version=""1.0""?>\n<Clock xmlns:dt=""urn:schemas-microsoft-com:datatypes""><Description dt:dt=""string"">E-Prime Primary Realtime Clock</Description><StartTime><Timestamp dt:dt=""int"">0</Timestamp><DateUtc dt:dt=""string"">2018-10-08T17:57:38Z</DateUtc></StartTime><FrequencyChanges><FrequencyChange><Frequency dt:dt=""r8"">3215292</Frequency><Timestamp dt:dt=""r8"">3358960655865</Timestamp><Current dt:dt=""r8"">0</Current><DateUtc dt:dt=""string"">2018-10-08T17:57:38Z</DateUtc></FrequencyChange></FrequencyChanges></Clock>\n",KW_Experiment5A-6-1,59.947,1.0.0.105,2,296847084,Professional,2.0.10.353,2.0.10.353,10/8/2018,10/8/2018 17:57,13:57:38,2.0.10.248,2,2,1,2,,,,,,,,TrainingProc,BlockList,17,2,Distractor1.bmp,1,0,,0,1,262694,601,,0,0,purple,600,3,600,5,horizontal,lime,Target2.bmp,purple,Distractor1.bmp,cyan,Distractor2.bmp,yellow,Distractor1.bmp,red,Distractor2.bmp,blue,Distractor1.bmp,,,,TrialProc,,TrainingTrialList,1,2,-999999,1,263295,0,2,1231,264526,Target2.bmp,lime,2,,,,1,2,17
KW_Experiment5A,6,1,"<?xml version=""1.0""?>\n<Clock xmlns:dt=""urn:schemas-microsoft-com:datatypes""><Description dt:dt=""string"">E-Prime Primary Realtime Clock</Description><StartTime><Timestamp dt:dt=""int"">0</Timestamp><DateUtc dt:dt=""string"">2018-10-08T17:57:38Z</DateUtc></StartTime><FrequencyChanges><FrequencyChange><Frequency dt:dt=""r8"">3215292</Frequency><Timestamp dt:dt=""r8"">3358960655865</Timestamp><Current dt:dt=""r8"">0</Current><DateUtc dt:dt=""string"">2018-10-08T17:57:38Z</DateUtc></FrequencyChange></FrequencyChanges></Clock>\n",KW_Experiment5A-6-1,59.947,1.0.0.105,2,296847084,Professional,2.0.10.353,2.0.10.353,10/8/2018,10/8/2018 17:57,13:57:38,2.0.10.248,2,2,1,2,,,,,,,,TrainingProc,BlockList,18,2,Distractor2.bmp,2,0,,0,1,265547,600,,0,0,purple,600,3,600,,horizontal,purple,Distractor2.bmp,lime,Distractor2.bmp,blue,Distractor2.bmp,yellow,Distractor1.bmp,red,Target2.bmp,cyan,Distractor2.bmp,,,,TrialProc,5,TrainingTrialList,1,2,-999999,0,266147,0,2,1059,267206,Target2.bmp,red,2,,,,11,2,18
KW_Experiment5A,6,1,"<?xml version=""1.0""?>\n<Clock xmlns:dt=""urn:schemas-microsoft-com:datatypes""><Description dt:dt=""string"">E-Prime Primary Realtime Clock</Description><StartTime><Timestamp dt:dt=""int"">0</Timestamp><DateUtc dt:dt=""string"">2018-10-08T17:57:38Z</DateUtc></StartTime><FrequencyChanges><FrequencyChange><Frequency dt:dt=""r8"">3215292</Frequency><Timestamp dt:dt=""r8"">3358960655865</Timestamp><Current dt:dt=""r8"">0</Current><DateUtc dt:dt=""string"">2018-10-08T17:57:38Z</DateUtc></FrequencyChange></FrequencyChanges></Clock>\n",KW_Experiment5A-6-1,59.947,1.0.0.105,2,296847084,Professional,2.0.10.353,2.0.10.353,10/8/2018,10/8/2018 17:57,13:57:38,2.0.10.248,2,2,1,2,,,,,,,,TrainingProc,BlockList,19,1,Distractor2.bmp,2,0,,1,0,268232,401,,0,0,cyan,400,1,400,4,vertical,cyan,Distractor2.bmp,yellow,Distractor1.bmp,blue,Distractor1.bmp,lime,Target1.bmp,purple,Distractor2.bmp,red,Distractor1.bmp,,,,TrialProc,,TrainingTrialList,1,1,-999999,1,268633,0,1,901,269534,Target1.bmp,lime,1,,,,4,2,19
KW_Experiment5A,6,1,"<?xml version=""1.0""?>\n<Clock xmlns:dt=""urn:schemas-microsoft-com:datatypes""><Description dt:dt=""string"">E-Prime Primary Realtime Clock</Description><StartTime><Timestamp dt:dt=""int"">0</Timestamp><DateUtc dt:dt=""string"">2018-10-08T17:57:38Z</DateUtc></StartTime><FrequencyChanges><FrequencyChange><Frequency dt:dt=""r8"">3215292</Frequency><Timestamp dt:dt=""r8"">3358960655865</Timestamp><Current dt:dt=""r8"">0</Current><DateUtc dt:dt=""string"">2018-10-08T17:57:38Z</DateUtc></FrequencyChange></FrequencyChanges></Clock>\n",KW_Experiment5A-6-1,59.947,1.0.0.105,2,296847084,Professional,2.0.10.353,2.0.10.353,10/8/2018,10/8/2018 17:57,13:57:38,2.0.10.248,2,2,1,2,,,,,,,,TrainingProc,BlockList,20,2,Distractor1.bmp,1,0,,0,1,270551,501,,0,0,purple,500,2,500,5,horizontal,purple,Distractor1.bmp,cyan,Distractor2.bmp,red,Distractor2.bmp,yellow,Distractor1.bmp,blue,Distractor2.bmp,lime,Target2.bmp,,,,TrialProc,,TrainingTrialList,1,2,-999999,1,271052,0,2,642,271694,Target2.bmp,lime,2,,,,6,2,20
KW_Experiment5A,6,1,"<?xml version=""1.0""?>\n<Clock xmlns:dt=""urn:schemas-microsoft-com:datatypes""><Description dt:dt=""string"">E-Prime Primary Realtime Clock</Description><StartTime><Timestamp dt:dt=""int"">0</Timestamp><DateUtc dt:dt=""string"">2018-10-08T17:57:38Z</DateUtc></StartTime><FrequencyChanges><FrequencyChange><Frequency dt:dt=""r8"">3215292</Frequency><Timestamp dt:dt=""r8"">3358960655865</Timestamp><Current dt:dt=""r8"">0</Current><DateUtc dt:dt=""string"">2018-10-08T17:57:38Z</DateUtc></FrequencyChange></FrequencyChanges></Clock>\n",KW_Experiment5A-6-1,59.947,1.0.0.105,2,296847084,Professional,2.0.10.353,2.0.10.353,10/8/2018,10/8/2018 17:57,13:57:38,2.0.10.248,2,2,1,2,,,,,,,,TrainingProc,BlockList,21,2,Distractor2.bmp,2,0,,0,1,272720,500,,0,0,purple,500,2,500,,horizontal,purple,Distractor2.bmp,lime,Distractor1.bmp,blue,Distractor1.bmp,cyan,Distractor2.bmp,red,Target2.bmp,yellow,Distractor2.bmp,,,,TrialProc,5,TrainingTrialList,1,2,-999999,0,273220,0,2,1034,274254,Target2.bmp,red,2,,,,11,2,21
KW_Experiment5A,6,1,"<?xml version=""1.0""?>\n<Clock xmlns:dt=""urn:schemas-microsoft-com:datatypes""><Description dt:dt=""string"">E-Prime Primary Realtime Clock</Description><StartTime><Timestamp dt:dt=""int"">0</Timestamp><DateUtc dt:dt=""string"">2018-10-08T17:57:38Z</DateUtc></StartTime><FrequencyChanges><FrequencyChange><Frequency dt:dt=""r8"">3215292</Frequency><Timestamp dt:dt=""r8"">3358960655865</Timestamp><Current dt:dt=""r8"">0</Current><DateUtc dt:dt=""string"">2018-10-08T17:57:38Z</DateUtc></FrequencyChange></FrequencyChanges></Clock>\n",KW_Experiment5A-6-1,59.947,1.0.0.105,2,296847084,Professional,2.0.10.353,2.0.10.353,10/8/2018,10/8/2018 17:57,13:57:38,2.0.10.248,2,2,1,2,,,,,,,,TrainingProc,BlockList,22,2,Distractor1.bmp,1,0,,0,1,275272,501,,0,0,lime,500,2,500,,horizontal,lime,Distractor2.bmp,blue,Distractor1.bmp,purple,Distractor2.bmp,yellow,Distractor1.bmp,red,Target2.bmp,cyan,Distractor1.bmp,,,,TrialProc,6,TrainingTrialList,1,2,-999999,1,275773,0,2,529,276302,Target2.bmp,red,2,,,,11,2,22
KW_Experiment5A,6,1,"<?xml version=""1.0""?>\n<Clock xmlns:dt=""urn:schemas-microsoft-com:datatypes""><Description dt:dt=""string"">E-Prime Primary Realtime Clock</Description><StartTime><Timestamp dt:dt=""int"">0</Timestamp><DateUtc dt:dt=""string"">2018-10-08T17:57:38Z</DateUtc></StartTime><FrequencyChanges><FrequencyChange><Frequency dt:dt=""r8"">3215292</Frequency><Timestamp dt:dt=""r8"">3358960655865</Timestamp><Current dt:dt=""r8"">0</Current><DateUtc dt:dt=""string"">2018-10-08T17:57:38Z</DateUtc></FrequencyChange></FrequencyChanges></Clock>\n",KW_Experiment5A-6-1,59.947,1.0.0.105,2,296847084,Professional,2.0.10.353,2.0.10.353,10/8/2018,10/8/2018 17:57,13:57:38,2.0.10.248,2,2,1,2,,,,,,,,TrainingProc,BlockList,23,2,Distractor1.bmp,1,0,,0,1,277324,601,,0,0,red,600,3,600,1,horizontal,red,Distractor2.bmp,cyan,Distractor2.bmp,yellow,Distractor2.bmp,purple,Distractor1.bmp,lime,Target2.bmp,blue,Distractor1.bmp,,,,TrialProc,,TrainingTrialList,1,2,-999999,1,277925,0,2,609,278534,Target2.bmp,lime,2,,,,5,2,23
KW_Experiment5A,6,1,"<?xml version=""1.0""?>\n<Clock xmlns:dt=""urn:schemas-microsoft-com:datatypes""><Description dt:dt=""string"">E-Prime Primary Realtime Clock</Description><StartTime><Timestamp dt:dt=""int"">0</Timestamp><DateUtc dt:dt=""string"">2018-10-08T17:57:38Z</DateUtc></StartTime><FrequencyChanges><FrequencyChange><Frequency dt:dt=""r8"">3215292</Frequency><Timestamp dt:dt=""r8"">3358960655865</Timestamp><Current dt:dt=""r8"">0</Current><DateUtc dt:dt=""string"">2018-10-08T17:57:38Z</DateUtc></FrequencyChange></FrequencyChanges></Clock>\n",KW_Experiment5A-6-1,59.947,1.0.0.105,2,296847084,Professional,2.0.10.353,2.0.10.353,10/8/2018,10/8/2018 17:57,13:57:38,2.0.10.248,2,2,1,2,,,,,,,,TrainingProc,BlockList,24,1,Distractor2.bmp,2,0,,0,1,279559,401,,0,0,purple,400,1,400,,vertical,red,Target1.bmp,blue,Distractor2.bmp,cyan,Distractor2.bmp,lime,Distractor2.bmp,yellow,Distractor2.bmp,purple,Distractor2.bmp,,,,TrialProc,5,TrainingTrialList,1,1,-999999,1,279960,0,1,966,280926,Target1.bmp,red,1,,,,7,2,24
KW_Experiment5A,6,1,"<?xml version=""1.0""?>\n<Clock xmlns:dt=""urn:schemas-microsoft-com:datatypes""><Description dt:dt=""string"">E-Prime Primary Realtime Clock</Description><StartTime><Timestamp dt:dt=""int"">0</Timestamp><DateUtc dt:dt=""string"">2018-10-08T17:57:38Z</DateUtc></StartTime><FrequencyChanges><FrequencyChange><Frequency dt:dt=""r8"">3215292</Frequency><Timestamp dt:dt=""r8"">3358960655865</Timestamp><Current dt:dt=""r8"">0</Current><DateUtc dt:dt=""string"">2018-10-08T17:57:38Z</DateUtc></FrequencyChange></FrequencyChanges></Clock>\n",KW_Experiment5A-6-1,59.947,1.0.0.105,2,296847084,Professional,2.0.10.353,2.0.10.353,10/8/2018,10/8/2018 17:57,13:57:38,2.0.10.248,2,2,1,2,,,,,,,,TrainingProc,BlockList,25,2,Distractor2.bmp,2,0,,0,1,281945,600,,0,0,cyan,600,3,600,4,horizontal,lime,Target2.bmp,cyan,Distractor2.bmp,purple,Distractor2.bmp,yellow,Distractor2.bmp,blue,Distractor2.bmp,red,Distractor2.bmp,,,,TrialProc,,TrainingTrialList,1,2,-999999,0,282545,0,2,605,283150,Target2.bmp,lime,2,,,,1,3,25
KW_Experiment5A,6,1,"<?xml version=""1.0""?>\n<Clock xmlns:dt=""urn:schemas-microsoft-com:datatypes""><Description dt:dt=""string"">E-Prime Primary Realtime Clock</Description><StartTime><Timestamp dt:dt=""int"">0</Timestamp><DateUtc dt:dt=""string"">2018-10-08T17:57:38Z</DateUtc></StartTime><FrequencyChanges><FrequencyChange><Frequency dt:dt=""r8"">3215292</Frequency><Timestamp dt:dt=""r8"">3358960655865</Timestamp><Current dt:dt=""r8"">0</Current><DateUtc dt:dt=""string"">2018-10-08T17:57:38Z</DateUtc></FrequencyChange></FrequencyChanges></Clock>\n",KW_Experiment5A-6-1,59.947,1.0.0.105,2,296847084,Professional,2.0.10.353,2.0.10.353,10/8/2018,10/8/2018 17:57,13:57:38,2.0.10.248,2,2,1,2,,,,,,,,TrainingProc,BlockList,26,2,Distractor1.bmp,1,0,,0,1,284164,400,,0,0,lime,400,1,400,,horizontal,red,Target2.bmp,cyan,Distractor1.bmp,purple,Distractor1.bmp,blue,Distractor1.bmp,yellow,Distractor2.bmp,lime,Distractor2.bmp,,,,TrialProc,6,TrainingTrialList,1,2,-999999,0,284564,0,2,610,285174,Target2.bmp,red,2,,,,7,3,26
KW_Experiment5A,6,1,"<?xml version=""1.0""?>\n<Clock xmlns:dt=""urn:schemas-microsoft-com:datatypes""><Description dt:dt=""string"">E-Prime Primary Realtime Clock</Description><StartTime><Timestamp dt:dt=""int"">0</Timestamp><DateUtc dt:dt=""string"">2018-10-08T17:57:38Z</DateUtc></StartTime><FrequencyChanges><FrequencyChange><Frequency dt:dt=""r8"">3215292</Frequency><Timestamp dt:dt=""r8"">3358960655865</Timestamp><Current dt:dt=""r8"">0</Current><DateUtc dt:dt=""string"">2018-10-08T17:57:38Z</DateUtc></FrequencyChange></FrequencyChanges></Clock>\n",KW_Experiment5A-6-1,59.947,1.0.0.105,2,296847084,Professional,2.0.10.353,2.0.10.353,10/8/2018,10/8/2018 17:57,13:57:38,2.0.10.248,2,2,1,2,,,,,,,,TrainingProc,BlockList,27,2,Distractor2.bmp,2,0,,0,1,286199,400,,0,0,purple,400,1,400,,horizontal,purple,Distractor2.bmp,blue,Distractor2.bmp,cyan,Distractor1.bmp,yellow,Distractor1.bmp,red,Target2.bmp,lime,Distractor2.bmp,,,,TrialProc,5,TrainingTrialList,1,2,-999999,0,286599,0,2,631,287230,Target2.bmp,red,2,,,,11,3,27
KW_Experiment5A,6,1,"<?xml version=""1.0""?>\n<Clock xmlns:dt=""urn:schemas-microsoft-com:datatypes""><Description dt:dt=""string"">E-Prime Primary Realtime Clock</Description><StartTime><Timestamp dt:dt=""int"">0</Timestamp><DateUtc dt:dt=""string"">2018-10-08T17:57:38Z</DateUtc></StartTime><FrequencyChanges><FrequencyChange><Frequency dt:dt=""r8"">3215292</Frequency><Timestamp dt:dt=""r8"">3358960655865</Timestamp><Current dt:dt=""r8"">0</Current><DateUtc dt:dt=""string"">2018-10-08T17:57:38Z</DateUtc></FrequencyChange></FrequencyChanges></Clock>\n",KW_Experiment5A-6-1,59.947,1.0.0.105,2,296847084,Professional,2.0.10.353,2.0.10.353,10/8/2018,10/8/2018 17:57,13:57:38,2.0.10.248,2,2,1,2,,,,,,,,TrainingProc,BlockList,28,2,Distractor2.bmp,2,0,,0,1,288251,600,,0,0,yellow,600,3,600,,horizontal,yellow,Distractor2.bmp,lime,Distractor2.bmp,red,Target2.bmp,blue,Distractor2.bmp,purple,Distractor1.bmp,cyan,Distractor1.bmp,,,,TrialProc,2,TrainingTrialList,1,2,-999999,0,288851,0,2,747,289598,Target2.bmp,red,2,,,,9,3,28
KW_Experiment5A,6,1,"<?xml version=""1.0""?>\n<Clock xmlns:dt=""urn:schemas-microsoft-com:datatypes""><Description dt:dt=""string"">E-Prime Primary Realtime Clock</Description><StartTime><Timestamp dt:dt=""int"">0</Timestamp><DateUtc dt:dt=""string"">2018-10-08T17:57:38Z</DateUtc></StartTime><FrequencyChanges><FrequencyChange><Frequency dt:dt=""r8"">3215292</Frequency><Timestamp dt:dt=""r8"">3358960655865</Timestamp><Current dt:dt=""r8"">0</Current><DateUtc dt:dt=""string"">2018-10-08T17:57:38Z</DateUtc></FrequencyChange></FrequencyChanges></Clock>\n",KW_Experiment5A-6-1,59.947,1.0.0.105,2,296847084,Professional,2.0.10.353,2.0.10.353,10/8/2018,10/8/2018 17:57,13:57:38,2.0.10.248,2,2,1,2,,,,,,,,TrainingProc,BlockList,29,1,Distractor1.bmp,1,0,,0,1,290619,601,,0,0,lime,600,3,600,,vertical,red,Target1.bmp,blue,Distractor1.bmp,yellow,Distractor1.bmp,purple,Distractor2.bmp,cyan,Distractor1.bmp,lime,Distractor1.bmp,,,,TrialProc,6,TrainingTrialList,1,1,-999999,1,291220,0,1,642,291862,Target1.bmp,red,1,,,,7,3,29
KW_Experiment5A,6,1,"<?xml version=""1.0""?>\n<Clock xmlns:dt=""urn:schemas-microsoft-com:datatypes""><Description dt:dt=""string"">E-Prime Primary Realtime Clock</Description><StartTime><Timestamp dt:dt=""int"">0</Timestamp><DateUtc dt:dt=""string"">2018-10-08T17:57:38Z</DateUtc></StartTime><FrequencyChanges><FrequencyChange><Frequency dt:dt=""r8"">3215292</Frequency><Timestamp dt:dt=""r8"">3358960655865</Timestamp><Current dt:dt=""r8"">0</Current><DateUtc dt:dt=""string"">2018-10-08T17:57:38Z</DateUtc></FrequencyChange></FrequencyChanges></Clock>\n",KW_Experiment5A-6-1,59.947,1.0.0.105,2,296847084,Professional,2.0.10.353,2.0.10.353,10/8/2018,10/8/2018 17:57,13:57:38,2.0.10.248,2,2,1,2,,,,,,,,TrainingProc,BlockList,30,1,Distractor1.bmp,1,0,,1,0,292871,501,,0,0,blue,500,2,500,3,vertical,blue,Distractor2.bmp,red,Distractor2.bmp,yellow,Distractor1.bmp,lime,Target1.bmp,cyan,Distractor1.bmp,purple,Distractor2.bmp,,,,TrialProc,,TrainingTrialList,1,1,-999999,1,293372,0,1,1329,294701,Target1.bmp,lime,1,,,,4,3,30
KW_Experiment5A,6,1,"<?xml version=""1.0""?>\n<Clock xmlns:dt=""urn:schemas-microsoft-com:datatypes""><Description dt:dt=""string"">E-Prime Primary Realtime Clock</Description><StartTime><Timestamp dt:dt=""int"">0</Timestamp><DateUtc dt:dt=""string"">2018-10-08T17:57:38Z</DateUtc></StartTime><FrequencyChanges><FrequencyChange><Frequency dt:dt=""r8"">3215292</Frequency><Timestamp dt:dt=""r8"">3358960655865</Timestamp><Current dt:dt=""r8"">0</Current><DateUtc dt:dt=""string"">2018-10-08T17:57:38Z</DateUtc></FrequencyChange></FrequencyChanges></Clock>\n",KW_Experiment5A-6-1,59.947,1.0.0.105,2,296847084,Professional,2.0.10.353,2.0.10.353,10/8/2018,10/8/2018 17:57,13:57:38,2.0.10.248,2,2,1,2,,,,,,,,TrainingProc,BlockList,31,2,Distractor2.bmp,2,0,,0,1,295724,501,,0,0,purple,500,2,500,,horizontal,purple,Distractor1.bmp,cyan,Distractor2.bmp,lime,Distractor1.bmp,blue,Distractor2.bmp,red,Target2.bmp,yellow,Distractor2.bmp,,,,TrialProc,5,TrainingTrialList,1,2,-999999,1,296225,0,2,556,296781,Target2.bmp,red,2,,,,11,3,31
KW_Experiment5A,6,1,"<?xml version=""1.0""?>\n<Clock xmlns:dt=""urn:schemas-microsoft-com:datatypes""><Description dt:dt=""string"">E-Prime Primary Realtime Clock</Description><StartTime><Timestamp dt:dt=""int"">0</Timestamp><DateUtc dt:dt=""string"">2018-10-08T17:57:38Z</DateUtc></StartTime><FrequencyChanges><FrequencyChange><Frequency dt:dt=""r8"">3215292</Frequency><Timestamp dt:dt=""r8"">3358960655865</Timestamp><Current dt:dt=""r8"">0</Current><DateUtc dt:dt=""string"">2018-10-08T17:57:38Z</DateUtc></FrequencyChange></FrequencyChanges></Clock>\n",KW_Experiment5A-6-1,59.947,1.0.0.105,2,296847084,Professional,2.0.10.353,2.0.10.353,10/8/2018,10/8/2018 17:57,13:57:38,2.0.10.248,2,2,1,2,,,,,,,,TrainingProc,BlockList,32,2,Distractor1.bmp,1,0,,0,1,297793,500,,0,0,cyan,500,2,500,,horizontal,cyan,Distractor2.bmp,red,Target2.bmp,purple,Distractor1.bmp,lime,Distractor2.bmp,blue,Distractor2.bmp,yellow,Distractor1.bmp,,,,TrialProc,4,TrainingTrialList,1,2,-999999,0,298293,0,2,512,298805,Target2.bmp,red,2,,,,8,3,32
KW_Experiment5A,6,1,"<?xml version=""1.0""?>\n<Clock xmlns:dt=""urn:schemas-microsoft-com:datatypes""><Description dt:dt=""string"">E-Prime Primary Realtime Clock</Description><StartTime><Timestamp dt:dt=""int"">0</Timestamp><DateUtc dt:dt=""string"">2018-10-08T17:57:38Z</DateUtc></StartTime><FrequencyChanges><FrequencyChange><Frequency dt:dt=""r8"">3215292</Frequency><Timestamp dt:dt=""r8"">3358960655865</Timestamp><Current dt:dt=""r8"">0</Current><DateUtc dt:dt=""string"">2018-10-08T17:57:38Z</DateUtc></FrequencyChange></FrequencyChanges></Clock>\n",KW_Experiment5A-6-1,59.947,1.0.0.105,2,296847084,Professional,2.0.10.353,2.0.10.353,10/8/2018,10/8/2018 17:57,13:57:38,2.0.10.248,2,2,1,2,,,,,,,,TrainingProc,BlockList,33,1,Distractor2.bmp,2,0,,0,1,299828,500,,0,0,cyan,500,2,500,4,vertical,cyan,Distractor2.bmp,blue,Distractor2.bmp,purple,Distractor1.bmp,red,Distractor2.bmp,lime,Target1.bmp,yellow,Distractor2.bmp,,,,TrialProc,,TrainingTrialList,1,1,-999999,0,300328,0,1,645,300973,Target1.bmp,lime,1,,,,5,3,33
KW_Experiment5A,6,1,"<?xml version=""1.0""?>\n<Clock xmlns:dt=""urn:schemas-microsoft-com:datatypes""><Description dt:dt=""string"">E-Prime Primary Realtime Clock</Description><StartTime><Timestamp dt:dt=""int"">0</Timestamp><DateUtc dt:dt=""string"">2018-10-08T17:57:38Z</DateUtc></StartTime><FrequencyChanges><FrequencyChange><Frequency dt:dt=""r8"">3215292</Frequency><Timestamp dt:dt=""r8"">3358960655865</Timestamp><Current dt:dt=""r8"">0</Current><DateUtc dt:dt=""string"">2018-10-08T17:57:38Z</DateUtc></FrequencyChange></FrequencyChanges></Clock>\n",KW_Experiment5A-6-1,59.947,1.0.0.105,2,296847084,Professional,2.0.10.353,2.0.10.353,10/8/2018,10/8/2018 17:57,13:57:38,2.0.10.248,2,2,1,2,,,,,,,,TrainingProc,BlockList,34,1,Distractor2.bmp,2,0,,0,0,301996,501,,0,0,blue,500,2,500,,vertical,red,Target1.bmp,cyan,Distractor2.bmp,purple,Distractor1.bmp,lime,Distractor1.bmp,yellow,Distractor2.bmp,blue,Distractor1.bmp,,,,TrialProc,3,TrainingTrialList,1,1,-999999,1,302497,0,1,844,303341,Target1.bmp,red,1,,,,7,3,34
KW_Experiment5A,6,1,"<?xml version=""1.0""?>\n<Clock xmlns:dt=""urn:schemas-microsoft-com:datatypes""><Description dt:dt=""string"">E-Prime Primary Realtime Clock</Description><StartTime><Timestamp dt:dt=""int"">0</Timestamp><DateUtc dt:dt=""string"">2018-10-08T17:57:38Z</DateUtc></StartTime><FrequencyChanges><FrequencyChange><Frequency dt:dt=""r8"">3215292</Frequency><Timestamp dt:dt=""r8"">3358960655865</Timestamp><Current dt:dt=""r8"">0</Current><DateUtc dt:dt=""string"">2018-10-08T17:57:38Z</DateUtc></FrequencyChange></FrequencyChanges></Clock>\n",KW_Experiment5A-6-1,59.947,1.0.0.105,2,296847084,Professional,2.0.10.353,2.0.10.353,10/8/2018,10/8/2018 17:57,13:57:38,2.0.10.248,2,2,1,2,,,,,,,,TrainingProc,BlockList,35,2,Distractor1.bmp,1,0,,0,1,304365,501,,0,0,yellow,500,2,500,,horizontal,yellow,Distractor1.bmp,lime,Distractor2.bmp,blue,Distractor1.bmp,purple,Distractor2.bmp,cyan,Distractor2.bmp,red,Target2.bmp,,,,TrialProc,2,TrainingTrialList,1,2,-999999,1,304866,0,2,867,305733,Target2.bmp,red,2,,,,12,3,35
KW_Experiment5A,6,1,"<?xml version=""1.0""?>\n<Clock xmlns:dt=""urn:schemas-microsoft-com:datatypes""><Description dt:dt=""string"">E-Prime Primary Realtime Clock</Description><StartTime><Timestamp dt:dt=""int"">0</Timestamp><DateUtc dt:dt=""string"">2018-10-08T17:57:38Z</DateUtc></StartTime><FrequencyChanges><FrequencyChange><Frequency dt:dt=""r8"">3215292</Frequency><Timestamp dt:dt=""r8"">3358960655865</Timestamp><Current dt:dt=""r8"">0</Current><DateUtc dt:dt=""string"">2018-10-08T17:57:38Z</DateUtc></FrequencyChange></FrequencyChanges></Clock>\n",KW_Experiment5A-6-1,59.947,1.0.0.105,2,296847084,Professional,2.0.10.353,2.0.10.353,10/8/2018,10/8/2018 17:57,13:57:38,2.0.10.248,2,2,1,2,,,,,,,,TrainingProc,BlockList,36,2,Distractor2.bmp,2,0,,0,1,306751,400,,0,0,cyan,400,1,400,,horizontal,cyan,Distractor2.bmp,lime,Distractor1.bmp,blue,Distractor1.bmp,yellow,Distractor1.bmp,purple,Distractor2.bmp,red,Target2.bmp,,,,TrialProc,4,TrainingTrialList,1,2,-999999,0,307151,0,2,462,307613,Target2.bmp,red,2,,,,12,3,36
KW_Experiment5A,6,1,"<?xml version=""1.0""?>\n<Clock xmlns:dt=""urn:schemas-microsoft-com:datatypes""><Description dt:dt=""string"">E-Prime Primary Realtime Clock</Description><StartTime><Timestamp dt:dt=""int"">0</Timestamp><DateUtc dt:dt=""string"">2018-10-08T17:57:38Z</DateUtc></StartTime><FrequencyChanges><FrequencyChange><Frequency dt:dt=""r8"">3215292</Frequency><Timestamp dt:dt=""r8"">3358960655865</Timestamp><Current dt:dt=""r8"">0</Current><DateUtc dt:dt=""string"">2018-10-08T17:57:38Z</DateUtc></FrequencyChange></FrequencyChanges></Clock>\n",KW_Experiment5A-6-1,59.947,1.0.0.105,2,296847084,Professional,2.0.10.353,2.0.10.353,10/8/2018,10/8/2018 17:57,13:57:38,2.0.10.248,2,2,1,2,,,,,,,,TrainingProc,BlockList,37,1,Distractor2.bmp,2,0,,0,1,308636,500,,0,0,blue,500,2,500,,vertical,blue,Distractor1.bmp,lime,Distractor2.bmp,purple,Distractor2.bmp,red,Target1.bmp,yellow,Distractor2.bmp,cyan,Distractor1.bmp,,,,TrialProc,3,TrainingTrialList,1,1,-999999,0,309136,0,1,717,309853,Target1.bmp,red,1,,,,10,3,37
KW_Experiment5A,6,1,"<?xml version=""1.0""?>\n<Clock xmlns:dt=""urn:schemas-microsoft-com:datatypes""><Description dt:dt=""string"">E-Prime Primary Realtime Clock</Description><StartTime><Timestamp dt:dt=""int"">0</Timestamp><DateUtc dt:dt=""string"">2018-10-08T17:57:38Z</DateUtc></StartTime><FrequencyChanges><FrequencyChange><Frequency dt:dt=""r8"">3215292</Frequency><Timestamp dt:dt=""r8"">3358960655865</Timestamp><Current dt:dt=""r8"">0</Current><DateUtc dt:dt=""string"">2018-10-08T17:57:38Z</DateUtc></FrequencyChange></FrequencyChanges></Clock>\n",KW_Experiment5A-6-1,59.947,1.0.0.105,2,296847084,Professional,2.0.10.353,2.0.10.353,10/8/2018,10/8/2018 17:57,13:57:38,2.0.10.248,2,2,1,2,,,,,,,,TrainingProc,BlockList,38,2,Distractor1.bmp,1,0,,0,1,310871,501,,0,0,red,500,2,500,1,horizontal,red,Distractor2.bmp,cyan,Distractor1.bmp,lime,Target2.bmp,blue,Distractor1.bmp,purple,Distractor1.bmp,yellow,Distractor1.bmp,,,,TrialProc,,TrainingTrialList,1,2,-999999,1,311372,0,2,865,312237,Target2.bmp,lime,2,,,,3,3,38
KW_Experiment5A,6,1,"<?xml version=""1.0""?>\n<Clock xmlns:dt=""urn:schemas-microsoft-com:datatypes""><Description dt:dt=""string"">E-Prime Primary Realtime Clock</Description><StartTime><Timestamp dt:dt=""int"">0</Timestamp><DateUtc dt:dt=""string"">2018-10-08T17:57:38Z</DateUtc></StartTime><FrequencyChanges><FrequencyChange><Frequency dt:dt=""r8"">3215292</Frequency><Timestamp dt:dt=""r8"">3358960655865</Timestamp><Current dt:dt=""r8"">0</Current><DateUtc dt:dt=""string"">2018-10-08T17:57:38Z</DateUtc></FrequencyChange></FrequencyChanges></Clock>\n",KW_Experiment5A-6-1,59.947,1.0.0.105,2,296847084,Professional,2.0.10.353,2.0.10.353,10/8/2018,10/8/2018 17:57,13:57:38,2.0.10.248,2,2,1,2,,,,,,,,TrainingProc,BlockList,39,1,Distractor1.bmp,1,0,,0,1,313257,400,,0,0,blue,400,1,400,3,vertical,blue,Distractor1.bmp,yellow,Distractor2.bmp,red,Distractor1.bmp,purple,Distractor1.bmp,cyan,Distractor2.bmp,lime,Target1.bmp,,,,TrialProc,,TrainingTrialList,1,1,-999999,0,313657,0,1,1036,314693,Target1.bmp,lime,1,,,,6,3,39
KW_Experiment5A,6,1,"<?xml version=""1.0""?>\n<Clock xmlns:dt=""urn:schemas-microsoft-com:datatypes""><Description dt:dt=""string"">E-Prime Primary Realtime Clock</Description><StartTime><Timestamp dt:dt=""int"">0</Timestamp><DateUtc dt:dt=""string"">2018-10-08T17:57:38Z</DateUtc></StartTime><FrequencyChanges><FrequencyChange><Frequency dt:dt=""r8"">3215292</Frequency><Timestamp dt:dt=""r8"">3358960655865</Timestamp><Current dt:dt=""r8"">0</Current><DateUtc dt:dt=""string"">2018-10-08T17:57:38Z</DateUtc></FrequencyChange></FrequencyChanges></Clock>\n",KW_Experiment5A-6-1,59.947,1.0.0.105,2,296847084,Professional,2.0.10.353,2.0.10.353,10/8/2018,10/8/2018 17:57,13:57:38,2.0.10.248,2,2,1,2,,,,,,,,TrainingProc,BlockList,40,1,Distractor2.bmp,2,0,,0,1,315709,600,,0,0,yellow,600,3,600,,vertical,yellow,Distractor2.bmp,purple,Distractor2.bmp,cyan,Distractor2.bmp,red,Target1.bmp,blue,Distractor2.bmp,lime,Distractor1.bmp,,,,TrialProc,2,TrainingTrialList,1,1,-999999,0,316309,0,1,688,316997,Target1.bmp,red,1,,,,10,3,40
KW_Experiment5A,6,1,"<?xml version=""1.0""?>\n<Clock xmlns:dt=""urn:schemas-microsoft-com:datatypes""><Description dt:dt=""string"">E-Prime Primary Realtime Clock</Description><StartTime><Timestamp dt:dt=""int"">0</Timestamp><DateUtc dt:dt=""string"">2018-10-08T17:57:38Z</DateUtc></StartTime><FrequencyChanges><FrequencyChange><Frequency dt:dt=""r8"">3215292</Frequency><Timestamp dt:dt=""r8"">3358960655865</Timestamp><Current dt:dt=""r8"">0</Current><DateUtc dt:dt=""string"">2018-10-08T17:57:38Z</DateUtc></FrequencyChange></FrequencyChanges></Clock>\n",KW_Experiment5A-6-1,59.947,1.0.0.105,2,296847084,Professional,2.0.10.353,2.0.10.353,10/8/2018,10/8/2018 17:57,13:57:38,2.0.10.248,2,2,1,2,,,,,,,,TrainingProc,BlockList,41,2,Distractor2.bmp,2,0,,0,1,318011,500,,0,0,purple,500,2,500,,horizontal,purple,Distractor2.bmp,yellow,Distractor2.bmp,blue,Distractor2.bmp,red,Target2.bmp,lime,Distractor2.bmp,cyan,Distractor1.bmp,,,,TrialProc,5,TrainingTrialList,1,2,-999999,0,318511,0,2,598,319109,Target2.bmp,red,2,,,,10,3,41
KW_Experiment5A,6,1,"<?xml version=""1.0""?>\n<Clock xmlns:dt=""urn:schemas-microsoft-com:datatypes""><Description dt:dt=""string"">E-Prime Primary Realtime Clock</Description><StartTime><Timestamp dt:dt=""int"">0</Timestamp><DateUtc dt:dt=""string"">2018-10-08T17:57:38Z</DateUtc></StartTime><FrequencyChanges><FrequencyChange><Frequency dt:dt=""r8"">3215292</Frequency><Timestamp dt:dt=""r8"">3358960655865</Timestamp><Current dt:dt=""r8"">0</Current><DateUtc dt:dt=""string"">2018-10-08T17:57:38Z</DateUtc></FrequencyChange></FrequencyChanges></Clock>\n",KW_Experiment5A-6-1,59.947,1.0.0.105,2,296847084,Professional,2.0.10.353,2.0.10.353,10/8/2018,10/8/2018 17:57,13:57:38,2.0.10.248,2,2,1,2,,,,,,,,TrainingProc,BlockList,42,2,Distractor2.bmp,2,0,,0,1,320130,500,,0,0,cyan,500,2,500,,horizontal,cyan,Distractor2.bmp,purple,Distractor2.bmp,blue,Distractor2.bmp,lime,Distractor2.bmp,red,Target2.bmp,yellow,Distractor2.bmp,,,,TrialProc,4,TrainingTrialList,1,2,-999999,0,320630,0,2,551,321181,Target2.bmp,red,2,,,,11,3,42
KW_Experiment5A,6,1,"<?xml version=""1.0""?>\n<Clock xmlns:dt=""urn:schemas-microsoft-com:datatypes""><Description dt:dt=""string"">E-Prime Primary Realtime Clock</Description><StartTime><Timestamp dt:dt=""int"">0</Timestamp><DateUtc dt:dt=""string"">2018-10-08T17:57:38Z</DateUtc></StartTime><FrequencyChanges><FrequencyChange><Frequency dt:dt=""r8"">3215292</Frequency><Timestamp dt:dt=""r8"">3358960655865</Timestamp><Current dt:dt=""r8"">0</Current><DateUtc dt:dt=""string"">2018-10-08T17:57:38Z</DateUtc></FrequencyChange></FrequencyChanges></Clock>\n",KW_Experiment5A-6-1,59.947,1.0.0.105,2,296847084,Professional,2.0.10.353,2.0.10.353,10/8/2018,10/8/2018 17:57,13:57:38,2.0.10.248,2,2,1,2,,,,,,,,TrainingProc,BlockList,43,1,Distractor2.bmp,2,0,,0,1,322198,601,,0,0,purple,600,3,600,5,vertical,purple,Distractor1.bmp,lime,Target1.bmp,cyan,Distractor2.bmp,yellow,Distractor2.bmp,blue,Distractor1.bmp,red,Distractor1.bmp,,,,TrialProc,,TrainingTrialList,1,1,-999999,1,322799,0,1,614,323413,Target1.bmp,lime,1,,,,2,3,43
KW_Experiment5A,6,1,"<?xml version=""1.0""?>\n<Clock xmlns:dt=""urn:schemas-microsoft-com:datatypes""><Description dt:dt=""string"">E-Prime Primary Realtime Clock</Description><StartTime><Timestamp dt:dt=""int"">0</Timestamp><DateUtc dt:dt=""string"">2018-10-08T17:57:38Z</DateUtc></StartTime><FrequencyChanges><FrequencyChange><Frequency dt:dt=""r8"">3215292</Frequency><Timestamp dt:dt=""r8"">3358960655865</Timestamp><Current dt:dt=""r8"">0</Current><DateUtc dt:dt=""string"">2018-10-08T17:57:38Z</DateUtc></FrequencyChange></FrequencyChanges></Clock>\n",KW_Experiment5A-6-1,59.947,1.0.0.105,2,296847084,Professional,2.0.10.353,2.0.10.353,10/8/2018,10/8/2018 17:57,13:57:38,2.0.10.248,2,2,1,2,,,,,,,,TrainingProc,BlockList,44,2,Distractor1.bmp,1,0,,1,0,324433,501,,0,0,lime,500,2,500,,horizontal,lime,Distractor2.bmp,cyan,Distractor1.bmp,red,Target2.bmp,yellow,Distractor1.bmp,blue,Distractor1.bmp,purple,Distractor1.bmp,,,,TrialProc,6,TrainingTrialList,1,2,-999999,1,324934,0,2,439,325373,Target2.bmp,red,2,,,,9,3,44
KW_Experiment5A,6,1,"<?xml version=""1.0""?>\n<Clock xmlns:dt=""urn:schemas-microsoft-com:datatypes""><Description dt:dt=""string"">E-Prime Primary Realtime Clock</Description><StartTime><Timestamp dt:dt=""int"">0</Timestamp><DateUtc dt:dt=""string"">2018-10-08T17:57:38Z</DateUtc></StartTime><FrequencyChanges><FrequencyChange><Frequency dt:dt=""r8"">3215292</Frequency><Timestamp dt:dt=""r8"">3358960655865</Timestamp><Current dt:dt=""r8"">0</Current><DateUtc dt:dt=""string"">2018-10-08T17:57:38Z</DateUtc></FrequencyChange></FrequencyChanges></Clock>\n",KW_Experiment5A-6-1,59.947,1.0.0.105,2,296847084,Professional,2.0.10.353,2.0.10.353,10/8/2018,10/8/2018 17:57,13:57:38,2.0.10.248,2,2,1,2,,,,,,,,TrainingProc,BlockList,45,2,Distractor1.bmp,1,0,,0,1,326385,501,,0,0,yellow,500,2,500,,horizontal,yellow,Distractor1.bmp,lime,Distractor2.bmp,purple,Distractor2.bmp,blue,Distractor2.bmp,cyan,Distractor1.bmp,red,Target2.bmp,,,,TrialProc,2,TrainingTrialList,1,2,-999999,1,326886,0,2,719,327605,Target2.bmp,red,2,,,,12,3,45
KW_Experiment5A,6,1,"<?xml version=""1.0""?>\n<Clock xmlns:dt=""urn:schemas-microsoft-com:datatypes""><Description dt:dt=""string"">E-Prime Primary Realtime Clock</Description><StartTime><Timestamp dt:dt=""int"">0</Timestamp><DateUtc dt:dt=""string"">2018-10-08T17:57:38Z</DateUtc></StartTime><FrequencyChanges><FrequencyChange><Frequency dt:dt=""r8"">3215292</Frequency><Timestamp dt:dt=""r8"">3358960655865</Timestamp><Current dt:dt=""r8"">0</Current><DateUtc dt:dt=""string"">2018-10-08T17:57:38Z</DateUtc></FrequencyChange></FrequencyChanges></Clock>\n",KW_Experiment5A-6-1,59.947,1.0.0.105,2,296847084,Professional,2.0.10.353,2.0.10.353,10/8/2018,10/8/2018 17:57,13:57:38,2.0.10.248,2,2,1,2,,,,,,,,TrainingProc,BlockList,46,2,Distractor2.bmp,2,0,,0,1,328621,500,,0,0,yellow,500,2,500,,horizontal,yellow,Distractor2.bmp,red,Target2.bmp,cyan,Distractor2.bmp,blue,Distractor2.bmp,purple,Distractor2.bmp,lime,Distractor1.bmp,,,,TrialProc,2,TrainingTrialList,1,2,-999999,0,329121,0,2,652,329773,Target2.bmp,red,2,,,,8,3,46
KW_Experiment5A,6,1,"<?xml version=""1.0""?>\n<Clock xmlns:dt=""urn:schemas-microsoft-com:datatypes""><Description dt:dt=""string"">E-Prime Primary Realtime Clock</Description><StartTime><Timestamp dt:dt=""int"">0</Timestamp><DateUtc dt:dt=""string"">2018-10-08T17:57:38Z</DateUtc></StartTime><FrequencyChanges><FrequencyChange><Frequency dt:dt=""r8"">3215292</Frequency><Timestamp dt:dt=""r8"">3358960655865</Timestamp><Current dt:dt=""r8"">0</Current><DateUtc dt:dt=""string"">2018-10-08T17:57:38Z</DateUtc></FrequencyChange></FrequencyChanges></Clock>\n",KW_Experiment5A-6-1,59.947,1.0.0.105,2,296847084,Professional,2.0.10.353,2.0.10.353,10/8/2018,10/8/2018 17:57,13:57:38,2.0.10.248,2,2,1,2,,,,,,,,TrainingProc,BlockList,47,1,Distractor1.bmp,1,0,,0,1,330789,601,,0,0,lime,600,3,600,,vertical,lime,Distractor1.bmp,red,Target1.bmp,cyan,Distractor1.bmp,blue,Distractor1.bmp,yellow,Distractor2.bmp,purple,Distractor1.bmp,,,,TrialProc,6,TrainingTrialList,1,1,-999999,1,331390,0,1,631,332021,Target1.bmp,red,1,,,,8,3,47
KW_Experiment5A,6,1,"<?xml version=""1.0""?>\n<Clock xmlns:dt=""urn:schemas-microsoft-com:datatypes""><Description dt:dt=""string"">E-Prime Primary Realtime Clock</Description><StartTime><Timestamp dt:dt=""int"">0</Timestamp><DateUtc dt:dt=""string"">2018-10-08T17:57:38Z</DateUtc></StartTime><FrequencyChanges><FrequencyChange><Frequency dt:dt=""r8"">3215292</Frequency><Timestamp dt:dt=""r8"">3358960655865</Timestamp><Current dt:dt=""r8"">0</Current><DateUtc dt:dt=""string"">2018-10-08T17:57:38Z</DateUtc></FrequencyChange></FrequencyChanges></Clock>\n",KW_Experiment5A-6-1,59.947,1.0.0.105,2,296847084,Professional,2.0.10.353,2.0.10.353,10/8/2018,10/8/2018 17:57,13:57:38,2.0.10.248,2,2,1,2,,,,,,,,TrainingProc,BlockList,48,1,Distractor2.bmp,2,0,,0,1,333041,401,,0,0,blue,400,1,400,,vertical,blue,Distractor1.bmp,purple,Distractor1.bmp,red,Target1.bmp,lime,Distractor2.bmp,yellow,Distractor1.bmp,cyan,Distractor1.bmp,,,,TrialProc,3,TrainingTrialList,1,1,-999999,1,333442,0,1,786,334228,Target1.bmp,red,1,,,,9,3,48
KW_Experiment5A,6,1,"<?xml version=""1.0""?>\n<Clock xmlns:dt=""urn:schemas-microsoft-com:datatypes""><Description dt:dt=""string"">E-Prime Primary Realtime Clock</Description><StartTime><Timestamp dt:dt=""int"">0</Timestamp><DateUtc dt:dt=""string"">2018-10-08T17:57:38Z</DateUtc></StartTime><FrequencyChanges><FrequencyChange><Frequency dt:dt=""r8"">3215292</Frequency><Timestamp dt:dt=""r8"">3358960655865</Timestamp><Current dt:dt=""r8"">0</Current><DateUtc dt:dt=""string"">2018-10-08T17:57:38Z</DateUtc></FrequencyChange></FrequencyChanges></Clock>\n",KW_Experiment5A-6-1,59.947,1.0.0.105,2,296847084,Professional,2.0.10.353,2.0.10.353,10/8/2018,10/8/2018 17:57,13:57:38,2.0.10.248,3,2,1,3,,,,,,,,TrainingProc,BlockList,1,1,Distractor1.bmp,1,0,,0,28,337912,501,,0,0,purple,500,2,500,,vertical,purple,Distractor1.bmp,red,Target1.bmp,cyan,Distractor1.bmp,blue,Distractor2.bmp,yellow,Distractor1.bmp,lime,Distractor2.bmp,,,,TrialProc,5,TrainingTrialList,1,1,-999999,1,338413,0,1,935,339348,Target1.bmp,red,1,,,,8,4,49
KW_Experiment5A,6,1,"<?xml version=""1.0""?>\n<Clock xmlns:dt=""urn:schemas-microsoft-com:datatypes""><Description dt:dt=""string"">E-Prime Primary Realtime Clock</Description><StartTime><Timestamp dt:dt=""int"">0</Timestamp><DateUtc dt:dt=""string"">2018-10-08T17:57:38Z</DateUtc></StartTime><FrequencyChanges><FrequencyChange><Frequency dt:dt=""r8"">3215292</Frequency><Timestamp dt:dt=""r8"">3358960655865</Timestamp><Current dt:dt=""r8"">0</Current><DateUtc dt:dt=""string"">2018-10-08T17:57:38Z</DateUtc></FrequencyChange></FrequencyChanges></Clock>\n",KW_Experiment5A-6-1,59.947,1.0.0.105,2,296847084,Professional,2.0.10.353,2.0.10.353,10/8/2018,10/8/2018 17:57,13:57:38,2.0.10.248,3,2,1,3,,,,,,,,TrainingProc,BlockList,2,1,Distractor2.bmp,2,0,,0,1,340365,500,,0,0,blue,500,2,500,3,vertical,lime,Target1.bmp,blue,Distractor2.bmp,red,Distractor2.bmp,yellow,Distractor2.bmp,cyan,Distractor2.bmp,purple,Distractor1.bmp,,,,TrialProc,,TrainingTrialList,1,1,-999999,0,340865,0,1,1067,341932,Target1.bmp,lime,1,,,,1,4,50
KW_Experiment5A,6,1,"<?xml version=""1.0""?>\n<Clock xmlns:dt=""urn:schemas-microsoft-com:datatypes""><Description dt:dt=""string"">E-Prime Primary Realtime Clock</Description><StartTime><Timestamp dt:dt=""int"">0</Timestamp><DateUtc dt:dt=""string"">2018-10-08T17:57:38Z</DateUtc></StartTime><FrequencyChanges><FrequencyChange><Frequency dt:dt=""r8"">3215292</Frequency><Timestamp dt:dt=""r8"">3358960655865</Timestamp><Current dt:dt=""r8"">0</Current><DateUtc dt:dt=""string"">2018-10-08T17:57:38Z</DateUtc></FrequencyChange></FrequencyChanges></Clock>\n",KW_Experiment5A-6-1,59.947,1.0.0.105,2,296847084,Professional,2.0.10.353,2.0.10.353,10/8/2018,10/8/2018 17:57,13:57:38,2.0.10.248,3,2,1,3,,,,,,,,TrainingProc,BlockList,3,2,Distractor1.bmp,1,0,,0,1,342950,601,,0,0,yellow,600,3,600,2,horizontal,yellow,Distractor1.bmp,lime,Target2.bmp,blue,Distractor1.bmp,red,Distractor1.bmp,cyan,Distractor2.bmp,purple,Distractor1.bmp,,,,TrialProc,,TrainingTrialList,1,2,-999999,1,343551,0,2,629,344180,Target2.bmp,lime,2,,,,2,4,51
KW_Experiment5A,6,1,"<?xml version=""1.0""?>\n<Clock xmlns:dt=""urn:schemas-microsoft-com:datatypes""><Description dt:dt=""string"">E-Prime Primary Realtime Clock</Description><StartTime><Timestamp dt:dt=""int"">0</Timestamp><DateUtc dt:dt=""string"">2018-10-08T17:57:38Z</DateUtc></StartTime><FrequencyChanges><FrequencyChange><Frequency dt:dt=""r8"">3215292</Frequency><Timestamp dt:dt=""r8"">3358960655865</Timestamp><Current dt:dt=""r8"">0</Current><DateUtc dt:dt=""string"">2018-10-08T17:57:38Z</DateUtc></FrequencyChange></FrequencyChanges></Clock>\n",KW_Experiment5A-6-1,59.947,1.0.0.105,2,296847084,Professional,2.0.10.353,2.0.10.353,10/8/2018,10/8/2018 17:57,13:57:38,2.0.10.248,3,2,1,3,,,,,,,,TrainingProc,BlockList,4,2,Distractor1.bmp,1,0,,0,1,345202,401,,0,0,purple,400,1,400,,horizontal,purple,Distractor1.bmp,cyan,Distractor1.bmp,blue,Distractor2.bmp,lime,Distractor1.bmp,yellow,Distractor2.bmp,red,Target2.bmp,,,,TrialProc,5,TrainingTrialList,0,2,-999999,1,345603,0,1,641,346244,Target2.bmp,red,2,,,,12,4,52
KW_Experiment5A,6,1,"<?xml version=""1.0""?>\n<Clock xmlns:dt=""urn:schemas-microsoft-com:datatypes""><Description dt:dt=""string"">E-Prime Primary Realtime Clock</Description><StartTime><Timestamp dt:dt=""int"">0</Timestamp><DateUtc dt:dt=""string"">2018-10-08T17:57:38Z</DateUtc></StartTime><FrequencyChanges><FrequencyChange><Frequency dt:dt=""r8"">3215292</Frequency><Timestamp dt:dt=""r8"">3358960655865</Timestamp><Current dt:dt=""r8"">0</Current><DateUtc dt:dt=""string"">2018-10-08T17:57:38Z</DateUtc></FrequencyChange></FrequencyChanges></Clock>\n",KW_Experiment5A-6-1,59.947,1.0.0.105,2,296847084,Professional,2.0.10.353,2.0.10.353,10/8/2018,10/8/2018 17:57,13:57:38,2.0.10.248,3,2,1,3,,,,,,,,TrainingProc,BlockList,5,1,Distractor2.bmp,2,0,,0,1,347271,400,,0,0,red,400,1,400,1,vertical,red,Distractor2.bmp,yellow,Distractor2.bmp,blue,Distractor2.bmp,purple,Distractor2.bmp,lime,Target1.bmp,cyan,Distractor2.bmp,,,,TrialProc,,TrainingTrialList,1,1,-999999,0,347671,0,1,1141,348812,Target1.bmp,lime,1,,,,5,4,53
KW_Experiment5A,6,1,"<?xml version=""1.0""?>\n<Clock xmlns:dt=""urn:schemas-microsoft-com:datatypes""><Description dt:dt=""string"">E-Prime Primary Realtime Clock</Description><StartTime><Timestamp dt:dt=""int"">0</Timestamp><DateUtc dt:dt=""string"">2018-10-08T17:57:38Z</DateUtc></StartTime><FrequencyChanges><FrequencyChange><Frequency dt:dt=""r8"">3215292</Frequency><Timestamp dt:dt=""r8"">3358960655865</Timestamp><Current dt:dt=""r8"">0</Current><DateUtc dt:dt=""string"">2018-10-08T17:57:38Z</DateUtc></FrequencyChange></FrequencyChanges></Clock>\n",KW_Experiment5A-6-1,59.947,1.0.0.105,2,296847084,Professional,2.0.10.353,2.0.10.353,10/8/2018,10/8/2018 17:57,13:57:38,2.0.10.248,3,2,1,3,,,,,,,,TrainingProc,BlockList,6,1,Distractor2.bmp,2,0,,0,1,349823,501,,0,0,blue,500,2,500,3,vertical,blue,Distractor2.bmp,purple,Distractor2.bmp,red,Distractor1.bmp,yellow,Distractor1.bmp,cyan,Distractor1.bmp,lime,Target1.bmp,,,,TrialProc,,TrainingTrialList,1,1,-999999,1,350324,0,1,656,350980,Target1.bmp,lime,1,,,,6,4,54
KW_Experiment5A,6,1,"<?xml version=""1.0""?>\n<Clock xmlns:dt=""urn:schemas-microsoft-com:datatypes""><Description dt:dt=""string"">E-Prime Primary Realtime Clock</Description><StartTime><Timestamp dt:dt=""int"">0</Timestamp><DateUtc dt:dt=""string"">2018-10-08T17:57:38Z</DateUtc></StartTime><FrequencyChanges><FrequencyChange><Frequency dt:dt=""r8"">3215292</Frequency><Timestamp dt:dt=""r8"">3358960655865</Timestamp><Current dt:dt=""r8"">0</Current><DateUtc dt:dt=""string"">2018-10-08T17:57:38Z</DateUtc></FrequencyChange></FrequencyChanges></Clock>\n",KW_Experiment5A-6-1,59.947,1.0.0.105,2,296847084,Professional,2.0.10.353,2.0.10.353,10/8/2018,10/8/2018 17:57,13:57:38,2.0.10.248,3,2,1,3,,,,,,,,TrainingProc,BlockList,7,2,Distractor2.bmp,2,0,,0,1,351992,500,,0,0,lime,500,2,500,,horizontal,lime,Distractor1.bmp,blue,Distractor2.bmp,cyan,Distractor2.bmp,red,Target2.bmp,yellow,Distractor2.bmp,purple,Distractor1.bmp,,,,TrialProc,6,TrainingTrialList,1,2,-999999,0,352492,0,2,1160,353652,Target2.bmp,red,2,,,,10,4,55
KW_Experiment5A,6,1,"<?xml version=""1.0""?>\n<Clock xmlns:dt=""urn:schemas-microsoft-com:datatypes""><Description dt:dt=""string"">E-Prime Primary Realtime Clock</Description><StartTime><Timestamp dt:dt=""int"">0</Timestamp><DateUtc dt:dt=""string"">2018-10-08T17:57:38Z</DateUtc></StartTime><FrequencyChanges><FrequencyChange><Frequency dt:dt=""r8"">3215292</Frequency><Timestamp dt:dt=""r8"">3358960655865</Timestamp><Current dt:dt=""r8"">0</Current><DateUtc dt:dt=""string"">2018-10-08T17:57:38Z</DateUtc></FrequencyChange></FrequencyChanges></Clock>\n",KW_Experiment5A-6-1,59.947,1.0.0.105,2,296847084,Professional,2.0.10.353,2.0.10.353,10/8/2018,10/8/2018 17:57,13:57:38,2.0.10.248,3,2,1,3,,,,,,,,TrainingProc,BlockList,8,2,Distractor1.bmp,1,0,,0,1,354678,500,,0,0,purple,500,2,500,,horizontal,red,Target2.bmp,lime,Distractor1.bmp,cyan,Distractor2.bmp,yellow,Distractor1.bmp,blue,Distractor2.bmp,purple,Distractor2.bmp,,,,TrialProc,5,TrainingTrialList,1,2,-999999,0,355178,0,2,650,355828,Target2.bmp,red,2,,,,7,4,56
KW_Experiment5A,6,1,"<?xml version=""1.0""?>\n<Clock xmlns:dt=""urn:schemas-microsoft-com:datatypes""><Description dt:dt=""string"">E-Prime Primary Realtime Clock</Description><StartTime><Timestamp dt:dt=""int"">0</Timestamp><DateUtc dt:dt=""string"">2018-10-08T17:57:38Z</DateUtc></StartTime><FrequencyChanges><FrequencyChange><Frequency dt:dt=""r8"">3215292</Frequency><Timestamp dt:dt=""r8"">3358960655865</Timestamp><Current dt:dt=""r8"">0</Current><DateUtc dt:dt=""string"">2018-10-08T17:57:38Z</DateUtc></FrequencyChange></FrequencyChanges></Clock>\n",KW_Experiment5A-6-1,59.947,1.0.0.105,2,296847084,Professional,2.0.10.353,2.0.10.353,10/8/2018,10/8/2018 17:57,13:57:38,2.0.10.248,3,2,1,3,,,,,,,,TrainingProc,BlockList,9,2,Distractor1.bmp,1,0,,0,1,356846,501,,0,0,purple,500,2,500,,horizontal,purple,Distractor2.bmp,yellow,Distractor2.bmp,lime,Distractor1.bmp,red,Target2.bmp,cyan,Distractor1.bmp,blue,Distractor2.bmp,,,,TrialProc,5,TrainingTrialList,1,2,-999999,1,357347,0,2,1049,358396,Target2.bmp,red,2,,,,10,4,57
KW_Experiment5A,6,1,"<?xml version=""1.0""?>\n<Clock xmlns:dt=""urn:schemas-microsoft-com:datatypes""><Description dt:dt=""string"">E-Prime Primary Realtime Clock</Description><StartTime><Timestamp dt:dt=""int"">0</Timestamp><DateUtc dt:dt=""string"">2018-10-08T17:57:38Z</DateUtc></StartTime><FrequencyChanges><FrequencyChange><Frequency dt:dt=""r8"">3215292</Frequency><Timestamp dt:dt=""r8"">3358960655865</Timestamp><Current dt:dt=""r8"">0</Current><DateUtc dt:dt=""string"">2018-10-08T17:57:38Z</DateUtc></FrequencyChange></FrequencyChanges></Clock>\n",KW_Experiment5A-6-1,59.947,1.0.0.105,2,296847084,Professional,2.0.10.353,2.0.10.353,10/8/2018,10/8/2018 17:57,13:57:38,2.0.10.248,3,2,1,3,,,,,,,,TrainingProc,BlockList,10,2,Distractor2.bmp,2,0,,0,1,359415,601,,0,0,lime,600,3,600,,horizontal,lime,Distractor2.bmp,cyan,Distractor2.bmp,yellow,Distractor2.bmp,purple,Distractor1.bmp,blue,Distractor2.bmp,red,Target2.bmp,,,,TrialProc,6,TrainingTrialList,1,2,-999999,1,360016,0,2,1036,361052,Target2.bmp,red,2,,,,12,4,58
KW_Experiment5A,6,1,"<?xml version=""1.0""?>\n<Clock xmlns:dt=""urn:schemas-microsoft-com:datatypes""><Description dt:dt=""string"">E-Prime Primary Realtime Clock</Description><StartTime><Timestamp dt:dt=""int"">0</Timestamp><DateUtc dt:dt=""string"">2018-10-08T17:57:38Z</DateUtc></StartTime><FrequencyChanges><FrequencyChange><Frequency dt:dt=""r8"">3215292</Frequency><Timestamp dt:dt=""r8"">3358960655865</Timestamp><Current dt:dt=""r8"">0</Current><DateUtc dt:dt=""string"">2018-10-08T17:57:38Z</DateUtc></FrequencyChange></FrequencyChanges></Clock>\n",KW_Experiment5A-6-1,59.947,1.0.0.105,2,296847084,Professional,2.0.10.353,2.0.10.353,10/8/2018,10/8/2018 17:57,13:57:38,2.0.10.248,3,2,1,3,,,,,,,,TrainingProc,BlockList,11,1,Distractor2.bmp,2,0,,0,1,362068,500,,0,0,yellow,500,2,500,,vertical,yellow,Distractor1.bmp,lime,Distractor1.bmp,red,Target1.bmp,blue,Distractor2.bmp,purple,Distractor1.bmp,cyan,Distractor1.bmp,,,,TrialProc,2,TrainingTrialList,1,1,-999999,0,362568,0,1,668,363236,Target1.bmp,red,1,,,,9,4,59
KW_Experiment5A,6,1,"<?xml version=""1.0""?>\n<Clock xmlns:dt=""urn:schemas-microsoft-com:datatypes""><Description dt:dt=""string"">E-Prime Primary Realtime Clock</Description><StartTime><Timestamp dt:dt=""int"">0</Timestamp><DateUtc dt:dt=""string"">2018-10-08T17:57:38Z</DateUtc></StartTime><FrequencyChanges><FrequencyChange><Frequency dt:dt=""r8"">3215292</Frequency><Timestamp dt:dt=""r8"">3358960655865</Timestamp><Current dt:dt=""r8"">0</Current><DateUtc dt:dt=""string"">2018-10-08T17:57:38Z</DateUtc></FrequencyChange></FrequencyChanges></Clock>\n",KW_Experiment5A-6-1,59.947,1.0.0.105,2,296847084,Professional,2.0.10.353,2.0.10.353,10/8/2018,10/8/2018 17:57,13:57:38,2.0.10.248,3,2,1,3,,,,,,,,TrainingProc,BlockList,12,2,Distractor1.bmp,1,0,,0,1,364253,500,,0,0,purple,500,2,500,,horizontal,purple,Distractor2.bmp,yellow,Distractor2.bmp,red,Target2.bmp,blue,Distractor1.bmp,cyan,Distractor2.bmp,lime,Distractor1.bmp,,,,TrialProc,5,TrainingTrialList,1,2,-999999,0,364753,0,2,451,365204,Target2.bmp,red,2,,,,9,4,60
KW_Experiment5A,6,1,"<?xml version=""1.0""?>\n<Clock xmlns:dt=""urn:schemas-microsoft-com:datatypes""><Description dt:dt=""string"">E-Prime Primary Realtime Clock</Description><StartTime><Timestamp dt:dt=""int"">0</Timestamp><DateUtc dt:dt=""string"">2018-10-08T17:57:38Z</DateUtc></StartTime><FrequencyChanges><FrequencyChange><Frequency dt:dt=""r8"">3215292</Frequency><Timestamp dt:dt=""r8"">3358960655865</Timestamp><Current dt:dt=""r8"">0</Current><DateUtc dt:dt=""string"">2018-10-08T17:57:38Z</DateUtc></FrequencyChange></FrequencyChanges></Clock>\n",KW_Experiment5A-6-1,59.947,1.0.0.105,2,296847084,Professional,2.0.10.353,2.0.10.353,10/8/2018,10/8/2018 17:57,13:57:38,2.0.10.248,3,2,1,3,,,,,,,,TrainingProc,BlockList,13,2,Distractor2.bmp,2,0,,1,0,366221,401,,0,0,lime,400,1,400,,horizontal,lime,Distractor1.bmp,blue,Distractor2.bmp,purple,Distractor2.bmp,yellow,Distractor1.bmp,red,Target2.bmp,cyan,Distractor2.bmp,,,,TrialProc,6,TrainingTrialList,1,2,-999999,1,366622,0,2,558,367180,Target2.bmp,red,2,,,,11,4,61
KW_Experiment5A,6,1,"<?xml version=""1.0""?>\n<Clock xmlns:dt=""urn:schemas-microsoft-com:datatypes""><Description dt:dt=""string"">E-Prime Primary Realtime Clock</Description><StartTime><Timestamp dt:dt=""int"">0</Timestamp><DateUtc dt:dt=""string"">2018-10-08T17:57:38Z</DateUtc></StartTime><FrequencyChanges><FrequencyChange><Frequency dt:dt=""r8"">3215292</Frequency><Timestamp dt:dt=""r8"">3358960655865</Timestamp><Current dt:dt=""r8"">0</Current><DateUtc dt:dt=""string"">2018-10-08T17:57:38Z</DateUtc></FrequencyChange></FrequencyChanges></Clock>\n",KW_Experiment5A-6-1,59.947,1.0.0.105,2,296847084,Professional,2.0.10.353,2.0.10.353,10/8/2018,10/8/2018 17:57,13:57:38,2.0.10.248,3,2,1,3,,,,,,,,TrainingProc,BlockList,14,1,Distractor1.bmp,1,0,,0,1,368190,500,,0,0,cyan,500,2,500,,vertical,cyan,Distractor1.bmp,red,Target1.bmp,blue,Distractor1.bmp,lime,Distractor1.bmp,yellow,Distractor1.bmp,purple,Distractor2.bmp,,,,TrialProc,4,TrainingTrialList,1,1,-999999,0,368690,0,1,634,369324,Target1.bmp,red,1,,,,8,4,62
KW_Experiment5A,6,1,"<?xml version=""1.0""?>\n<Clock xmlns:dt=""urn:schemas-microsoft-com:datatypes""><Description dt:dt=""string"">E-Prime Primary Realtime Clock</Description><StartTime><Timestamp dt:dt=""int"">0</Timestamp><DateUtc dt:dt=""string"">2018-10-08T17:57:38Z</DateUtc></StartTime><FrequencyChanges><FrequencyChange><Frequency dt:dt=""r8"">3215292</Frequency><Timestamp dt:dt=""r8"">3358960655865</Timestamp><Current dt:dt=""r8"">0</Current><DateUtc dt:dt=""string"">2018-10-08T17:57:38Z</DateUtc></FrequencyChange></FrequencyChanges></Clock>\n",KW_Experiment5A-6-1,59.947,1.0.0.105,2,296847084,Professional,2.0.10.353,2.0.10.353,10/8/2018,10/8/2018 17:57,13:57:38,2.0.10.248,3,2,1,3,,,,,,,,TrainingProc,BlockList,15,1,Distractor1.bmp,1,0,,0,1,370342,500,,0,0,purple,500,2,500,,vertical,red,Target1.bmp,yellow,Distractor1.bmp,blue,Distractor2.bmp,cyan,Distractor1.bmp,lime,Distractor2.bmp,purple,Distractor1.bmp,,,,TrialProc,5,TrainingTrialList,1,1,-999999,0,370842,0,1,770,371612,Target1.bmp,red,1,,,,7,4,63
KW_Experiment5A,6,1,"<?xml version=""1.0""?>\n<Clock xmlns:dt=""urn:schemas-microsoft-com:datatypes""><Description dt:dt=""string"">E-Prime Primary Realtime Clock</Description><StartTime><Timestamp dt:dt=""int"">0</Timestamp><DateUtc dt:dt=""string"">2018-10-08T17:57:38Z</DateUtc></StartTime><FrequencyChanges><FrequencyChange><Frequency dt:dt=""r8"">3215292</Frequency><Timestamp dt:dt=""r8"">3358960655865</Timestamp><Current dt:dt=""r8"">0</Current><DateUtc dt:dt=""string"">2018-10-08T17:57:38Z</DateUtc></FrequencyChange></FrequencyChanges></Clock>\n",KW_Experiment5A-6-1,59.947,1.0.0.105,2,296847084,Professional,2.0.10.353,2.0.10.353,10/8/2018,10/8/2018 17:57,13:57:38,2.0.10.248,3,2,1,3,,,,,,,,TrainingProc,BlockList,16,1,Distractor2.bmp,2,0,,0,1,372627,401,,0,0,lime,400,1,400,,vertical,lime,Distractor2.bmp,purple,Distractor2.bmp,yellow,Distractor1.bmp,cyan,Distractor1.bmp,blue,Distractor2.bmp,red,Target1.bmp,,,,TrialProc,6,TrainingTrialList,1,1,-999999,1,373028,0,1,600,373628,Target1.bmp,red,1,,,,12,4,64
KW_Experiment5A,6,1,"<?xml version=""1.0""?>\n<Clock xmlns:dt=""urn:schemas-microsoft-com:datatypes""><Description dt:dt=""string"">E-Prime Primary Realtime Clock</Description><StartTime><Timestamp dt:dt=""int"">0</Timestamp><DateUtc dt:dt=""string"">2018-10-08T17:57:38Z</DateUtc></StartTime><FrequencyChanges><FrequencyChange><Frequency dt:dt=""r8"">3215292</Frequency><Timestamp dt:dt=""r8"">3358960655865</Timestamp><Current dt:dt=""r8"">0</Current><DateUtc dt:dt=""string"">2018-10-08T17:57:38Z</DateUtc></FrequencyChange></FrequencyChanges></Clock>\n",KW_Experiment5A-6-1,59.947,1.0.0.105,2,296847084,Professional,2.0.10.353,2.0.10.353,10/8/2018,10/8/2018 17:57,13:57:38,2.0.10.248,3,2,1,3,,,,,,,,TrainingProc,BlockList,17,1,Distractor2.bmp,2,0,,0,1,374646,500,,0,0,purple,500,2,500,5,vertical,purple,Distractor1.bmp,red,Distractor1.bmp,lime,Target1.bmp,blue,Distractor2.bmp,yellow,Distractor2.bmp,cyan,Distractor2.bmp,,,,TrialProc,,TrainingTrialList,1,1,-999999,0,375146,0,1,769,375915,Target1.bmp,lime,1,,,,3,4,65
KW_Experiment5A,6,1,"<?xml version=""1.0""?>\n<Clock xmlns:dt=""urn:schemas-microsoft-com:datatypes""><Description dt:dt=""string"">E-Prime Primary Realtime Clock</Description><StartTime><Timestamp dt:dt=""int"">0</Timestamp><DateUtc dt:dt=""string"">2018-10-08T17:57:38Z</DateUtc></StartTime><FrequencyChanges><FrequencyChange><Frequency dt:dt=""r8"">3215292</Frequency><Timestamp dt:dt=""r8"">3358960655865</Timestamp><Current dt:dt=""r8"">0</Current><DateUtc dt:dt=""string"">2018-10-08T17:57:38Z</DateUtc></FrequencyChange></FrequencyChanges></Clock>\n",KW_Experiment5A-6-1,59.947,1.0.0.105,2,296847084,Professional,2.0.10.353,2.0.10.353,10/8/2018,10/8/2018 17:57,13:57:38,2.0.10.248,3,2,1,3,,,,,,,,TrainingProc,BlockList,18,2,Distractor2.bmp,2,0,,0,1,376931,601,,0,0,lime,600,3,600,,horizontal,red,Target2.bmp,yellow,Distractor2.bmp,cyan,Distractor1.bmp,purple,Distractor1.bmp,blue,Distractor1.bmp,lime,Distractor2.bmp,,,,TrialProc,6,TrainingTrialList,1,2,-999999,1,377532,0,2,791,378323,Target2.bmp,red,2,,,,7,4,66
KW_Experiment5A,6,1,"<?xml version=""1.0""?>\n<Clock xmlns:dt=""urn:schemas-microsoft-com:datatypes""><Description dt:dt=""string"">E-Prime Primary Realtime Clock</Description><StartTime><Timestamp dt:dt=""int"">0</Timestamp><DateUtc dt:dt=""string"">2018-10-08T17:57:38Z</DateUtc></StartTime><FrequencyChanges><FrequencyChange><Frequency dt:dt=""r8"">3215292</Frequency><Timestamp dt:dt=""r8"">3358960655865</Timestamp><Current dt:dt=""r8"">0</Current><DateUtc dt:dt=""string"">2018-10-08T17:57:38Z</DateUtc></FrequencyChange></FrequencyChanges></Clock>\n",KW_Experiment5A-6-1,59.947,1.0.0.105,2,296847084,Professional,2.0.10.353,2.0.10.353,10/8/2018,10/8/2018 17:57,13:57:38,2.0.10.248,3,2,1,3,,,,,,,,TrainingProc,BlockList,19,2,Distractor2.bmp,2,0,,0,1,379333,501,,0,0,yellow,500,2,500,,horizontal,yellow,Distractor2.bmp,lime,Distractor1.bmp,cyan,Distractor1.bmp,red,Target2.bmp,purple,Distractor2.bmp,blue,Distractor2.bmp,,,,TrialProc,2,TrainingTrialList,1,2,-999999,1,379834,0,2,753,380587,Target2.bmp,red,2,,,,10,4,67
KW_Experiment5A,6,1,"<?xml version=""1.0""?>\n<Clock xmlns:dt=""urn:schemas-microsoft-com:datatypes""><Description dt:dt=""string"">E-Prime Primary Realtime Clock</Description><StartTime><Timestamp dt:dt=""int"">0</Timestamp><DateUtc dt:dt=""string"">2018-10-08T17:57:38Z</DateUtc></StartTime><FrequencyChanges><FrequencyChange><Frequency dt:dt=""r8"">3215292</Frequency><Timestamp dt:dt=""r8"">3358960655865</Timestamp><Current dt:dt=""r8"">0</Current><DateUtc dt:dt=""string"">2018-10-08T17:57:38Z</DateUtc></FrequencyChange></FrequencyChanges></Clock>\n",KW_Experiment5A-6-1,59.947,1.0.0.105,2,296847084,Professional,2.0.10.353,2.0.10.353,10/8/2018,10/8/2018 17:57,13:57:38,2.0.10.248,3,2,1,3,,,,,,,,TrainingProc,BlockList,20,2,Distractor1.bmp,1,0,,0,1,381602,400,,0,0,cyan,400,1,400,,horizontal,cyan,Distractor2.bmp,purple,Distractor2.bmp,blue,Distractor1.bmp,lime,Distractor2.bmp,red,Target2.bmp,yellow,Distractor1.bmp,,,,TrialProc,4,TrainingTrialList,1,2,-999999,0,382002,0,2,657,382659,Target2.bmp,red,2,,,,11,4,68
KW_Experiment5A,6,1,"<?xml version=""1.0""?>\n<Clock xmlns:dt=""urn:schemas-microsoft-com:datatypes""><Description dt:dt=""string"">E-Prime Primary Realtime Clock</Description><StartTime><Timestamp dt:dt=""int"">0</Timestamp><DateUtc dt:dt=""string"">2018-10-08T17:57:38Z</DateUtc></StartTime><FrequencyChanges><FrequencyChange><Frequency dt:dt=""r8"">3215292</Frequency><Timestamp dt:dt=""r8"">3358960655865</Timestamp><Current dt:dt=""r8"">0</Current><DateUtc dt:dt=""string"">2018-10-08T17:57:38Z</DateUtc></FrequencyChange></FrequencyChanges></Clock>\n",KW_Experiment5A-6-1,59.947,1.0.0.105,2,296847084,Professional,2.0.10.353,2.0.10.353,10/8/2018,10/8/2018 17:57,13:57:38,2.0.10.248,3,2,1,3,,,,,,,,TrainingProc,BlockList,21,1,Distractor2.bmp,2,0,,0,1,383671,500,,0,0,purple,500,2,500,,vertical,purple,Distractor1.bmp,blue,Distractor2.bmp,red,Target1.bmp,cyan,Distractor2.bmp,yellow,Distractor1.bmp,lime,Distractor2.bmp,,,,TrialProc,5,TrainingTrialList,1,1,-999999,0,384171,0,1,680,384851,Target1.bmp,red,1,,,,9,4,69
KW_Experiment5A,6,1,"<?xml version=""1.0""?>\n<Clock xmlns:dt=""urn:schemas-microsoft-com:datatypes""><Description dt:dt=""string"">E-Prime Primary Realtime Clock</Description><StartTime><Timestamp dt:dt=""int"">0</Timestamp><DateUtc dt:dt=""string"">2018-10-08T17:57:38Z</DateUtc></StartTime><FrequencyChanges><FrequencyChange><Frequency dt:dt=""r8"">3215292</Frequency><Timestamp dt:dt=""r8"">3358960655865</Timestamp><Current dt:dt=""r8"">0</Current><DateUtc dt:dt=""string"">2018-10-08T17:57:38Z</DateUtc></FrequencyChange></FrequencyChanges></Clock>\n",KW_Experiment5A-6-1,59.947,1.0.0.105,2,296847084,Professional,2.0.10.353,2.0.10.353,10/8/2018,10/8/2018 17:57,13:57:38,2.0.10.248,3,2,1,3,,,,,,,,TrainingProc,BlockList,22,1,Distractor2.bmp,2,0,,0,1,385873,400,,0,0,red,400,1,400,1,vertical,red,Distractor1.bmp,blue,Distractor1.bmp,purple,Distractor1.bmp,lime,Target1.bmp,cyan,Distractor2.bmp,yellow,Distractor1.bmp,,,,TrialProc,,TrainingTrialList,1,1,-999999,0,386273,0,1,594,386867,Target1.bmp,lime,1,,,,4,4,70
KW_Experiment5A,6,1,"<?xml version=""1.0""?>\n<Clock xmlns:dt=""urn:schemas-microsoft-com:datatypes""><Description dt:dt=""string"">E-Prime Primary Realtime Clock</Description><StartTime><Timestamp dt:dt=""int"">0</Timestamp><DateUtc dt:dt=""string"">2018-10-08T17:57:38Z</DateUtc></StartTime><FrequencyChanges><FrequencyChange><Frequency dt:dt=""r8"">3215292</Frequency><Timestamp dt:dt=""r8"">3358960655865</Timestamp><Current dt:dt=""r8"">0</Current><DateUtc dt:dt=""string"">2018-10-08T17:57:38Z</DateUtc></FrequencyChange></FrequencyChanges></Clock>\n",KW_Experiment5A-6-1,59.947,1.0.0.105,2,296847084,Professional,2.0.10.353,2.0.10.353,10/8/2018,10/8/2018 17:57,13:57:38,2.0.10.248,3,2,1,3,,,,,,,,TrainingProc,BlockList,23,1,Distractor2.bmp,2,0,,0,1,387891,601,,0,0,yellow,600,3,600,,vertical,yellow,Distractor2.bmp,red,Target1.bmp,cyan,Distractor2.bmp,purple,Distractor2.bmp,lime,Distractor1.bmp,blue,Distractor1.bmp,,,,TrialProc,2,TrainingTrialList,1,1,-999999,1,388492,0,1,695,389187,Target1.bmp,red,1,,,,8,4,71
KW_Experiment5A,6,1,"<?xml version=""1.0""?>\n<Clock xmlns:dt=""urn:schemas-microsoft-com:datatypes""><Description dt:dt=""string"">E-Prime Primary Realtime Clock</Description><StartTime><Timestamp dt:dt=""int"">0</Timestamp><DateUtc dt:dt=""string"">2018-10-08T17:57:38Z</DateUtc></StartTime><FrequencyChanges><FrequencyChange><Frequency dt:dt=""r8"">3215292</Frequency><Timestamp dt:dt=""r8"">3358960655865</Timestamp><Current dt:dt=""r8"">0</Current><DateUtc dt:dt=""string"">2018-10-08T17:57:38Z</DateUtc></FrequencyChange></FrequencyChanges></Clock>\n",KW_Experiment5A-6-1,59.947,1.0.0.105,2,296847084,Professional,2.0.10.353,2.0.10.353,10/8/2018,10/8/2018 17:57,13:57:38,2.0.10.248,3,2,1,3,,,,,,,,TrainingProc,BlockList,24,1,Distractor1.bmp,1,0,,0,1,390210,400,,0,0,cyan,400,1,400,,vertical,cyan,Distractor1.bmp,purple,Distractor1.bmp,lime,Distractor1.bmp,blue,Distractor2.bmp,red,Target1.bmp,yellow,Distractor1.bmp,,,,TrialProc,4,TrainingTrialList,1,1,-999999,0,390610,0,1,473,391083,Target1.bmp,red,1,,,,11,4,72
KW_Experiment5A,6,1,"<?xml version=""1.0""?>\n<Clock xmlns:dt=""urn:schemas-microsoft-com:datatypes""><Description dt:dt=""string"">E-Prime Primary Realtime Clock</Description><StartTime><Timestamp dt:dt=""int"">0</Timestamp><DateUtc dt:dt=""string"">2018-10-08T17:57:38Z</DateUtc></StartTime><FrequencyChanges><FrequencyChange><Frequency dt:dt=""r8"">3215292</Frequency><Timestamp dt:dt=""r8"">3358960655865</Timestamp><Current dt:dt=""r8"">0</Current><DateUtc dt:dt=""string"">2018-10-08T17:57:38Z</DateUtc></FrequencyChange></FrequencyChanges></Clock>\n",KW_Experiment5A-6-1,59.947,1.0.0.105,2,296847084,Professional,2.0.10.353,2.0.10.353,10/8/2018,10/8/2018 17:57,13:57:38,2.0.10.248,3,2,1,3,,,,,,,,TrainingProc,BlockList,25,2,Distractor2.bmp,2,0,,0,1,392095,400,,0,0,cyan,400,1,400,4,horizontal,cyan,Distractor1.bmp,red,Distractor2.bmp,yellow,Distractor2.bmp,purple,Distractor1.bmp,lime,Target2.bmp,blue,Distractor2.bmp,,,,TrialProc,,TrainingTrialList,1,2,-999999,0,392495,0,2,716,393211,Target2.bmp,lime,2,,,,5,5,73
KW_Experiment5A,6,1,"<?xml version=""1.0""?>\n<Clock xmlns:dt=""urn:schemas-microsoft-com:datatypes""><Description dt:dt=""string"">E-Prime Primary Realtime Clock</Description><StartTime><Timestamp dt:dt=""int"">0</Timestamp><DateUtc dt:dt=""string"">2018-10-08T17:57:38Z</DateUtc></StartTime><FrequencyChanges><FrequencyChange><Frequency dt:dt=""r8"">3215292</Frequency><Timestamp dt:dt=""r8"">3358960655865</Timestamp><Current dt:dt=""r8"">0</Current><DateUtc dt:dt=""string"">2018-10-08T17:57:38Z</DateUtc></FrequencyChange></FrequencyChanges></Clock>\n",KW_Experiment5A-6-1,59.947,1.0.0.105,2,296847084,Professional,2.0.10.353,2.0.10.353,10/8/2018,10/8/2018 17:57,13:57:38,2.0.10.248,3,2,1,3,,,,,,,,TrainingProc,BlockList,26,1,Distractor1.bmp,1,0,,0,1,394230,401,,0,0,cyan,400,1,400,,vertical,cyan,Distractor1.bmp,yellow,Distractor2.bmp,red,Target1.bmp,lime,Distractor1.bmp,blue,Distractor2.bmp,purple,Distractor1.bmp,,,,TrialProc,4,TrainingTrialList,1,1,-999999,1,394631,0,1,612,395243,Target1.bmp,red,1,,,,9,5,74
KW_Experiment5A,6,1,"<?xml version=""1.0""?>\n<Clock xmlns:dt=""urn:schemas-microsoft-com:datatypes""><Description dt:dt=""string"">E-Prime Primary Realtime Clock</Description><StartTime><Timestamp dt:dt=""int"">0</Timestamp><DateUtc dt:dt=""string"">2018-10-08T17:57:38Z</DateUtc></StartTime><FrequencyChanges><FrequencyChange><Frequency dt:dt=""r8"">3215292</Frequency><Timestamp dt:dt=""r8"">3358960655865</Timestamp><Current dt:dt=""r8"">0</Current><DateUtc dt:dt=""string"">2018-10-08T17:57:38Z</DateUtc></FrequencyChange></FrequencyChanges></Clock>\n",KW_Experiment5A-6-1,59.947,1.0.0.105,2,296847084,Professional,2.0.10.353,2.0.10.353,10/8/2018,10/8/2018 17:57,13:57:38,2.0.10.248,3,2,1,3,,,,,,,,TrainingProc,BlockList,27,1,Distractor1.bmp,1,0,,0,0,396265,401,,0,0,yellow,400,1,400,,vertical,yellow,Distractor2.bmp,red,Target1.bmp,purple,Distractor1.bmp,cyan,Distractor2.bmp,lime,Distractor2.bmp,blue,Distractor2.bmp,,,,TrialProc,2,TrainingTrialList,1,1,-999999,1,396666,0,1,593,397259,Target1.bmp,red,1,,,,8,5,75
KW_Experiment5A,6,1,"<?xml version=""1.0""?>\n<Clock xmlns:dt=""urn:schemas-microsoft-com:datatypes""><Description dt:dt=""string"">E-Prime Primary Realtime Clock</Description><StartTime><Timestamp dt:dt=""int"">0</Timestamp><DateUtc dt:dt=""string"">2018-10-08T17:57:38Z</DateUtc></StartTime><FrequencyChanges><FrequencyChange><Frequency dt:dt=""r8"">3215292</Frequency><Timestamp dt:dt=""r8"">3358960655865</Timestamp><Current dt:dt=""r8"">0</Current><DateUtc dt:dt=""string"">2018-10-08T17:57:38Z</DateUtc></FrequencyChange></FrequencyChanges></Clock>\n",KW_Experiment5A-6-1,59.947,1.0.0.105,2,296847084,Professional,2.0.10.353,2.0.10.353,10/8/2018,10/8/2018 17:57,13:57:38,2.0.10.248,3,2,1,3,,,,,,,,TrainingProc,BlockList,28,1,Distractor1.bmp,1,0,,0,1,398284,400,,0,0,cyan,400,1,400,,vertical,cyan,Distractor1.bmp,lime,Distractor1.bmp,purple,Distractor1.bmp,blue,Distractor1.bmp,yellow,Distractor2.bmp,red,Target1.bmp,,,,TrialProc,4,TrainingTrialList,1,1,-999999,0,398684,0,1,983,399667,Target1.bmp,red,1,,,,12,5,76
KW_Experiment5A,6,1,"<?xml version=""1.0""?>\n<Clock xmlns:dt=""urn:schemas-microsoft-com:datatypes""><Description dt:dt=""string"">E-Prime Primary Realtime Clock</Description><StartTime><Timestamp dt:dt=""int"">0</Timestamp><DateUtc dt:dt=""string"">2018-10-08T17:57:38Z</DateUtc></StartTime><FrequencyChanges><FrequencyChange><Frequency dt:dt=""r8"">3215292</Frequency><Timestamp dt:dt=""r8"">3358960655865</Timestamp><Current dt:dt=""r8"">0</Current><DateUtc dt:dt=""string"">2018-10-08T17:57:38Z</DateUtc></FrequencyChange></FrequencyChanges></Clock>\n",KW_Experiment5A-6-1,59.947,1.0.0.105,2,296847084,Professional,2.0.10.353,2.0.10.353,10/8/2018,10/8/2018 17:57,13:57:38,2.0.10.248,3,2,1,3,,,,,,,,TrainingProc,BlockList,29,1,Distractor2.bmp,2,0,,0,1,400686,601,,0,0,purple,600,3,600,5,vertical,purple,Distractor2.bmp,red,Distractor2.bmp,blue,Distractor1.bmp,cyan,Distractor2.bmp,yellow,Distractor2.bmp,lime,Target1.bmp,,,,TrialProc,,TrainingTrialList,1,1,-999999,1,401287,0,1,484,401771,Target1.bmp,lime,1,,,,6,5,77
KW_Experiment5A,6,1,"<?xml version=""1.0""?>\n<Clock xmlns:dt=""urn:schemas-microsoft-com:datatypes""><Description dt:dt=""string"">E-Prime Primary Realtime Clock</Description><StartTime><Timestamp dt:dt=""int"">0</Timestamp><DateUtc dt:dt=""string"">2018-10-08T17:57:38Z</DateUtc></StartTime><FrequencyChanges><FrequencyChange><Frequency dt:dt=""r8"">3215292</Frequency><Timestamp dt:dt=""r8"">3358960655865</Timestamp><Current dt:dt=""r8"">0</Current><DateUtc dt:dt=""string"">2018-10-08T17:57:38Z</DateUtc></FrequencyChange></FrequencyChanges></Clock>\n",KW_Experiment5A-6-1,59.947,1.0.0.105,2,296847084,Professional,2.0.10.353,2.0.10.353,10/8/2018,10/8/2018 17:57,13:57:38,2.0.10.248,3,2,1,3,,,,,,,,TrainingProc,BlockList,30,2,Distractor1.bmp,1,0,,0,1,402788,601,,0,0,red,600,3,600,1,horizontal,lime,Target2.bmp,red,Distractor1.bmp,blue,Distractor2.bmp,yellow,Distractor1.bmp,purple,Distractor1.bmp,cyan,Distractor2.bmp,,,,TrialProc,,TrainingTrialList,1,2,-999999,1,403389,0,2,686,404075,Target2.bmp,lime,2,,,,1,5,78
KW_Experiment5A,6,1,"<?xml version=""1.0""?>\n<Clock xmlns:dt=""urn:schemas-microsoft-com:datatypes""><Description dt:dt=""string"">E-Prime Primary Realtime Clock</Description><StartTime><Timestamp dt:dt=""int"">0</Timestamp><DateUtc dt:dt=""string"">2018-10-08T17:57:38Z</DateUtc></StartTime><FrequencyChanges><FrequencyChange><Frequency dt:dt=""r8"">3215292</Frequency><Timestamp dt:dt=""r8"">3358960655865</Timestamp><Current dt:dt=""r8"">0</Current><DateUtc dt:dt=""string"">2018-10-08T17:57:38Z</DateUtc></FrequencyChange></FrequencyChanges></Clock>\n",KW_Experiment5A-6-1,59.947,1.0.0.105,2,296847084,Professional,2.0.10.353,2.0.10.353,10/8/2018,10/8/2018 17:57,13:57:38,2.0.10.248,3,2,1,3,,,,,,,,TrainingProc,BlockList,31,2,Distractor2.bmp,2,0,,0,1,405090,501,,0,0,purple,500,2,500,,horizontal,purple,Distractor2.bmp,blue,Distractor2.bmp,red,Target2.bmp,lime,Distractor2.bmp,yellow,Distractor2.bmp,cyan,Distractor2.bmp,,,,TrialProc,5,TrainingTrialList,1,2,-999999,1,405591,0,2,652,406243,Target2.bmp,red,2,,,,9,5,79
KW_Experiment5A,6,1,"<?xml version=""1.0""?>\n<Clock xmlns:dt=""urn:schemas-microsoft-com:datatypes""><Description dt:dt=""string"">E-Prime Primary Realtime Clock</Description><StartTime><Timestamp dt:dt=""int"">0</Timestamp><DateUtc dt:dt=""string"">2018-10-08T17:57:38Z</DateUtc></StartTime><FrequencyChanges><FrequencyChange><Frequency dt:dt=""r8"">3215292</Frequency><Timestamp dt:dt=""r8"">3358960655865</Timestamp><Current dt:dt=""r8"">0</Current><DateUtc dt:dt=""string"">2018-10-08T17:57:38Z</DateUtc></FrequencyChange></FrequencyChanges></Clock>\n",KW_Experiment5A-6-1,59.947,1.0.0.105,2,296847084,Professional,2.0.10.353,2.0.10.353,10/8/2018,10/8/2018 17:57,13:57:38,2.0.10.248,3,2,1,3,,,,,,,,TrainingProc,BlockList,32,2,Distractor2.bmp,2,0,,0,1,407259,600,,0,0,blue,600,3,600,,horizontal,blue,Distractor1.bmp,yellow,Distractor1.bmp,cyan,Distractor2.bmp,lime,Distractor2.bmp,red,Target2.bmp,purple,Distractor2.bmp,,,,TrialProc,3,TrainingTrialList,1,2,-999999,0,407859,0,2,616,408475,Target2.bmp,red,2,,,,11,5,80
KW_Experiment5A,6,1,"<?xml version=""1.0""?>\n<Clock xmlns:dt=""urn:schemas-microsoft-com:datatypes""><Description dt:dt=""string"">E-Prime Primary Realtime Clock</Description><StartTime><Timestamp dt:dt=""int"">0</Timestamp><DateUtc dt:dt=""string"">2018-10-08T17:57:38Z</DateUtc></StartTime><FrequencyChanges><FrequencyChange><Frequency dt:dt=""r8"">3215292</Frequency><Timestamp dt:dt=""r8"">3358960655865</Timestamp><Current dt:dt=""r8"">0</Current><DateUtc dt:dt=""string"">2018-10-08T17:57:38Z</DateUtc></FrequencyChange></FrequencyChanges></Clock>\n",KW_Experiment5A-6-1,59.947,1.0.0.105,2,296847084,Professional,2.0.10.353,2.0.10.353,10/8/2018,10/8/2018 17:57,13:57:38,2.0.10.248,3,2,1,3,,,,,,,,TrainingProc,BlockList,33,1,Distractor1.bmp,1,0,,0,1,409494,501,,0,0,cyan,500,2,500,,vertical,cyan,Distractor1.bmp,yellow,Distractor1.bmp,blue,Distractor1.bmp,lime,Distractor2.bmp,purple,Distractor2.bmp,red,Target1.bmp,,,,TrialProc,4,TrainingTrialList,1,1,-999999,1,409995,0,1,600,410595,Target1.bmp,red,1,,,,12,5,81
KW_Experiment5A,6,1,"<?xml version=""1.0""?>\n<Clock xmlns:dt=""urn:schemas-microsoft-com:datatypes""><Description dt:dt=""string"">E-Prime Primary Realtime Clock</Description><StartTime><Timestamp dt:dt=""int"">0</Timestamp><DateUtc dt:dt=""string"">2018-10-08T17:57:38Z</DateUtc></StartTime><FrequencyChanges><FrequencyChange><Frequency dt:dt=""r8"">3215292</Frequency><Timestamp dt:dt=""r8"">3358960655865</Timestamp><Current dt:dt=""r8"">0</Current><DateUtc dt:dt=""string"">2018-10-08T17:57:38Z</DateUtc></FrequencyChange></FrequencyChanges></Clock>\n",KW_Experiment5A-6-1,59.947,1.0.0.105,2,296847084,Professional,2.0.10.353,2.0.10.353,10/8/2018,10/8/2018 17:57,13:57:38,2.0.10.248,3,2,1,3,,,,,,,,TrainingProc,BlockList,34,2,Distractor1.bmp,1,0,,0,1,411613,500,,0,0,yellow,500,2,500,,horizontal,yellow,Distractor1.bmp,blue,Distractor2.bmp,red,Target2.bmp,lime,Distractor1.bmp,cyan,Distractor1.bmp,purple,Distractor1.bmp,,,,TrialProc,2,TrainingTrialList,1,2,-999999,0,412113,0,2,434,412547,Target2.bmp,red,2,,,,9,5,82
KW_Experiment5A,6,1,"<?xml version=""1.0""?>\n<Clock xmlns:dt=""urn:schemas-microsoft-com:datatypes""><Description dt:dt=""string"">E-Prime Primary Realtime Clock</Description><StartTime><Timestamp dt:dt=""int"">0</Timestamp><DateUtc dt:dt=""string"">2018-10-08T17:57:38Z</DateUtc></StartTime><FrequencyChanges><FrequencyChange><Frequency dt:dt=""r8"">3215292</Frequency><Timestamp dt:dt=""r8"">3358960655865</Timestamp><Current dt:dt=""r8"">0</Current><DateUtc dt:dt=""string"">2018-10-08T17:57:38Z</DateUtc></FrequencyChange></FrequencyChanges></Clock>\n",KW_Experiment5A-6-1,59.947,1.0.0.105,2,296847084,Professional,2.0.10.353,2.0.10.353,10/8/2018,10/8/2018 17:57,13:57:38,2.0.10.248,3,2,1,3,,,,,,,,TrainingProc,BlockList,35,1,Distractor1.bmp,1,0,,1,0,413564,601,,0,0,yellow,600,3,600,,vertical,yellow,Distractor1.bmp,cyan,Distractor1.bmp,purple,Distractor1.bmp,red,Target1.bmp,lime,Distractor1.bmp,blue,Distractor1.bmp,,,,TrialProc,2,TrainingTrialList,1,1,-999999,1,414165,0,1,1022,415187,Target1.bmp,red,1,,,,10,5,83
KW_Experiment5A,6,1,"<?xml version=""1.0""?>\n<Clock xmlns:dt=""urn:schemas-microsoft-com:datatypes""><Description dt:dt=""string"">E-Prime Primary Realtime Clock</Description><StartTime><Timestamp dt:dt=""int"">0</Timestamp><DateUtc dt:dt=""string"">2018-10-08T17:57:38Z</DateUtc></StartTime><FrequencyChanges><FrequencyChange><Frequency dt:dt=""r8"">3215292</Frequency><Timestamp dt:dt=""r8"">3358960655865</Timestamp><Current dt:dt=""r8"">0</Current><DateUtc dt:dt=""string"">2018-10-08T17:57:38Z</DateUtc></FrequencyChange></FrequencyChanges></Clock>\n",KW_Experiment5A-6-1,59.947,1.0.0.105,2,296847084,Professional,2.0.10.353,2.0.10.353,10/8/2018,10/8/2018 17:57,13:57:38,2.0.10.248,3,2,1,3,,,,,,,,TrainingProc,BlockList,36,1,Distractor2.bmp,2,0,,0,1,416200,501,,0,0,purple,500,2,500,,vertical,purple,Distractor2.bmp,lime,Distractor1.bmp,cyan,Distractor1.bmp,yellow,Distractor1.bmp,blue,Distractor1.bmp,red,Target1.bmp,,,,TrialProc,5,TrainingTrialList,1,1,-999999,1,416701,0,1,925,417626,Target1.bmp,red,1,,,,12,5,84
KW_Experiment5A,6,1,"<?xml version=""1.0""?>\n<Clock xmlns:dt=""urn:schemas-microsoft-com:datatypes""><Description dt:dt=""string"">E-Prime Primary Realtime Clock</Description><StartTime><Timestamp dt:dt=""int"">0</Timestamp><DateUtc dt:dt=""string"">2018-10-08T17:57:38Z</DateUtc></StartTime><FrequencyChanges><FrequencyChange><Frequency dt:dt=""r8"">3215292</Frequency><Timestamp dt:dt=""r8"">3358960655865</Timestamp><Current dt:dt=""r8"">0</Current><DateUtc dt:dt=""string"">2018-10-08T17:57:38Z</DateUtc></FrequencyChange></FrequencyChanges></Clock>\n",KW_Experiment5A-6-1,59.947,1.0.0.105,2,296847084,Professional,2.0.10.353,2.0.10.353,10/8/2018,10/8/2018 17:57,13:57:38,2.0.10.248,3,2,1,3,,,,,,,,TrainingProc,BlockList,37,2,Distractor2.bmp,2,0,,1,0,418652,601,,0,0,yellow,600,3,600,,horizontal,yellow,Distractor2.bmp,red,Target2.bmp,purple,Distractor2.bmp,blue,Distractor1.bmp,cyan,Distractor2.bmp,lime,Distractor2.bmp,,,,TrialProc,2,TrainingTrialList,1,2,-999999,1,419253,0,2,469,419722,Target2.bmp,red,2,,,,8,5,85
KW_Experiment5A,6,1,"<?xml version=""1.0""?>\n<Clock xmlns:dt=""urn:schemas-microsoft-com:datatypes""><Description dt:dt=""string"">E-Prime Primary Realtime Clock</Description><StartTime><Timestamp dt:dt=""int"">0</Timestamp><DateUtc dt:dt=""string"">2018-10-08T17:57:38Z</DateUtc></StartTime><FrequencyChanges><FrequencyChange><Frequency dt:dt=""r8"">3215292</Frequency><Timestamp dt:dt=""r8"">3358960655865</Timestamp><Current dt:dt=""r8"">0</Current><DateUtc dt:dt=""string"">2018-10-08T17:57:38Z</DateUtc></FrequencyChange></FrequencyChanges></Clock>\n",KW_Experiment5A-6-1,59.947,1.0.0.105,2,296847084,Professional,2.0.10.353,2.0.10.353,10/8/2018,10/8/2018 17:57,13:57:38,2.0.10.248,3,2,1,3,,,,,,,,TrainingProc,BlockList,38,2,Distractor2.bmp,2,0,,0,1,420738,500,,0,0,yellow,500,2,500,,horizontal,yellow,Distractor1.bmp,lime,Distractor1.bmp,purple,Distractor1.bmp,blue,Distractor2.bmp,red,Target2.bmp,cyan,Distractor2.bmp,,,,TrialProc,2,TrainingTrialList,1,2,-999999,0,421238,0,2,564,421802,Target2.bmp,red,2,,,,11,5,86
KW_Experiment5A,6,1,"<?xml version=""1.0""?>\n<Clock xmlns:dt=""urn:schemas-microsoft-com:datatypes""><Description dt:dt=""string"">E-Prime Primary Realtime Clock</Description><StartTime><Timestamp dt:dt=""int"">0</Timestamp><DateUtc dt:dt=""string"">2018-10-08T17:57:38Z</DateUtc></StartTime><FrequencyChanges><FrequencyChange><Frequency dt:dt=""r8"">3215292</Frequency><Timestamp dt:dt=""r8"">3358960655865</Timestamp><Current dt:dt=""r8"">0</Current><DateUtc dt:dt=""string"">2018-10-08T17:57:38Z</DateUtc></FrequencyChange></FrequencyChanges></Clock>\n",KW_Experiment5A-6-1,59.947,1.0.0.105,2,296847084,Professional,2.0.10.353,2.0.10.353,10/8/2018,10/8/2018 17:57,13:57:38,2.0.10.248,3,2,1,3,,,,,,,,TrainingProc,BlockList,39,2,Distractor1.bmp,1,0,,0,1,422823,600,,0,0,cyan,600,3,600,,horizontal,red,Target2.bmp,purple,Distractor1.bmp,lime,Distractor2.bmp,yellow,Distractor1.bmp,blue,Distractor2.bmp,cyan,Distractor2.bmp,,,,TrialProc,4,TrainingTrialList,1,2,-999999,0,423423,0,2,859,424282,Target2.bmp,red,2,,,,7,5,87
KW_Experiment5A,6,1,"<?xml version=""1.0""?>\n<Clock xmlns:dt=""urn:schemas-microsoft-com:datatypes""><Description dt:dt=""string"">E-Prime Primary Realtime Clock</Description><StartTime><Timestamp dt:dt=""int"">0</Timestamp><DateUtc dt:dt=""string"">2018-10-08T17:57:38Z</DateUtc></StartTime><FrequencyChanges><FrequencyChange><Frequency dt:dt=""r8"">3215292</Frequency><Timestamp dt:dt=""r8"">3358960655865</Timestamp><Current dt:dt=""r8"">0</Current><DateUtc dt:dt=""string"">2018-10-08T17:57:38Z</DateUtc></FrequencyChange></FrequencyChanges></Clock>\n",KW_Experiment5A-6-1,59.947,1.0.0.105,2,296847084,Professional,2.0.10.353,2.0.10.353,10/8/2018,10/8/2018 17:57,13:57:38,2.0.10.248,3,2,1,3,,,,,,,,TrainingProc,BlockList,40,2,Distractor1.bmp,1,0,,1,0,425308,601,,0,0,purple,600,3,600,,horizontal,purple,Distractor1.bmp,cyan,Distractor1.bmp,lime,Distractor1.bmp,blue,Distractor1.bmp,red,Target2.bmp,yellow,Distractor1.bmp,,,,TrialProc,5,TrainingTrialList,1,2,-999999,1,425909,0,2,597,426506,Target2.bmp,red,2,,,,11,5,88
KW_Experiment5A,6,1,"<?xml version=""1.0""?>\n<Clock xmlns:dt=""urn:schemas-microsoft-com:datatypes""><Description dt:dt=""string"">E-Prime Primary Realtime Clock</Description><StartTime><Timestamp dt:dt=""int"">0</Timestamp><DateUtc dt:dt=""string"">2018-10-08T17:57:38Z</DateUtc></StartTime><FrequencyChanges><FrequencyChange><Frequency dt:dt=""r8"">3215292</Frequency><Timestamp dt:dt=""r8"">3358960655865</Timestamp><Current dt:dt=""r8"">0</Current><DateUtc dt:dt=""string"">2018-10-08T17:57:38Z</DateUtc></FrequencyChange></FrequencyChanges></Clock>\n",KW_Experiment5A-6-1,59.947,1.0.0.105,2,296847084,Professional,2.0.10.353,2.0.10.353,10/8/2018,10/8/2018 17:57,13:57:38,2.0.10.248,3,2,1,3,,,,,,,,TrainingProc,BlockList,41,2,Distractor1.bmp,1,0,,0,1,427527,601,,0,0,cyan,600,3,600,4,horizontal,cyan,Distractor2.bmp,lime,Target2.bmp,red,Distractor1.bmp,purple,Distractor1.bmp,blue,Distractor2.bmp,yellow,Distractor1.bmp,,,,TrialProc,,TrainingTrialList,1,2,-999999,1,428128,0,2,570,428698,Target2.bmp,lime,2,,,,2,5,89
KW_Experiment5A,6,1,"<?xml version=""1.0""?>\n<Clock xmlns:dt=""urn:schemas-microsoft-com:datatypes""><Description dt:dt=""string"">E-Prime Primary Realtime Clock</Description><StartTime><Timestamp dt:dt=""int"">0</Timestamp><DateUtc dt:dt=""string"">2018-10-08T17:57:38Z</DateUtc></StartTime><FrequencyChanges><FrequencyChange><Frequency dt:dt=""r8"">3215292</Frequency><Timestamp dt:dt=""r8"">3358960655865</Timestamp><Current dt:dt=""r8"">0</Current><DateUtc dt:dt=""string"">2018-10-08T17:57:38Z</DateUtc></FrequencyChange></FrequencyChanges></Clock>\n",KW_Experiment5A-6-1,59.947,1.0.0.105,2,296847084,Professional,2.0.10.353,2.0.10.353,10/8/2018,10/8/2018 17:57,13:57:38,2.0.10.248,3,2,1,3,,,,,,,,TrainingProc,BlockList,42,2,Distractor2.bmp,2,0,,0,1,429713,500,,0,0,blue,500,2,500,3,horizontal,blue,Distractor1.bmp,cyan,Distractor2.bmp,purple,Distractor2.bmp,lime,Target2.bmp,red,Distractor2.bmp,yellow,Distractor2.bmp,,,,TrialProc,,TrainingTrialList,1,2,-999999,0,430213,0,2,901,431114,Target2.bmp,lime,2,,,,4,5,90
