ExperimentName,Subject,Session,Clock.Information,DataFile.Basename,Display.RefreshRate,ExperimentVersion,Group,RandomSeed,RuntimeCapabilities,RuntimeVersion,RuntimeVersionExpected,SessionDate,SessionStartDateTimeUtc,SessionTime,StudioVersion,Block,BlockList,BlockList.Cycle,BlockList.Sample,PostTestQ1.RESP,PostTestQ1CJ.RESP,PostTestQ2.RESP,PostTestQ2CJ.RESP,PostTestQ3.RESP,PostTestQ3CJ.RESP,PostTestSlide.RESP,Procedure[Block],Running[Block],Trial,CorrectResponse,Distractor,DistractorList,Fixation.ACC,Fixation.CRESP,Fixation.DurationError,Fixation.OnsetDelay,Fixation.OnsetTime,Fixation.OnsetToOnsetTime,Fixation.RESP,Fixation.RT,Fixation.RTTime,ItemColor,Jitter,JitterList,JitterTime,Lime0List,Orientation,Pos1Color,Pos1Item,Pos2Color,Pos2Item,Pos3Color,Pos3Item,Pos4Color,Pos4Item,Pos5Color,Pos5Item,Pos6Color,Pos6Item,PracticeTrialList,PracticeTrialList.Cycle,PracticeTrialList.Sample,Procedure[Trial],Red0List,Running[Trial],Stimulus.ACC,Stimulus.CRESP,Stimulus.DurationError,Stimulus.OnsetDelay,Stimulus.OnsetTime,Stimulus.OnsetToOnsetTime,Stimulus.RESP,Stimulus.RT,Stimulus.RTTime,Target,TargetColor,TargetList,TestTrialList,TestTrialList.Cycle,TestTrialList.Sample,TrainingTrialList,TrainingTrialList.Cycle,TrainingTrialList.Sample
KW_Experiment5A,46,1,"<?xml version=""1.0""?>\n<Clock xmlns:dt=""urn:schemas-microsoft-com:datatypes""><Description dt:dt=""string"">E-Prime Primary Realtime Clock</Description><StartTime><Timestamp dt:dt=""int"">0</Timestamp><DateUtc dt:dt=""string"">2018-10-25T20:20:21Z</DateUtc></StartTime><FrequencyChanges><FrequencyChange><Frequency dt:dt=""r8"">3215273</Frequency><Timestamp dt:dt=""r8"">1613894523851</Timestamp><Current dt:dt=""r8"">0</Current><DateUtc dt:dt=""string"">2018-10-25T20:20:21Z</DateUtc></FrequencyChange></FrequencyChanges></Clock>\n",KW_Experiment5A-46-1,59.945,1.0.0.105,1,-1012567885,Professional,2.0.10.353,2.0.10.353,10/25/2018,10/25/2018 20:20,16:20:21,2.0.10.248,1,1,1,1,,,,,,,,PracticeProc,BlockList,1,2,Distractor1.bmp,1,0,,0,46,138558,501,,0,0,blue,500,2,500,3,horizontal,yellow,Distractor1.bmp,red,Distractor2.bmp,cyan,Distractor1.bmp,blue,Distractor1.bmp,lime,Target2.bmp,purple,Distractor1.bmp,5,1,1,TrialProc,,PracticeTrialList,1,2,-999999,1,139059,0,2,3301,142360,Target2.bmp,lime,2,,,,,,
KW_Experiment5A,46,1,"<?xml version=""1.0""?>\n<Clock xmlns:dt=""urn:schemas-microsoft-com:datatypes""><Description dt:dt=""string"">E-Prime Primary Realtime Clock</Description><StartTime><Timestamp dt:dt=""int"">0</Timestamp><DateUtc dt:dt=""string"">2018-10-25T20:20:21Z</DateUtc></StartTime><FrequencyChanges><FrequencyChange><Frequency dt:dt=""r8"">3215273</Frequency><Timestamp dt:dt=""r8"">1613894523851</Timestamp><Current dt:dt=""r8"">0</Current><DateUtc dt:dt=""string"">2018-10-25T20:20:21Z</DateUtc></FrequencyChange></FrequencyChanges></Clock>\n",KW_Experiment5A-46-1,59.945,1.0.0.105,1,-1012567885,Professional,2.0.10.353,2.0.10.353,10/25/2018,10/25/2018 20:20,16:20:21,2.0.10.248,1,1,1,1,,,,,,,,PracticeProc,BlockList,2,1,Distractor1.bmp,1,0,,0,0,143379,601,,0,0,purple,600,3,600,,vertical,purple,Distractor2.bmp,red,Target1.bmp,lime,Distractor1.bmp,yellow,Distractor2.bmp,blue,Distractor1.bmp,cyan,Distractor1.bmp,2,1,2,TrialProc,5,PracticeTrialList,1,1,-999999,1,143980,0,1,1068,145048,Target1.bmp,red,1,,,,,,
KW_Experiment5A,46,1,"<?xml version=""1.0""?>\n<Clock xmlns:dt=""urn:schemas-microsoft-com:datatypes""><Description dt:dt=""string"">E-Prime Primary Realtime Clock</Description><StartTime><Timestamp dt:dt=""int"">0</Timestamp><DateUtc dt:dt=""string"">2018-10-25T20:20:21Z</DateUtc></StartTime><FrequencyChanges><FrequencyChange><Frequency dt:dt=""r8"">3215273</Frequency><Timestamp dt:dt=""r8"">1613894523851</Timestamp><Current dt:dt=""r8"">0</Current><DateUtc dt:dt=""string"">2018-10-25T20:20:21Z</DateUtc></FrequencyChange></FrequencyChanges></Clock>\n",KW_Experiment5A-46-1,59.945,1.0.0.105,1,-1012567885,Professional,2.0.10.353,2.0.10.353,10/25/2018,10/25/2018 20:20,16:20:21,2.0.10.248,1,1,1,1,,,,,,,,PracticeProc,BlockList,3,1,Distractor2.bmp,2,0,,0,1,146065,401,,0,0,purple,400,1,400,,vertical,cyan,Distractor2.bmp,lime,Distractor2.bmp,purple,Distractor1.bmp,red,Target1.bmp,blue,Distractor2.bmp,yellow,Distractor1.bmp,4,1,3,TrialProc,5,PracticeTrialList,1,1,-999999,1,146466,0,1,1406,147872,Target1.bmp,red,1,,,,,,
KW_Experiment5A,46,1,"<?xml version=""1.0""?>\n<Clock xmlns:dt=""urn:schemas-microsoft-com:datatypes""><Description dt:dt=""string"">E-Prime Primary Realtime Clock</Description><StartTime><Timestamp dt:dt=""int"">0</Timestamp><DateUtc dt:dt=""string"">2018-10-25T20:20:21Z</DateUtc></StartTime><FrequencyChanges><FrequencyChange><Frequency dt:dt=""r8"">3215273</Frequency><Timestamp dt:dt=""r8"">1613894523851</Timestamp><Current dt:dt=""r8"">0</Current><DateUtc dt:dt=""string"">2018-10-25T20:20:21Z</DateUtc></FrequencyChange></FrequencyChanges></Clock>\n",KW_Experiment5A-46-1,59.945,1.0.0.105,1,-1012567885,Professional,2.0.10.353,2.0.10.353,10/25/2018,10/25/2018 20:20,16:20:21,2.0.10.248,1,1,1,1,,,,,,,,PracticeProc,BlockList,4,2,Distractor2.bmp,2,0,,1,0,148884,401,,0,0,yellow,400,1,400,,horizontal,lime,Distractor2.bmp,blue,Distractor2.bmp,cyan,Distractor2.bmp,purple,Distractor2.bmp,yellow,Distractor1.bmp,red,Target2.bmp,6,1,4,TrialProc,2,PracticeTrialList,1,2,-999999,1,149285,0,2,803,150088,Target2.bmp,red,2,,,,,,
KW_Experiment5A,46,1,"<?xml version=""1.0""?>\n<Clock xmlns:dt=""urn:schemas-microsoft-com:datatypes""><Description dt:dt=""string"">E-Prime Primary Realtime Clock</Description><StartTime><Timestamp dt:dt=""int"">0</Timestamp><DateUtc dt:dt=""string"">2018-10-25T20:20:21Z</DateUtc></StartTime><FrequencyChanges><FrequencyChange><Frequency dt:dt=""r8"">3215273</Frequency><Timestamp dt:dt=""r8"">1613894523851</Timestamp><Current dt:dt=""r8"">0</Current><DateUtc dt:dt=""string"">2018-10-25T20:20:21Z</DateUtc></FrequencyChange></FrequencyChanges></Clock>\n",KW_Experiment5A-46-1,59.945,1.0.0.105,1,-1012567885,Professional,2.0.10.353,2.0.10.353,10/25/2018,10/25/2018 20:20,16:20:21,2.0.10.248,1,1,1,1,,,,,,,,PracticeProc,BlockList,5,2,Distractor1.bmp,1,0,,0,1,151103,401,,0,0,red,400,1,400,1,horizontal,blue,Distractor1.bmp,red,Distractor2.bmp,lime,Target2.bmp,purple,Distractor1.bmp,yellow,Distractor1.bmp,cyan,Distractor1.bmp,3,1,5,TrialProc,,PracticeTrialList,1,2,-999999,1,151504,0,2,768,152272,Target2.bmp,lime,2,,,,,,
KW_Experiment5A,46,1,"<?xml version=""1.0""?>\n<Clock xmlns:dt=""urn:schemas-microsoft-com:datatypes""><Description dt:dt=""string"">E-Prime Primary Realtime Clock</Description><StartTime><Timestamp dt:dt=""int"">0</Timestamp><DateUtc dt:dt=""string"">2018-10-25T20:20:21Z</DateUtc></StartTime><FrequencyChanges><FrequencyChange><Frequency dt:dt=""r8"">3215273</Frequency><Timestamp dt:dt=""r8"">1613894523851</Timestamp><Current dt:dt=""r8"">0</Current><DateUtc dt:dt=""string"">2018-10-25T20:20:21Z</DateUtc></FrequencyChange></FrequencyChanges></Clock>\n",KW_Experiment5A-46-1,59.945,1.0.0.105,1,-1012567885,Professional,2.0.10.353,2.0.10.353,10/25/2018,10/25/2018 20:20,16:20:21,2.0.10.248,1,1,1,1,,,,,,,,PracticeProc,BlockList,6,1,Distractor1.bmp,1,0,,0,1,153289,400,,0,0,cyan,400,1,400,4,vertical,lime,Target1.bmp,red,Distractor1.bmp,yellow,Distractor2.bmp,blue,Distractor2.bmp,purple,Distractor2.bmp,cyan,Distractor2.bmp,1,1,6,TrialProc,,PracticeTrialList,1,1,-999999,0,153689,0,1,639,154328,Target1.bmp,lime,1,,,,,,
KW_Experiment5A,46,1,"<?xml version=""1.0""?>\n<Clock xmlns:dt=""urn:schemas-microsoft-com:datatypes""><Description dt:dt=""string"">E-Prime Primary Realtime Clock</Description><StartTime><Timestamp dt:dt=""int"">0</Timestamp><DateUtc dt:dt=""string"">2018-10-25T20:20:21Z</DateUtc></StartTime><FrequencyChanges><FrequencyChange><Frequency dt:dt=""r8"">3215273</Frequency><Timestamp dt:dt=""r8"">1613894523851</Timestamp><Current dt:dt=""r8"">0</Current><DateUtc dt:dt=""string"">2018-10-25T20:20:21Z</DateUtc></FrequencyChange></FrequencyChanges></Clock>\n",KW_Experiment5A-46-1,59.945,1.0.0.105,1,-1012567885,Professional,2.0.10.353,2.0.10.353,10/25/2018,10/25/2018 20:20,16:20:21,2.0.10.248,2,2,1,2,,,,,,,,TrainingProc,BlockList,1,2,Distractor2.bmp,2,0,,0,37,163348,500,,0,0,yellow,500,2,500,2,horizontal,lime,Target2.bmp,yellow,Distractor2.bmp,purple,Distractor2.bmp,red,Distractor1.bmp,cyan,Distractor1.bmp,blue,Distractor1.bmp,,,,TrialProc,,TrainingTrialList,1,2,-999999,0,163848,0,2,727,164575,Target2.bmp,lime,2,,,,1,1,1
KW_Experiment5A,46,1,"<?xml version=""1.0""?>\n<Clock xmlns:dt=""urn:schemas-microsoft-com:datatypes""><Description dt:dt=""string"">E-Prime Primary Realtime Clock</Description><StartTime><Timestamp dt:dt=""int"">0</Timestamp><DateUtc dt:dt=""string"">2018-10-25T20:20:21Z</DateUtc></StartTime><FrequencyChanges><FrequencyChange><Frequency dt:dt=""r8"">3215273</Frequency><Timestamp dt:dt=""r8"">1613894523851</Timestamp><Current dt:dt=""r8"">0</Current><DateUtc dt:dt=""string"">2018-10-25T20:20:21Z</DateUtc></FrequencyChange></FrequencyChanges></Clock>\n",KW_Experiment5A-46-1,59.945,1.0.0.105,1,-1012567885,Professional,2.0.10.353,2.0.10.353,10/25/2018,10/25/2018 20:20,16:20:21,2.0.10.248,2,2,1,2,,,,,,,,TrainingProc,BlockList,2,1,Distractor1.bmp,1,0,,0,1,165600,500,,0,0,blue,500,2,500,3,vertical,blue,Distractor1.bmp,red,Distractor1.bmp,purple,Distractor2.bmp,lime,Target1.bmp,yellow,Distractor1.bmp,cyan,Distractor2.bmp,,,,TrialProc,,TrainingTrialList,1,1,-999999,0,166100,0,1,851,166951,Target1.bmp,lime,1,,,,4,1,2
KW_Experiment5A,46,1,"<?xml version=""1.0""?>\n<Clock xmlns:dt=""urn:schemas-microsoft-com:datatypes""><Description dt:dt=""string"">E-Prime Primary Realtime Clock</Description><StartTime><Timestamp dt:dt=""int"">0</Timestamp><DateUtc dt:dt=""string"">2018-10-25T20:20:21Z</DateUtc></StartTime><FrequencyChanges><FrequencyChange><Frequency dt:dt=""r8"">3215273</Frequency><Timestamp dt:dt=""r8"">1613894523851</Timestamp><Current dt:dt=""r8"">0</Current><DateUtc dt:dt=""string"">2018-10-25T20:20:21Z</DateUtc></FrequencyChange></FrequencyChanges></Clock>\n",KW_Experiment5A-46-1,59.945,1.0.0.105,1,-1012567885,Professional,2.0.10.353,2.0.10.353,10/25/2018,10/25/2018 20:20,16:20:21,2.0.10.248,2,2,1,2,,,,,,,,TrainingProc,BlockList,3,1,Distractor1.bmp,1,0,,0,1,167969,500,,0,0,blue,500,2,500,3,vertical,blue,Distractor2.bmp,red,Distractor1.bmp,lime,Target1.bmp,purple,Distractor1.bmp,yellow,Distractor1.bmp,cyan,Distractor2.bmp,,,,TrialProc,,TrainingTrialList,1,1,-999999,0,168469,0,1,970,169439,Target1.bmp,lime,1,,,,3,1,3
KW_Experiment5A,46,1,"<?xml version=""1.0""?>\n<Clock xmlns:dt=""urn:schemas-microsoft-com:datatypes""><Description dt:dt=""string"">E-Prime Primary Realtime Clock</Description><StartTime><Timestamp dt:dt=""int"">0</Timestamp><DateUtc dt:dt=""string"">2018-10-25T20:20:21Z</DateUtc></StartTime><FrequencyChanges><FrequencyChange><Frequency dt:dt=""r8"">3215273</Frequency><Timestamp dt:dt=""r8"">1613894523851</Timestamp><Current dt:dt=""r8"">0</Current><DateUtc dt:dt=""string"">2018-10-25T20:20:21Z</DateUtc></FrequencyChange></FrequencyChanges></Clock>\n",KW_Experiment5A-46-1,59.945,1.0.0.105,1,-1012567885,Professional,2.0.10.353,2.0.10.353,10/25/2018,10/25/2018 20:20,16:20:21,2.0.10.248,2,2,1,2,,,,,,,,TrainingProc,BlockList,4,2,Distractor2.bmp,2,0,,0,1,170454,401,,0,0,purple,400,1,400,5,horizontal,purple,Distractor2.bmp,cyan,Distractor1.bmp,lime,Target2.bmp,blue,Distractor2.bmp,yellow,Distractor2.bmp,red,Distractor2.bmp,,,,TrialProc,,TrainingTrialList,1,2,-999999,1,170855,0,2,664,171519,Target2.bmp,lime,2,,,,3,1,4
KW_Experiment5A,46,1,"<?xml version=""1.0""?>\n<Clock xmlns:dt=""urn:schemas-microsoft-com:datatypes""><Description dt:dt=""string"">E-Prime Primary Realtime Clock</Description><StartTime><Timestamp dt:dt=""int"">0</Timestamp><DateUtc dt:dt=""string"">2018-10-25T20:20:21Z</DateUtc></StartTime><FrequencyChanges><FrequencyChange><Frequency dt:dt=""r8"">3215273</Frequency><Timestamp dt:dt=""r8"">1613894523851</Timestamp><Current dt:dt=""r8"">0</Current><DateUtc dt:dt=""string"">2018-10-25T20:20:21Z</DateUtc></FrequencyChange></FrequencyChanges></Clock>\n",KW_Experiment5A-46-1,59.945,1.0.0.105,1,-1012567885,Professional,2.0.10.353,2.0.10.353,10/25/2018,10/25/2018 20:20,16:20:21,2.0.10.248,2,2,1,2,,,,,,,,TrainingProc,BlockList,5,1,Distractor1.bmp,1,0,,1,1,172539,501,,0,0,yellow,500,2,500,2,vertical,yellow,Distractor1.bmp,lime,Target1.bmp,cyan,Distractor1.bmp,purple,Distractor2.bmp,red,Distractor1.bmp,blue,Distractor2.bmp,,,,TrialProc,,TrainingTrialList,1,1,-999999,1,173040,0,1,607,173647,Target1.bmp,lime,1,,,,2,1,5
KW_Experiment5A,46,1,"<?xml version=""1.0""?>\n<Clock xmlns:dt=""urn:schemas-microsoft-com:datatypes""><Description dt:dt=""string"">E-Prime Primary Realtime Clock</Description><StartTime><Timestamp dt:dt=""int"">0</Timestamp><DateUtc dt:dt=""string"">2018-10-25T20:20:21Z</DateUtc></StartTime><FrequencyChanges><FrequencyChange><Frequency dt:dt=""r8"">3215273</Frequency><Timestamp dt:dt=""r8"">1613894523851</Timestamp><Current dt:dt=""r8"">0</Current><DateUtc dt:dt=""string"">2018-10-25T20:20:21Z</DateUtc></FrequencyChange></FrequencyChanges></Clock>\n",KW_Experiment5A-46-1,59.945,1.0.0.105,1,-1012567885,Professional,2.0.10.353,2.0.10.353,10/25/2018,10/25/2018 20:20,16:20:21,2.0.10.248,2,2,1,2,,,,,,,,TrainingProc,BlockList,6,2,Distractor2.bmp,2,0,,0,1,174658,601,,0,0,blue,600,3,600,,horizontal,blue,Distractor1.bmp,cyan,Distractor1.bmp,yellow,Distractor2.bmp,red,Target2.bmp,purple,Distractor2.bmp,lime,Distractor2.bmp,,,,TrialProc,3,TrainingTrialList,1,2,-999999,1,175259,0,2,764,176023,Target2.bmp,red,2,,,,10,1,6
KW_Experiment5A,46,1,"<?xml version=""1.0""?>\n<Clock xmlns:dt=""urn:schemas-microsoft-com:datatypes""><Description dt:dt=""string"">E-Prime Primary Realtime Clock</Description><StartTime><Timestamp dt:dt=""int"">0</Timestamp><DateUtc dt:dt=""string"">2018-10-25T20:20:21Z</DateUtc></StartTime><FrequencyChanges><FrequencyChange><Frequency dt:dt=""r8"">3215273</Frequency><Timestamp dt:dt=""r8"">1613894523851</Timestamp><Current dt:dt=""r8"">0</Current><DateUtc dt:dt=""string"">2018-10-25T20:20:21Z</DateUtc></FrequencyChange></FrequencyChanges></Clock>\n",KW_Experiment5A-46-1,59.945,1.0.0.105,1,-1012567885,Professional,2.0.10.353,2.0.10.353,10/25/2018,10/25/2018 20:20,16:20:21,2.0.10.248,2,2,1,2,,,,,,,,TrainingProc,BlockList,7,2,Distractor2.bmp,2,0,,0,1,177044,400,,0,0,blue,400,1,400,3,horizontal,blue,Distractor1.bmp,cyan,Distractor2.bmp,yellow,Distractor1.bmp,red,Distractor1.bmp,lime,Target2.bmp,purple,Distractor2.bmp,,,,TrialProc,,TrainingTrialList,1,2,-999999,0,177444,0,2,635,178079,Target2.bmp,lime,2,,,,5,1,7
KW_Experiment5A,46,1,"<?xml version=""1.0""?>\n<Clock xmlns:dt=""urn:schemas-microsoft-com:datatypes""><Description dt:dt=""string"">E-Prime Primary Realtime Clock</Description><StartTime><Timestamp dt:dt=""int"">0</Timestamp><DateUtc dt:dt=""string"">2018-10-25T20:20:21Z</DateUtc></StartTime><FrequencyChanges><FrequencyChange><Frequency dt:dt=""r8"">3215273</Frequency><Timestamp dt:dt=""r8"">1613894523851</Timestamp><Current dt:dt=""r8"">0</Current><DateUtc dt:dt=""string"">2018-10-25T20:20:21Z</DateUtc></FrequencyChange></FrequencyChanges></Clock>\n",KW_Experiment5A-46-1,59.945,1.0.0.105,1,-1012567885,Professional,2.0.10.353,2.0.10.353,10/25/2018,10/25/2018 20:20,16:20:21,2.0.10.248,2,2,1,2,,,,,,,,TrainingProc,BlockList,8,1,Distractor2.bmp,2,0,,1,0,179095,401,,0,0,blue,400,1,400,3,vertical,blue,Distractor2.bmp,cyan,Distractor2.bmp,yellow,Distractor1.bmp,purple,Distractor1.bmp,red,Distractor2.bmp,lime,Target1.bmp,,,,TrialProc,,TrainingTrialList,1,1,-999999,1,179496,0,1,527,180023,Target1.bmp,lime,1,,,,6,1,8
KW_Experiment5A,46,1,"<?xml version=""1.0""?>\n<Clock xmlns:dt=""urn:schemas-microsoft-com:datatypes""><Description dt:dt=""string"">E-Prime Primary Realtime Clock</Description><StartTime><Timestamp dt:dt=""int"">0</Timestamp><DateUtc dt:dt=""string"">2018-10-25T20:20:21Z</DateUtc></StartTime><FrequencyChanges><FrequencyChange><Frequency dt:dt=""r8"">3215273</Frequency><Timestamp dt:dt=""r8"">1613894523851</Timestamp><Current dt:dt=""r8"">0</Current><DateUtc dt:dt=""string"">2018-10-25T20:20:21Z</DateUtc></FrequencyChange></FrequencyChanges></Clock>\n",KW_Experiment5A-46-1,59.945,1.0.0.105,1,-1012567885,Professional,2.0.10.353,2.0.10.353,10/25/2018,10/25/2018 20:20,16:20:21,2.0.10.248,2,2,1,2,,,,,,,,TrainingProc,BlockList,9,2,Distractor2.bmp,2,0,,0,1,181047,401,,0,0,yellow,400,1,400,,horizontal,yellow,Distractor2.bmp,blue,Distractor1.bmp,lime,Distractor2.bmp,purple,Distractor2.bmp,cyan,Distractor1.bmp,red,Target2.bmp,,,,TrialProc,2,TrainingTrialList,1,2,-999999,1,181448,0,2,655,182103,Target2.bmp,red,2,,,,12,1,9
KW_Experiment5A,46,1,"<?xml version=""1.0""?>\n<Clock xmlns:dt=""urn:schemas-microsoft-com:datatypes""><Description dt:dt=""string"">E-Prime Primary Realtime Clock</Description><StartTime><Timestamp dt:dt=""int"">0</Timestamp><DateUtc dt:dt=""string"">2018-10-25T20:20:21Z</DateUtc></StartTime><FrequencyChanges><FrequencyChange><Frequency dt:dt=""r8"">3215273</Frequency><Timestamp dt:dt=""r8"">1613894523851</Timestamp><Current dt:dt=""r8"">0</Current><DateUtc dt:dt=""string"">2018-10-25T20:20:21Z</DateUtc></FrequencyChange></FrequencyChanges></Clock>\n",KW_Experiment5A-46-1,59.945,1.0.0.105,1,-1012567885,Professional,2.0.10.353,2.0.10.353,10/25/2018,10/25/2018 20:20,16:20:21,2.0.10.248,2,2,1,2,,,,,,,,TrainingProc,BlockList,10,2,Distractor2.bmp,2,0,,0,1,183116,500,,0,0,cyan,500,2,500,,horizontal,cyan,Distractor1.bmp,purple,Distractor2.bmp,yellow,Distractor1.bmp,blue,Distractor2.bmp,red,Target2.bmp,lime,Distractor2.bmp,,,,TrialProc,4,TrainingTrialList,1,2,-999999,0,183616,0,2,679,184295,Target2.bmp,red,2,,,,11,1,10
KW_Experiment5A,46,1,"<?xml version=""1.0""?>\n<Clock xmlns:dt=""urn:schemas-microsoft-com:datatypes""><Description dt:dt=""string"">E-Prime Primary Realtime Clock</Description><StartTime><Timestamp dt:dt=""int"">0</Timestamp><DateUtc dt:dt=""string"">2018-10-25T20:20:21Z</DateUtc></StartTime><FrequencyChanges><FrequencyChange><Frequency dt:dt=""r8"">3215273</Frequency><Timestamp dt:dt=""r8"">1613894523851</Timestamp><Current dt:dt=""r8"">0</Current><DateUtc dt:dt=""string"">2018-10-25T20:20:21Z</DateUtc></FrequencyChange></FrequencyChanges></Clock>\n",KW_Experiment5A-46-1,59.945,1.0.0.105,1,-1012567885,Professional,2.0.10.353,2.0.10.353,10/25/2018,10/25/2018 20:20,16:20:21,2.0.10.248,2,2,1,2,,,,,,,,TrainingProc,BlockList,11,2,Distractor2.bmp,2,0,,0,1,185318,500,,0,0,blue,500,2,500,3,horizontal,blue,Distractor1.bmp,lime,Target2.bmp,purple,Distractor2.bmp,cyan,Distractor2.bmp,red,Distractor1.bmp,yellow,Distractor1.bmp,,,,TrialProc,,TrainingTrialList,1,2,-999999,0,185818,0,2,917,186735,Target2.bmp,lime,2,,,,2,1,11
KW_Experiment5A,46,1,"<?xml version=""1.0""?>\n<Clock xmlns:dt=""urn:schemas-microsoft-com:datatypes""><Description dt:dt=""string"">E-Prime Primary Realtime Clock</Description><StartTime><Timestamp dt:dt=""int"">0</Timestamp><DateUtc dt:dt=""string"">2018-10-25T20:20:21Z</DateUtc></StartTime><FrequencyChanges><FrequencyChange><Frequency dt:dt=""r8"">3215273</Frequency><Timestamp dt:dt=""r8"">1613894523851</Timestamp><Current dt:dt=""r8"">0</Current><DateUtc dt:dt=""string"">2018-10-25T20:20:21Z</DateUtc></FrequencyChange></FrequencyChanges></Clock>\n",KW_Experiment5A-46-1,59.945,1.0.0.105,1,-1012567885,Professional,2.0.10.353,2.0.10.353,10/25/2018,10/25/2018 20:20,16:20:21,2.0.10.248,2,2,1,2,,,,,,,,TrainingProc,BlockList,12,2,Distractor2.bmp,2,0,,0,1,187753,401,,0,0,cyan,400,1,400,4,horizontal,lime,Target2.bmp,cyan,Distractor2.bmp,blue,Distractor2.bmp,purple,Distractor1.bmp,red,Distractor2.bmp,yellow,Distractor1.bmp,,,,TrialProc,,TrainingTrialList,1,2,-999999,1,188154,0,2,669,188823,Target2.bmp,lime,2,,,,1,1,12
KW_Experiment5A,46,1,"<?xml version=""1.0""?>\n<Clock xmlns:dt=""urn:schemas-microsoft-com:datatypes""><Description dt:dt=""string"">E-Prime Primary Realtime Clock</Description><StartTime><Timestamp dt:dt=""int"">0</Timestamp><DateUtc dt:dt=""string"">2018-10-25T20:20:21Z</DateUtc></StartTime><FrequencyChanges><FrequencyChange><Frequency dt:dt=""r8"">3215273</Frequency><Timestamp dt:dt=""r8"">1613894523851</Timestamp><Current dt:dt=""r8"">0</Current><DateUtc dt:dt=""string"">2018-10-25T20:20:21Z</DateUtc></FrequencyChange></FrequencyChanges></Clock>\n",KW_Experiment5A-46-1,59.945,1.0.0.105,1,-1012567885,Professional,2.0.10.353,2.0.10.353,10/25/2018,10/25/2018 20:20,16:20:21,2.0.10.248,2,2,1,2,,,,,,,,TrainingProc,BlockList,13,1,Distractor2.bmp,2,0,,0,1,189839,500,,0,0,cyan,500,2,500,4,vertical,cyan,Distractor2.bmp,lime,Target1.bmp,red,Distractor2.bmp,yellow,Distractor1.bmp,blue,Distractor1.bmp,purple,Distractor2.bmp,,,,TrialProc,,TrainingTrialList,1,1,-999999,0,190339,0,1,548,190887,Target1.bmp,lime,1,,,,2,1,13
KW_Experiment5A,46,1,"<?xml version=""1.0""?>\n<Clock xmlns:dt=""urn:schemas-microsoft-com:datatypes""><Description dt:dt=""string"">E-Prime Primary Realtime Clock</Description><StartTime><Timestamp dt:dt=""int"">0</Timestamp><DateUtc dt:dt=""string"">2018-10-25T20:20:21Z</DateUtc></StartTime><FrequencyChanges><FrequencyChange><Frequency dt:dt=""r8"">3215273</Frequency><Timestamp dt:dt=""r8"">1613894523851</Timestamp><Current dt:dt=""r8"">0</Current><DateUtc dt:dt=""string"">2018-10-25T20:20:21Z</DateUtc></FrequencyChange></FrequencyChanges></Clock>\n",KW_Experiment5A-46-1,59.945,1.0.0.105,1,-1012567885,Professional,2.0.10.353,2.0.10.353,10/25/2018,10/25/2018 20:20,16:20:21,2.0.10.248,2,2,1,2,,,,,,,,TrainingProc,BlockList,14,1,Distractor1.bmp,1,0,,0,1,191907,400,,0,0,blue,400,1,400,3,vertical,blue,Distractor2.bmp,red,Distractor2.bmp,yellow,Distractor2.bmp,cyan,Distractor1.bmp,lime,Target1.bmp,purple,Distractor1.bmp,,,,TrialProc,,TrainingTrialList,1,1,-999999,0,192307,0,1,652,192959,Target1.bmp,lime,1,,,,5,1,14
KW_Experiment5A,46,1,"<?xml version=""1.0""?>\n<Clock xmlns:dt=""urn:schemas-microsoft-com:datatypes""><Description dt:dt=""string"">E-Prime Primary Realtime Clock</Description><StartTime><Timestamp dt:dt=""int"">0</Timestamp><DateUtc dt:dt=""string"">2018-10-25T20:20:21Z</DateUtc></StartTime><FrequencyChanges><FrequencyChange><Frequency dt:dt=""r8"">3215273</Frequency><Timestamp dt:dt=""r8"">1613894523851</Timestamp><Current dt:dt=""r8"">0</Current><DateUtc dt:dt=""string"">2018-10-25T20:20:21Z</DateUtc></FrequencyChange></FrequencyChanges></Clock>\n",KW_Experiment5A-46-1,59.945,1.0.0.105,1,-1012567885,Professional,2.0.10.353,2.0.10.353,10/25/2018,10/25/2018 20:20,16:20:21,2.0.10.248,2,2,1,2,,,,,,,,TrainingProc,BlockList,15,2,Distractor2.bmp,2,0,,0,1,193976,500,,0,0,yellow,500,2,500,,horizontal,red,Target2.bmp,purple,Distractor2.bmp,cyan,Distractor1.bmp,blue,Distractor2.bmp,lime,Distractor2.bmp,yellow,Distractor1.bmp,,,,TrialProc,2,TrainingTrialList,1,2,-999999,0,194476,0,2,603,195079,Target2.bmp,red,2,,,,7,1,15
KW_Experiment5A,46,1,"<?xml version=""1.0""?>\n<Clock xmlns:dt=""urn:schemas-microsoft-com:datatypes""><Description dt:dt=""string"">E-Prime Primary Realtime Clock</Description><StartTime><Timestamp dt:dt=""int"">0</Timestamp><DateUtc dt:dt=""string"">2018-10-25T20:20:21Z</DateUtc></StartTime><FrequencyChanges><FrequencyChange><Frequency dt:dt=""r8"">3215273</Frequency><Timestamp dt:dt=""r8"">1613894523851</Timestamp><Current dt:dt=""r8"">0</Current><DateUtc dt:dt=""string"">2018-10-25T20:20:21Z</DateUtc></FrequencyChange></FrequencyChanges></Clock>\n",KW_Experiment5A-46-1,59.945,1.0.0.105,1,-1012567885,Professional,2.0.10.353,2.0.10.353,10/25/2018,10/25/2018 20:20,16:20:21,2.0.10.248,2,2,1,2,,,,,,,,TrainingProc,BlockList,16,2,Distractor1.bmp,1,0,,0,1,196094,401,,0,0,red,400,1,400,1,horizontal,red,Distractor1.bmp,cyan,Distractor2.bmp,blue,Distractor1.bmp,lime,Target2.bmp,yellow,Distractor1.bmp,purple,Distractor1.bmp,,,,TrialProc,,TrainingTrialList,1,2,-999999,1,196495,0,2,792,197287,Target2.bmp,lime,2,,,,4,1,16
KW_Experiment5A,46,1,"<?xml version=""1.0""?>\n<Clock xmlns:dt=""urn:schemas-microsoft-com:datatypes""><Description dt:dt=""string"">E-Prime Primary Realtime Clock</Description><StartTime><Timestamp dt:dt=""int"">0</Timestamp><DateUtc dt:dt=""string"">2018-10-25T20:20:21Z</DateUtc></StartTime><FrequencyChanges><FrequencyChange><Frequency dt:dt=""r8"">3215273</Frequency><Timestamp dt:dt=""r8"">1613894523851</Timestamp><Current dt:dt=""r8"">0</Current><DateUtc dt:dt=""string"">2018-10-25T20:20:21Z</DateUtc></FrequencyChange></FrequencyChanges></Clock>\n",KW_Experiment5A-46-1,59.945,1.0.0.105,1,-1012567885,Professional,2.0.10.353,2.0.10.353,10/25/2018,10/25/2018 20:20,16:20:21,2.0.10.248,2,2,1,2,,,,,,,,TrainingProc,BlockList,17,2,Distractor2.bmp,2,0,,0,1,198296,401,,0,0,blue,400,1,400,3,horizontal,blue,Distractor2.bmp,red,Distractor2.bmp,yellow,Distractor1.bmp,lime,Target2.bmp,purple,Distractor2.bmp,cyan,Distractor2.bmp,,,,TrialProc,,TrainingTrialList,1,2,-999999,1,198697,0,2,726,199423,Target2.bmp,lime,2,,,,4,1,17
KW_Experiment5A,46,1,"<?xml version=""1.0""?>\n<Clock xmlns:dt=""urn:schemas-microsoft-com:datatypes""><Description dt:dt=""string"">E-Prime Primary Realtime Clock</Description><StartTime><Timestamp dt:dt=""int"">0</Timestamp><DateUtc dt:dt=""string"">2018-10-25T20:20:21Z</DateUtc></StartTime><FrequencyChanges><FrequencyChange><Frequency dt:dt=""r8"">3215273</Frequency><Timestamp dt:dt=""r8"">1613894523851</Timestamp><Current dt:dt=""r8"">0</Current><DateUtc dt:dt=""string"">2018-10-25T20:20:21Z</DateUtc></FrequencyChange></FrequencyChanges></Clock>\n",KW_Experiment5A-46-1,59.945,1.0.0.105,1,-1012567885,Professional,2.0.10.353,2.0.10.353,10/25/2018,10/25/2018 20:20,16:20:21,2.0.10.248,2,2,1,2,,,,,,,,TrainingProc,BlockList,18,1,Distractor1.bmp,1,0,,0,1,200448,601,,0,0,red,600,3,600,1,vertical,red,Distractor1.bmp,blue,Distractor2.bmp,purple,Distractor1.bmp,yellow,Distractor2.bmp,cyan,Distractor1.bmp,lime,Target1.bmp,,,,TrialProc,,TrainingTrialList,1,1,-999999,1,201049,0,1,590,201639,Target1.bmp,lime,1,,,,6,1,18
KW_Experiment5A,46,1,"<?xml version=""1.0""?>\n<Clock xmlns:dt=""urn:schemas-microsoft-com:datatypes""><Description dt:dt=""string"">E-Prime Primary Realtime Clock</Description><StartTime><Timestamp dt:dt=""int"">0</Timestamp><DateUtc dt:dt=""string"">2018-10-25T20:20:21Z</DateUtc></StartTime><FrequencyChanges><FrequencyChange><Frequency dt:dt=""r8"">3215273</Frequency><Timestamp dt:dt=""r8"">1613894523851</Timestamp><Current dt:dt=""r8"">0</Current><DateUtc dt:dt=""string"">2018-10-25T20:20:21Z</DateUtc></FrequencyChange></FrequencyChanges></Clock>\n",KW_Experiment5A-46-1,59.945,1.0.0.105,1,-1012567885,Professional,2.0.10.353,2.0.10.353,10/25/2018,10/25/2018 20:20,16:20:21,2.0.10.248,2,2,1,2,,,,,,,,TrainingProc,BlockList,19,2,Distractor1.bmp,1,0,,0,1,202650,501,,0,0,yellow,500,2,500,,horizontal,yellow,Distractor1.bmp,red,Target2.bmp,cyan,Distractor1.bmp,purple,Distractor1.bmp,blue,Distractor1.bmp,lime,Distractor2.bmp,,,,TrialProc,2,TrainingTrialList,1,2,-999999,1,203151,0,2,632,203783,Target2.bmp,red,2,,,,8,1,19
KW_Experiment5A,46,1,"<?xml version=""1.0""?>\n<Clock xmlns:dt=""urn:schemas-microsoft-com:datatypes""><Description dt:dt=""string"">E-Prime Primary Realtime Clock</Description><StartTime><Timestamp dt:dt=""int"">0</Timestamp><DateUtc dt:dt=""string"">2018-10-25T20:20:21Z</DateUtc></StartTime><FrequencyChanges><FrequencyChange><Frequency dt:dt=""r8"">3215273</Frequency><Timestamp dt:dt=""r8"">1613894523851</Timestamp><Current dt:dt=""r8"">0</Current><DateUtc dt:dt=""string"">2018-10-25T20:20:21Z</DateUtc></FrequencyChange></FrequencyChanges></Clock>\n",KW_Experiment5A-46-1,59.945,1.0.0.105,1,-1012567885,Professional,2.0.10.353,2.0.10.353,10/25/2018,10/25/2018 20:20,16:20:21,2.0.10.248,2,2,1,2,,,,,,,,TrainingProc,BlockList,20,2,Distractor2.bmp,2,0,,0,1,204802,601,,0,0,red,600,3,600,1,horizontal,red,Distractor2.bmp,cyan,Distractor2.bmp,lime,Target2.bmp,purple,Distractor2.bmp,blue,Distractor1.bmp,yellow,Distractor2.bmp,,,,TrialProc,,TrainingTrialList,1,2,-999999,1,205403,0,2,588,205991,Target2.bmp,lime,2,,,,3,1,20
KW_Experiment5A,46,1,"<?xml version=""1.0""?>\n<Clock xmlns:dt=""urn:schemas-microsoft-com:datatypes""><Description dt:dt=""string"">E-Prime Primary Realtime Clock</Description><StartTime><Timestamp dt:dt=""int"">0</Timestamp><DateUtc dt:dt=""string"">2018-10-25T20:20:21Z</DateUtc></StartTime><FrequencyChanges><FrequencyChange><Frequency dt:dt=""r8"">3215273</Frequency><Timestamp dt:dt=""r8"">1613894523851</Timestamp><Current dt:dt=""r8"">0</Current><DateUtc dt:dt=""string"">2018-10-25T20:20:21Z</DateUtc></FrequencyChange></FrequencyChanges></Clock>\n",KW_Experiment5A-46-1,59.945,1.0.0.105,1,-1012567885,Professional,2.0.10.353,2.0.10.353,10/25/2018,10/25/2018 20:20,16:20:21,2.0.10.248,2,2,1,2,,,,,,,,TrainingProc,BlockList,21,2,Distractor1.bmp,1,0,,0,1,207004,401,,0,0,yellow,400,1,400,,horizontal,yellow,Distractor2.bmp,blue,Distractor1.bmp,red,Target2.bmp,purple,Distractor1.bmp,cyan,Distractor1.bmp,lime,Distractor2.bmp,,,,TrialProc,2,TrainingTrialList,1,2,-999999,1,207405,0,2,562,207967,Target2.bmp,red,2,,,,9,1,21
KW_Experiment5A,46,1,"<?xml version=""1.0""?>\n<Clock xmlns:dt=""urn:schemas-microsoft-com:datatypes""><Description dt:dt=""string"">E-Prime Primary Realtime Clock</Description><StartTime><Timestamp dt:dt=""int"">0</Timestamp><DateUtc dt:dt=""string"">2018-10-25T20:20:21Z</DateUtc></StartTime><FrequencyChanges><FrequencyChange><Frequency dt:dt=""r8"">3215273</Frequency><Timestamp dt:dt=""r8"">1613894523851</Timestamp><Current dt:dt=""r8"">0</Current><DateUtc dt:dt=""string"">2018-10-25T20:20:21Z</DateUtc></FrequencyChange></FrequencyChanges></Clock>\n",KW_Experiment5A-46-1,59.945,1.0.0.105,1,-1012567885,Professional,2.0.10.353,2.0.10.353,10/25/2018,10/25/2018 20:20,16:20:21,2.0.10.248,2,2,1,2,,,,,,,,TrainingProc,BlockList,22,1,Distractor1.bmp,1,0,,0,0,208989,401,,0,0,cyan,400,1,400,4,vertical,cyan,Distractor1.bmp,red,Distractor2.bmp,blue,Distractor1.bmp,purple,Distractor1.bmp,yellow,Distractor2.bmp,lime,Target1.bmp,,,,TrialProc,,TrainingTrialList,1,1,-999999,1,209390,0,1,480,209870,Target1.bmp,lime,1,,,,6,1,22
KW_Experiment5A,46,1,"<?xml version=""1.0""?>\n<Clock xmlns:dt=""urn:schemas-microsoft-com:datatypes""><Description dt:dt=""string"">E-Prime Primary Realtime Clock</Description><StartTime><Timestamp dt:dt=""int"">0</Timestamp><DateUtc dt:dt=""string"">2018-10-25T20:20:21Z</DateUtc></StartTime><FrequencyChanges><FrequencyChange><Frequency dt:dt=""r8"">3215273</Frequency><Timestamp dt:dt=""r8"">1613894523851</Timestamp><Current dt:dt=""r8"">0</Current><DateUtc dt:dt=""string"">2018-10-25T20:20:21Z</DateUtc></FrequencyChange></FrequencyChanges></Clock>\n",KW_Experiment5A-46-1,59.945,1.0.0.105,1,-1012567885,Professional,2.0.10.353,2.0.10.353,10/25/2018,10/25/2018 20:20,16:20:21,2.0.10.248,2,2,1,2,,,,,,,,TrainingProc,BlockList,23,2,Distractor1.bmp,1,0,,0,1,210891,501,,0,0,red,500,2,500,1,horizontal,lime,Target2.bmp,red,Distractor1.bmp,purple,Distractor1.bmp,cyan,Distractor1.bmp,yellow,Distractor1.bmp,blue,Distractor1.bmp,,,,TrialProc,,TrainingTrialList,1,2,-999999,1,211392,0,2,518,211910,Target2.bmp,lime,2,,,,1,1,23
KW_Experiment5A,46,1,"<?xml version=""1.0""?>\n<Clock xmlns:dt=""urn:schemas-microsoft-com:datatypes""><Description dt:dt=""string"">E-Prime Primary Realtime Clock</Description><StartTime><Timestamp dt:dt=""int"">0</Timestamp><DateUtc dt:dt=""string"">2018-10-25T20:20:21Z</DateUtc></StartTime><FrequencyChanges><FrequencyChange><Frequency dt:dt=""r8"">3215273</Frequency><Timestamp dt:dt=""r8"">1613894523851</Timestamp><Current dt:dt=""r8"">0</Current><DateUtc dt:dt=""string"">2018-10-25T20:20:21Z</DateUtc></FrequencyChange></FrequencyChanges></Clock>\n",KW_Experiment5A-46-1,59.945,1.0.0.105,1,-1012567885,Professional,2.0.10.353,2.0.10.353,10/25/2018,10/25/2018 20:20,16:20:21,2.0.10.248,2,2,1,2,,,,,,,,TrainingProc,BlockList,24,1,Distractor1.bmp,1,0,,0,1,212926,501,,0,0,cyan,500,2,500,4,vertical,cyan,Distractor2.bmp,red,Distractor1.bmp,yellow,Distractor1.bmp,blue,Distractor2.bmp,lime,Target1.bmp,purple,Distractor1.bmp,,,,TrialProc,,TrainingTrialList,1,1,-999999,1,213427,0,1,499,213926,Target1.bmp,lime,1,,,,5,1,24
KW_Experiment5A,46,1,"<?xml version=""1.0""?>\n<Clock xmlns:dt=""urn:schemas-microsoft-com:datatypes""><Description dt:dt=""string"">E-Prime Primary Realtime Clock</Description><StartTime><Timestamp dt:dt=""int"">0</Timestamp><DateUtc dt:dt=""string"">2018-10-25T20:20:21Z</DateUtc></StartTime><FrequencyChanges><FrequencyChange><Frequency dt:dt=""r8"">3215273</Frequency><Timestamp dt:dt=""r8"">1613894523851</Timestamp><Current dt:dt=""r8"">0</Current><DateUtc dt:dt=""string"">2018-10-25T20:20:21Z</DateUtc></FrequencyChange></FrequencyChanges></Clock>\n",KW_Experiment5A-46-1,59.945,1.0.0.105,1,-1012567885,Professional,2.0.10.353,2.0.10.353,10/25/2018,10/25/2018 20:20,16:20:21,2.0.10.248,2,2,1,2,,,,,,,,TrainingProc,BlockList,25,1,Distractor2.bmp,2,0,,0,1,214945,500,,0,0,yellow,500,2,500,2,vertical,lime,Target1.bmp,yellow,Distractor2.bmp,blue,Distractor1.bmp,purple,Distractor2.bmp,red,Distractor2.bmp,cyan,Distractor2.bmp,,,,TrialProc,,TrainingTrialList,1,1,-999999,0,215445,0,1,729,216174,Target1.bmp,lime,1,,,,1,2,25
KW_Experiment5A,46,1,"<?xml version=""1.0""?>\n<Clock xmlns:dt=""urn:schemas-microsoft-com:datatypes""><Description dt:dt=""string"">E-Prime Primary Realtime Clock</Description><StartTime><Timestamp dt:dt=""int"">0</Timestamp><DateUtc dt:dt=""string"">2018-10-25T20:20:21Z</DateUtc></StartTime><FrequencyChanges><FrequencyChange><Frequency dt:dt=""r8"">3215273</Frequency><Timestamp dt:dt=""r8"">1613894523851</Timestamp><Current dt:dt=""r8"">0</Current><DateUtc dt:dt=""string"">2018-10-25T20:20:21Z</DateUtc></FrequencyChange></FrequencyChanges></Clock>\n",KW_Experiment5A-46-1,59.945,1.0.0.105,1,-1012567885,Professional,2.0.10.353,2.0.10.353,10/25/2018,10/25/2018 20:20,16:20:21,2.0.10.248,2,2,1,2,,,,,,,,TrainingProc,BlockList,26,1,Distractor2.bmp,2,0,,0,1,217197,500,,0,0,cyan,500,2,500,4,vertical,cyan,Distractor2.bmp,blue,Distractor1.bmp,yellow,Distractor1.bmp,purple,Distractor2.bmp,lime,Target1.bmp,red,Distractor2.bmp,,,,TrialProc,,TrainingTrialList,1,1,-999999,0,217697,0,1,613,218310,Target1.bmp,lime,1,,,,5,2,26
KW_Experiment5A,46,1,"<?xml version=""1.0""?>\n<Clock xmlns:dt=""urn:schemas-microsoft-com:datatypes""><Description dt:dt=""string"">E-Prime Primary Realtime Clock</Description><StartTime><Timestamp dt:dt=""int"">0</Timestamp><DateUtc dt:dt=""string"">2018-10-25T20:20:21Z</DateUtc></StartTime><FrequencyChanges><FrequencyChange><Frequency dt:dt=""r8"">3215273</Frequency><Timestamp dt:dt=""r8"">1613894523851</Timestamp><Current dt:dt=""r8"">0</Current><DateUtc dt:dt=""string"">2018-10-25T20:20:21Z</DateUtc></FrequencyChange></FrequencyChanges></Clock>\n",KW_Experiment5A-46-1,59.945,1.0.0.105,1,-1012567885,Professional,2.0.10.353,2.0.10.353,10/25/2018,10/25/2018 20:20,16:20:21,2.0.10.248,2,2,1,2,,,,,,,,TrainingProc,BlockList,27,2,Distractor1.bmp,1,0,,0,1,219332,401,,0,0,lime,400,1,400,,horizontal,lime,Distractor1.bmp,cyan,Distractor1.bmp,yellow,Distractor1.bmp,red,Target2.bmp,blue,Distractor1.bmp,purple,Distractor2.bmp,,,,TrialProc,6,TrainingTrialList,1,2,-999999,1,219733,0,2,689,220422,Target2.bmp,red,2,,,,10,2,27
KW_Experiment5A,46,1,"<?xml version=""1.0""?>\n<Clock xmlns:dt=""urn:schemas-microsoft-com:datatypes""><Description dt:dt=""string"">E-Prime Primary Realtime Clock</Description><StartTime><Timestamp dt:dt=""int"">0</Timestamp><DateUtc dt:dt=""string"">2018-10-25T20:20:21Z</DateUtc></StartTime><FrequencyChanges><FrequencyChange><Frequency dt:dt=""r8"">3215273</Frequency><Timestamp dt:dt=""r8"">1613894523851</Timestamp><Current dt:dt=""r8"">0</Current><DateUtc dt:dt=""string"">2018-10-25T20:20:21Z</DateUtc></FrequencyChange></FrequencyChanges></Clock>\n",KW_Experiment5A-46-1,59.945,1.0.0.105,1,-1012567885,Professional,2.0.10.353,2.0.10.353,10/25/2018,10/25/2018 20:20,16:20:21,2.0.10.248,2,2,1,2,,,,,,,,TrainingProc,BlockList,28,2,Distractor2.bmp,2,0,,0,1,221434,401,,0,0,purple,400,1,400,5,horizontal,purple,Distractor2.bmp,red,Distractor2.bmp,cyan,Distractor2.bmp,yellow,Distractor1.bmp,blue,Distractor2.bmp,lime,Target2.bmp,,,,TrialProc,,TrainingTrialList,1,2,-999999,1,221835,0,2,563,222398,Target2.bmp,lime,2,,,,6,2,28
KW_Experiment5A,46,1,"<?xml version=""1.0""?>\n<Clock xmlns:dt=""urn:schemas-microsoft-com:datatypes""><Description dt:dt=""string"">E-Prime Primary Realtime Clock</Description><StartTime><Timestamp dt:dt=""int"">0</Timestamp><DateUtc dt:dt=""string"">2018-10-25T20:20:21Z</DateUtc></StartTime><FrequencyChanges><FrequencyChange><Frequency dt:dt=""r8"">3215273</Frequency><Timestamp dt:dt=""r8"">1613894523851</Timestamp><Current dt:dt=""r8"">0</Current><DateUtc dt:dt=""string"">2018-10-25T20:20:21Z</DateUtc></FrequencyChange></FrequencyChanges></Clock>\n",KW_Experiment5A-46-1,59.945,1.0.0.105,1,-1012567885,Professional,2.0.10.353,2.0.10.353,10/25/2018,10/25/2018 20:20,16:20:21,2.0.10.248,2,2,1,2,,,,,,,,TrainingProc,BlockList,29,2,Distractor2.bmp,2,0,,0,1,223419,501,,0,0,yellow,500,2,500,2,horizontal,yellow,Distractor1.bmp,red,Distractor2.bmp,lime,Target2.bmp,cyan,Distractor2.bmp,purple,Distractor1.bmp,blue,Distractor1.bmp,,,,TrialProc,,TrainingTrialList,1,2,-999999,1,223920,0,2,534,224454,Target2.bmp,lime,2,,,,3,2,29
KW_Experiment5A,46,1,"<?xml version=""1.0""?>\n<Clock xmlns:dt=""urn:schemas-microsoft-com:datatypes""><Description dt:dt=""string"">E-Prime Primary Realtime Clock</Description><StartTime><Timestamp dt:dt=""int"">0</Timestamp><DateUtc dt:dt=""string"">2018-10-25T20:20:21Z</DateUtc></StartTime><FrequencyChanges><FrequencyChange><Frequency dt:dt=""r8"">3215273</Frequency><Timestamp dt:dt=""r8"">1613894523851</Timestamp><Current dt:dt=""r8"">0</Current><DateUtc dt:dt=""string"">2018-10-25T20:20:21Z</DateUtc></FrequencyChange></FrequencyChanges></Clock>\n",KW_Experiment5A-46-1,59.945,1.0.0.105,1,-1012567885,Professional,2.0.10.353,2.0.10.353,10/25/2018,10/25/2018 20:20,16:20:21,2.0.10.248,2,2,1,2,,,,,,,,TrainingProc,BlockList,30,1,Distractor2.bmp,2,0,,0,1,225471,401,,0,0,yellow,400,1,400,2,vertical,yellow,Distractor2.bmp,blue,Distractor1.bmp,red,Distractor2.bmp,purple,Distractor2.bmp,cyan,Distractor1.bmp,lime,Target1.bmp,,,,TrialProc,,TrainingTrialList,1,1,-999999,1,225872,0,1,542,226414,Target1.bmp,lime,1,,,,6,2,30
KW_Experiment5A,46,1,"<?xml version=""1.0""?>\n<Clock xmlns:dt=""urn:schemas-microsoft-com:datatypes""><Description dt:dt=""string"">E-Prime Primary Realtime Clock</Description><StartTime><Timestamp dt:dt=""int"">0</Timestamp><DateUtc dt:dt=""string"">2018-10-25T20:20:21Z</DateUtc></StartTime><FrequencyChanges><FrequencyChange><Frequency dt:dt=""r8"">3215273</Frequency><Timestamp dt:dt=""r8"">1613894523851</Timestamp><Current dt:dt=""r8"">0</Current><DateUtc dt:dt=""string"">2018-10-25T20:20:21Z</DateUtc></FrequencyChange></FrequencyChanges></Clock>\n",KW_Experiment5A-46-1,59.945,1.0.0.105,1,-1012567885,Professional,2.0.10.353,2.0.10.353,10/25/2018,10/25/2018 20:20,16:20:21,2.0.10.248,2,2,1,2,,,,,,,,TrainingProc,BlockList,31,2,Distractor2.bmp,2,0,,0,1,227440,400,,0,0,cyan,400,1,400,4,horizontal,cyan,Distractor1.bmp,lime,Target2.bmp,purple,Distractor2.bmp,yellow,Distractor2.bmp,red,Distractor1.bmp,blue,Distractor1.bmp,,,,TrialProc,,TrainingTrialList,1,2,-999999,0,227840,0,2,670,228510,Target2.bmp,lime,2,,,,2,2,31
KW_Experiment5A,46,1,"<?xml version=""1.0""?>\n<Clock xmlns:dt=""urn:schemas-microsoft-com:datatypes""><Description dt:dt=""string"">E-Prime Primary Realtime Clock</Description><StartTime><Timestamp dt:dt=""int"">0</Timestamp><DateUtc dt:dt=""string"">2018-10-25T20:20:21Z</DateUtc></StartTime><FrequencyChanges><FrequencyChange><Frequency dt:dt=""r8"">3215273</Frequency><Timestamp dt:dt=""r8"">1613894523851</Timestamp><Current dt:dt=""r8"">0</Current><DateUtc dt:dt=""string"">2018-10-25T20:20:21Z</DateUtc></FrequencyChange></FrequencyChanges></Clock>\n",KW_Experiment5A-46-1,59.945,1.0.0.105,1,-1012567885,Professional,2.0.10.353,2.0.10.353,10/25/2018,10/25/2018 20:20,16:20:21,2.0.10.248,2,2,1,2,,,,,,,,TrainingProc,BlockList,32,1,Distractor1.bmp,1,0,,0,1,229525,600,,0,0,cyan,600,3,600,4,vertical,cyan,Distractor1.bmp,purple,Distractor2.bmp,blue,Distractor1.bmp,yellow,Distractor2.bmp,red,Distractor2.bmp,lime,Target1.bmp,,,,TrialProc,,TrainingTrialList,1,1,-999999,0,230125,0,1,561,230686,Target1.bmp,lime,1,,,,6,2,32
KW_Experiment5A,46,1,"<?xml version=""1.0""?>\n<Clock xmlns:dt=""urn:schemas-microsoft-com:datatypes""><Description dt:dt=""string"">E-Prime Primary Realtime Clock</Description><StartTime><Timestamp dt:dt=""int"">0</Timestamp><DateUtc dt:dt=""string"">2018-10-25T20:20:21Z</DateUtc></StartTime><FrequencyChanges><FrequencyChange><Frequency dt:dt=""r8"">3215273</Frequency><Timestamp dt:dt=""r8"">1613894523851</Timestamp><Current dt:dt=""r8"">0</Current><DateUtc dt:dt=""string"">2018-10-25T20:20:21Z</DateUtc></FrequencyChange></FrequencyChanges></Clock>\n",KW_Experiment5A-46-1,59.945,1.0.0.105,1,-1012567885,Professional,2.0.10.353,2.0.10.353,10/25/2018,10/25/2018 20:20,16:20:21,2.0.10.248,2,2,1,2,,,,,,,,TrainingProc,BlockList,33,1,Distractor2.bmp,2,0,,0,1,231710,401,,0,0,purple,400,1,400,,vertical,purple,Distractor1.bmp,red,Target1.bmp,yellow,Distractor2.bmp,blue,Distractor1.bmp,lime,Distractor1.bmp,cyan,Distractor1.bmp,,,,TrialProc,5,TrainingTrialList,1,1,-999999,1,232111,0,1,631,232742,Target1.bmp,red,1,,,,8,2,33
KW_Experiment5A,46,1,"<?xml version=""1.0""?>\n<Clock xmlns:dt=""urn:schemas-microsoft-com:datatypes""><Description dt:dt=""string"">E-Prime Primary Realtime Clock</Description><StartTime><Timestamp dt:dt=""int"">0</Timestamp><DateUtc dt:dt=""string"">2018-10-25T20:20:21Z</DateUtc></StartTime><FrequencyChanges><FrequencyChange><Frequency dt:dt=""r8"">3215273</Frequency><Timestamp dt:dt=""r8"">1613894523851</Timestamp><Current dt:dt=""r8"">0</Current><DateUtc dt:dt=""string"">2018-10-25T20:20:21Z</DateUtc></FrequencyChange></FrequencyChanges></Clock>\n",KW_Experiment5A-46-1,59.945,1.0.0.105,1,-1012567885,Professional,2.0.10.353,2.0.10.353,10/25/2018,10/25/2018 20:20,16:20:21,2.0.10.248,2,2,1,2,,,,,,,,TrainingProc,BlockList,34,1,Distractor1.bmp,1,0,,0,1,233762,400,,0,0,purple,400,1,400,5,vertical,purple,Distractor1.bmp,red,Distractor2.bmp,lime,Target1.bmp,blue,Distractor1.bmp,yellow,Distractor1.bmp,cyan,Distractor2.bmp,,,,TrialProc,,TrainingTrialList,1,1,-999999,0,234162,0,1,668,234830,Target1.bmp,lime,1,,,,3,2,34
KW_Experiment5A,46,1,"<?xml version=""1.0""?>\n<Clock xmlns:dt=""urn:schemas-microsoft-com:datatypes""><Description dt:dt=""string"">E-Prime Primary Realtime Clock</Description><StartTime><Timestamp dt:dt=""int"">0</Timestamp><DateUtc dt:dt=""string"">2018-10-25T20:20:21Z</DateUtc></StartTime><FrequencyChanges><FrequencyChange><Frequency dt:dt=""r8"">3215273</Frequency><Timestamp dt:dt=""r8"">1613894523851</Timestamp><Current dt:dt=""r8"">0</Current><DateUtc dt:dt=""string"">2018-10-25T20:20:21Z</DateUtc></FrequencyChange></FrequencyChanges></Clock>\n",KW_Experiment5A-46-1,59.945,1.0.0.105,1,-1012567885,Professional,2.0.10.353,2.0.10.353,10/25/2018,10/25/2018 20:20,16:20:21,2.0.10.248,2,2,1,2,,,,,,,,TrainingProc,BlockList,35,1,Distractor2.bmp,2,0,,0,1,235847,401,,0,0,purple,400,1,400,,vertical,purple,Distractor2.bmp,lime,Distractor1.bmp,blue,Distractor1.bmp,cyan,Distractor2.bmp,yellow,Distractor1.bmp,red,Target1.bmp,,,,TrialProc,5,TrainingTrialList,1,1,-999999,1,236248,0,1,510,236758,Target1.bmp,red,1,,,,12,2,35
KW_Experiment5A,46,1,"<?xml version=""1.0""?>\n<Clock xmlns:dt=""urn:schemas-microsoft-com:datatypes""><Description dt:dt=""string"">E-Prime Primary Realtime Clock</Description><StartTime><Timestamp dt:dt=""int"">0</Timestamp><DateUtc dt:dt=""string"">2018-10-25T20:20:21Z</DateUtc></StartTime><FrequencyChanges><FrequencyChange><Frequency dt:dt=""r8"">3215273</Frequency><Timestamp dt:dt=""r8"">1613894523851</Timestamp><Current dt:dt=""r8"">0</Current><DateUtc dt:dt=""string"">2018-10-25T20:20:21Z</DateUtc></FrequencyChange></FrequencyChanges></Clock>\n",KW_Experiment5A-46-1,59.945,1.0.0.105,1,-1012567885,Professional,2.0.10.353,2.0.10.353,10/25/2018,10/25/2018 20:20,16:20:21,2.0.10.248,2,2,1,2,,,,,,,,TrainingProc,BlockList,36,1,Distractor2.bmp,2,0,,1,0,237782,401,,0,0,yellow,400,1,400,2,vertical,yellow,Distractor1.bmp,blue,Distractor1.bmp,red,Distractor1.bmp,lime,Target1.bmp,purple,Distractor2.bmp,cyan,Distractor2.bmp,,,,TrialProc,,TrainingTrialList,1,1,-999999,1,238183,0,1,991,239174,Target1.bmp,lime,1,,,,4,2,36
KW_Experiment5A,46,1,"<?xml version=""1.0""?>\n<Clock xmlns:dt=""urn:schemas-microsoft-com:datatypes""><Description dt:dt=""string"">E-Prime Primary Realtime Clock</Description><StartTime><Timestamp dt:dt=""int"">0</Timestamp><DateUtc dt:dt=""string"">2018-10-25T20:20:21Z</DateUtc></StartTime><FrequencyChanges><FrequencyChange><Frequency dt:dt=""r8"">3215273</Frequency><Timestamp dt:dt=""r8"">1613894523851</Timestamp><Current dt:dt=""r8"">0</Current><DateUtc dt:dt=""string"">2018-10-25T20:20:21Z</DateUtc></FrequencyChange></FrequencyChanges></Clock>\n",KW_Experiment5A-46-1,59.945,1.0.0.105,1,-1012567885,Professional,2.0.10.353,2.0.10.353,10/25/2018,10/25/2018 20:20,16:20:21,2.0.10.248,2,2,1,2,,,,,,,,TrainingProc,BlockList,37,2,Distractor1.bmp,1,0,,0,1,240185,500,,0,0,yellow,500,2,500,2,horizontal,yellow,Distractor1.bmp,cyan,Distractor2.bmp,purple,Distractor2.bmp,blue,Distractor1.bmp,lime,Target2.bmp,red,Distractor1.bmp,,,,TrialProc,,TrainingTrialList,1,2,-999999,0,240685,0,2,617,241302,Target2.bmp,lime,2,,,,5,2,37
KW_Experiment5A,46,1,"<?xml version=""1.0""?>\n<Clock xmlns:dt=""urn:schemas-microsoft-com:datatypes""><Description dt:dt=""string"">E-Prime Primary Realtime Clock</Description><StartTime><Timestamp dt:dt=""int"">0</Timestamp><DateUtc dt:dt=""string"">2018-10-25T20:20:21Z</DateUtc></StartTime><FrequencyChanges><FrequencyChange><Frequency dt:dt=""r8"">3215273</Frequency><Timestamp dt:dt=""r8"">1613894523851</Timestamp><Current dt:dt=""r8"">0</Current><DateUtc dt:dt=""string"">2018-10-25T20:20:21Z</DateUtc></FrequencyChange></FrequencyChanges></Clock>\n",KW_Experiment5A-46-1,59.945,1.0.0.105,1,-1012567885,Professional,2.0.10.353,2.0.10.353,10/25/2018,10/25/2018 20:20,16:20:21,2.0.10.248,2,2,1,2,,,,,,,,TrainingProc,BlockList,38,1,Distractor1.bmp,1,0,,0,1,242320,500,,0,0,purple,500,2,500,,vertical,purple,Distractor1.bmp,lime,Distractor1.bmp,red,Target1.bmp,yellow,Distractor1.bmp,blue,Distractor1.bmp,cyan,Distractor1.bmp,,,,TrialProc,5,TrainingTrialList,1,1,-999999,0,242820,0,1,1146,243966,Target1.bmp,red,1,,,,9,2,38
KW_Experiment5A,46,1,"<?xml version=""1.0""?>\n<Clock xmlns:dt=""urn:schemas-microsoft-com:datatypes""><Description dt:dt=""string"">E-Prime Primary Realtime Clock</Description><StartTime><Timestamp dt:dt=""int"">0</Timestamp><DateUtc dt:dt=""string"">2018-10-25T20:20:21Z</DateUtc></StartTime><FrequencyChanges><FrequencyChange><Frequency dt:dt=""r8"">3215273</Frequency><Timestamp dt:dt=""r8"">1613894523851</Timestamp><Current dt:dt=""r8"">0</Current><DateUtc dt:dt=""string"">2018-10-25T20:20:21Z</DateUtc></FrequencyChange></FrequencyChanges></Clock>\n",KW_Experiment5A-46-1,59.945,1.0.0.105,1,-1012567885,Professional,2.0.10.353,2.0.10.353,10/25/2018,10/25/2018 20:20,16:20:21,2.0.10.248,2,2,1,2,,,,,,,,TrainingProc,BlockList,39,1,Distractor1.bmp,1,0,,0,1,244989,601,,0,0,yellow,600,3,600,2,vertical,lime,Target1.bmp,yellow,Distractor1.bmp,red,Distractor1.bmp,blue,Distractor1.bmp,purple,Distractor1.bmp,cyan,Distractor2.bmp,,,,TrialProc,,TrainingTrialList,1,1,-999999,1,245590,0,1,560,246150,Target1.bmp,lime,1,,,,1,2,39
KW_Experiment5A,46,1,"<?xml version=""1.0""?>\n<Clock xmlns:dt=""urn:schemas-microsoft-com:datatypes""><Description dt:dt=""string"">E-Prime Primary Realtime Clock</Description><StartTime><Timestamp dt:dt=""int"">0</Timestamp><DateUtc dt:dt=""string"">2018-10-25T20:20:21Z</DateUtc></StartTime><FrequencyChanges><FrequencyChange><Frequency dt:dt=""r8"">3215273</Frequency><Timestamp dt:dt=""r8"">1613894523851</Timestamp><Current dt:dt=""r8"">0</Current><DateUtc dt:dt=""string"">2018-10-25T20:20:21Z</DateUtc></FrequencyChange></FrequencyChanges></Clock>\n",KW_Experiment5A-46-1,59.945,1.0.0.105,1,-1012567885,Professional,2.0.10.353,2.0.10.353,10/25/2018,10/25/2018 20:20,16:20:21,2.0.10.248,2,2,1,2,,,,,,,,TrainingProc,BlockList,40,2,Distractor1.bmp,1,0,,0,1,247174,401,,0,0,purple,400,1,400,5,horizontal,purple,Distractor1.bmp,cyan,Distractor2.bmp,lime,Target2.bmp,yellow,Distractor1.bmp,blue,Distractor2.bmp,red,Distractor1.bmp,,,,TrialProc,,TrainingTrialList,1,2,-999999,1,247575,0,2,591,248166,Target2.bmp,lime,2,,,,3,2,40
KW_Experiment5A,46,1,"<?xml version=""1.0""?>\n<Clock xmlns:dt=""urn:schemas-microsoft-com:datatypes""><Description dt:dt=""string"">E-Prime Primary Realtime Clock</Description><StartTime><Timestamp dt:dt=""int"">0</Timestamp><DateUtc dt:dt=""string"">2018-10-25T20:20:21Z</DateUtc></StartTime><FrequencyChanges><FrequencyChange><Frequency dt:dt=""r8"">3215273</Frequency><Timestamp dt:dt=""r8"">1613894523851</Timestamp><Current dt:dt=""r8"">0</Current><DateUtc dt:dt=""string"">2018-10-25T20:20:21Z</DateUtc></FrequencyChange></FrequencyChanges></Clock>\n",KW_Experiment5A-46-1,59.945,1.0.0.105,1,-1012567885,Professional,2.0.10.353,2.0.10.353,10/25/2018,10/25/2018 20:20,16:20:21,2.0.10.248,2,2,1,2,,,,,,,,TrainingProc,BlockList,41,1,Distractor2.bmp,2,0,,0,1,249176,601,,0,0,yellow,600,3,600,2,vertical,lime,Target1.bmp,yellow,Distractor2.bmp,red,Distractor1.bmp,blue,Distractor2.bmp,purple,Distractor1.bmp,cyan,Distractor1.bmp,,,,TrialProc,,TrainingTrialList,1,1,-999999,1,249777,0,1,557,250334,Target1.bmp,lime,1,,,,1,2,41
KW_Experiment5A,46,1,"<?xml version=""1.0""?>\n<Clock xmlns:dt=""urn:schemas-microsoft-com:datatypes""><Description dt:dt=""string"">E-Prime Primary Realtime Clock</Description><StartTime><Timestamp dt:dt=""int"">0</Timestamp><DateUtc dt:dt=""string"">2018-10-25T20:20:21Z</DateUtc></StartTime><FrequencyChanges><FrequencyChange><Frequency dt:dt=""r8"">3215273</Frequency><Timestamp dt:dt=""r8"">1613894523851</Timestamp><Current dt:dt=""r8"">0</Current><DateUtc dt:dt=""string"">2018-10-25T20:20:21Z</DateUtc></FrequencyChange></FrequencyChanges></Clock>\n",KW_Experiment5A-46-1,59.945,1.0.0.105,1,-1012567885,Professional,2.0.10.353,2.0.10.353,10/25/2018,10/25/2018 20:20,16:20:21,2.0.10.248,2,2,1,2,,,,,,,,TrainingProc,BlockList,42,2,Distractor1.bmp,1,0,,0,1,251345,500,,0,0,blue,500,2,500,3,horizontal,blue,Distractor1.bmp,lime,Target2.bmp,cyan,Distractor1.bmp,red,Distractor2.bmp,yellow,Distractor2.bmp,purple,Distractor1.bmp,,,,TrialProc,,TrainingTrialList,1,2,-999999,0,251845,0,2,705,252550,Target2.bmp,lime,2,,,,2,2,42
KW_Experiment5A,46,1,"<?xml version=""1.0""?>\n<Clock xmlns:dt=""urn:schemas-microsoft-com:datatypes""><Description dt:dt=""string"">E-Prime Primary Realtime Clock</Description><StartTime><Timestamp dt:dt=""int"">0</Timestamp><DateUtc dt:dt=""string"">2018-10-25T20:20:21Z</DateUtc></StartTime><FrequencyChanges><FrequencyChange><Frequency dt:dt=""r8"">3215273</Frequency><Timestamp dt:dt=""r8"">1613894523851</Timestamp><Current dt:dt=""r8"">0</Current><DateUtc dt:dt=""string"">2018-10-25T20:20:21Z</DateUtc></FrequencyChange></FrequencyChanges></Clock>\n",KW_Experiment5A-46-1,59.945,1.0.0.105,1,-1012567885,Professional,2.0.10.353,2.0.10.353,10/25/2018,10/25/2018 20:20,16:20:21,2.0.10.248,2,2,1,2,,,,,,,,TrainingProc,BlockList,43,2,Distractor2.bmp,2,0,,0,1,253564,400,,0,0,purple,400,1,400,,horizontal,red,Target2.bmp,blue,Distractor2.bmp,yellow,Distractor2.bmp,lime,Distractor2.bmp,cyan,Distractor1.bmp,purple,Distractor1.bmp,,,,TrialProc,5,TrainingTrialList,1,2,-999999,0,253964,0,2,546,254510,Target2.bmp,red,2,,,,7,2,43
KW_Experiment5A,46,1,"<?xml version=""1.0""?>\n<Clock xmlns:dt=""urn:schemas-microsoft-com:datatypes""><Description dt:dt=""string"">E-Prime Primary Realtime Clock</Description><StartTime><Timestamp dt:dt=""int"">0</Timestamp><DateUtc dt:dt=""string"">2018-10-25T20:20:21Z</DateUtc></StartTime><FrequencyChanges><FrequencyChange><Frequency dt:dt=""r8"">3215273</Frequency><Timestamp dt:dt=""r8"">1613894523851</Timestamp><Current dt:dt=""r8"">0</Current><DateUtc dt:dt=""string"">2018-10-25T20:20:21Z</DateUtc></FrequencyChange></FrequencyChanges></Clock>\n",KW_Experiment5A-46-1,59.945,1.0.0.105,1,-1012567885,Professional,2.0.10.353,2.0.10.353,10/25/2018,10/25/2018 20:20,16:20:21,2.0.10.248,2,2,1,2,,,,,,,,TrainingProc,BlockList,44,2,Distractor2.bmp,2,0,,0,1,255532,500,,0,0,blue,500,2,500,,horizontal,blue,Distractor1.bmp,yellow,Distractor1.bmp,lime,Distractor1.bmp,purple,Distractor2.bmp,red,Target2.bmp,cyan,Distractor2.bmp,,,,TrialProc,3,TrainingTrialList,0,2,-999999,0,256032,0,1,510,256542,Target2.bmp,red,2,,,,11,2,44
KW_Experiment5A,46,1,"<?xml version=""1.0""?>\n<Clock xmlns:dt=""urn:schemas-microsoft-com:datatypes""><Description dt:dt=""string"">E-Prime Primary Realtime Clock</Description><StartTime><Timestamp dt:dt=""int"">0</Timestamp><DateUtc dt:dt=""string"">2018-10-25T20:20:21Z</DateUtc></StartTime><FrequencyChanges><FrequencyChange><Frequency dt:dt=""r8"">3215273</Frequency><Timestamp dt:dt=""r8"">1613894523851</Timestamp><Current dt:dt=""r8"">0</Current><DateUtc dt:dt=""string"">2018-10-25T20:20:21Z</DateUtc></FrequencyChange></FrequencyChanges></Clock>\n",KW_Experiment5A-46-1,59.945,1.0.0.105,1,-1012567885,Professional,2.0.10.353,2.0.10.353,10/25/2018,10/25/2018 20:20,16:20:21,2.0.10.248,2,2,1,2,,,,,,,,TrainingProc,BlockList,45,1,Distractor2.bmp,2,0,,0,1,257567,401,,0,0,yellow,400,1,400,2,vertical,yellow,Distractor1.bmp,lime,Target1.bmp,blue,Distractor2.bmp,cyan,Distractor1.bmp,red,Distractor1.bmp,purple,Distractor2.bmp,,,,TrialProc,,TrainingTrialList,1,1,-999999,1,257968,0,1,942,258910,Target1.bmp,lime,1,,,,2,2,45
KW_Experiment5A,46,1,"<?xml version=""1.0""?>\n<Clock xmlns:dt=""urn:schemas-microsoft-com:datatypes""><Description dt:dt=""string"">E-Prime Primary Realtime Clock</Description><StartTime><Timestamp dt:dt=""int"">0</Timestamp><DateUtc dt:dt=""string"">2018-10-25T20:20:21Z</DateUtc></StartTime><FrequencyChanges><FrequencyChange><Frequency dt:dt=""r8"">3215273</Frequency><Timestamp dt:dt=""r8"">1613894523851</Timestamp><Current dt:dt=""r8"">0</Current><DateUtc dt:dt=""string"">2018-10-25T20:20:21Z</DateUtc></FrequencyChange></FrequencyChanges></Clock>\n",KW_Experiment5A-46-1,59.945,1.0.0.105,1,-1012567885,Professional,2.0.10.353,2.0.10.353,10/25/2018,10/25/2018 20:20,16:20:21,2.0.10.248,2,2,1,2,,,,,,,,TrainingProc,BlockList,46,1,Distractor1.bmp,1,0,,0,1,259919,401,,0,0,yellow,400,1,400,2,vertical,yellow,Distractor1.bmp,purple,Distractor1.bmp,red,Distractor1.bmp,lime,Target1.bmp,cyan,Distractor1.bmp,blue,Distractor1.bmp,,,,TrialProc,,TrainingTrialList,1,1,-999999,1,260320,0,1,862,261182,Target1.bmp,lime,1,,,,4,2,46
KW_Experiment5A,46,1,"<?xml version=""1.0""?>\n<Clock xmlns:dt=""urn:schemas-microsoft-com:datatypes""><Description dt:dt=""string"">E-Prime Primary Realtime Clock</Description><StartTime><Timestamp dt:dt=""int"">0</Timestamp><DateUtc dt:dt=""string"">2018-10-25T20:20:21Z</DateUtc></StartTime><FrequencyChanges><FrequencyChange><Frequency dt:dt=""r8"">3215273</Frequency><Timestamp dt:dt=""r8"">1613894523851</Timestamp><Current dt:dt=""r8"">0</Current><DateUtc dt:dt=""string"">2018-10-25T20:20:21Z</DateUtc></FrequencyChange></FrequencyChanges></Clock>\n",KW_Experiment5A-46-1,59.945,1.0.0.105,1,-1012567885,Professional,2.0.10.353,2.0.10.353,10/25/2018,10/25/2018 20:20,16:20:21,2.0.10.248,2,2,1,2,,,,,,,,TrainingProc,BlockList,47,2,Distractor2.bmp,2,0,,0,1,262205,400,,0,0,purple,400,1,400,5,horizontal,purple,Distractor1.bmp,red,Distractor1.bmp,yellow,Distractor2.bmp,blue,Distractor2.bmp,lime,Target2.bmp,cyan,Distractor2.bmp,,,,TrialProc,,TrainingTrialList,1,2,-999999,0,262605,0,2,625,263230,Target2.bmp,lime,2,,,,5,2,47
KW_Experiment5A,46,1,"<?xml version=""1.0""?>\n<Clock xmlns:dt=""urn:schemas-microsoft-com:datatypes""><Description dt:dt=""string"">E-Prime Primary Realtime Clock</Description><StartTime><Timestamp dt:dt=""int"">0</Timestamp><DateUtc dt:dt=""string"">2018-10-25T20:20:21Z</DateUtc></StartTime><FrequencyChanges><FrequencyChange><Frequency dt:dt=""r8"">3215273</Frequency><Timestamp dt:dt=""r8"">1613894523851</Timestamp><Current dt:dt=""r8"">0</Current><DateUtc dt:dt=""string"">2018-10-25T20:20:21Z</DateUtc></FrequencyChange></FrequencyChanges></Clock>\n",KW_Experiment5A-46-1,59.945,1.0.0.105,1,-1012567885,Professional,2.0.10.353,2.0.10.353,10/25/2018,10/25/2018 20:20,16:20:21,2.0.10.248,2,2,1,2,,,,,,,,TrainingProc,BlockList,48,1,Distractor1.bmp,1,0,,0,1,264240,601,,0,0,yellow,600,3,600,2,vertical,yellow,Distractor2.bmp,purple,Distractor2.bmp,cyan,Distractor2.bmp,lime,Target1.bmp,red,Distractor1.bmp,blue,Distractor1.bmp,,,,TrialProc,,TrainingTrialList,1,1,-999999,1,264841,0,1,676,265517,Target1.bmp,lime,1,,,,4,2,48
KW_Experiment5A,46,1,"<?xml version=""1.0""?>\n<Clock xmlns:dt=""urn:schemas-microsoft-com:datatypes""><Description dt:dt=""string"">E-Prime Primary Realtime Clock</Description><StartTime><Timestamp dt:dt=""int"">0</Timestamp><DateUtc dt:dt=""string"">2018-10-25T20:20:21Z</DateUtc></StartTime><FrequencyChanges><FrequencyChange><Frequency dt:dt=""r8"">3215273</Frequency><Timestamp dt:dt=""r8"">1613894523851</Timestamp><Current dt:dt=""r8"">0</Current><DateUtc dt:dt=""string"">2018-10-25T20:20:21Z</DateUtc></FrequencyChange></FrequencyChanges></Clock>\n",KW_Experiment5A-46-1,59.945,1.0.0.105,1,-1012567885,Professional,2.0.10.353,2.0.10.353,10/25/2018,10/25/2018 20:20,16:20:21,2.0.10.248,3,2,1,3,,,,,,,,TrainingProc,BlockList,1,2,Distractor1.bmp,1,0,,0,28,271313,601,,0,0,purple,600,3,600,5,horizontal,purple,Distractor1.bmp,red,Distractor2.bmp,blue,Distractor2.bmp,lime,Target2.bmp,cyan,Distractor1.bmp,yellow,Distractor2.bmp,,,,TrialProc,,TrainingTrialList,1,2,-999999,1,271914,0,2,771,272685,Target2.bmp,lime,2,,,,4,3,49
KW_Experiment5A,46,1,"<?xml version=""1.0""?>\n<Clock xmlns:dt=""urn:schemas-microsoft-com:datatypes""><Description dt:dt=""string"">E-Prime Primary Realtime Clock</Description><StartTime><Timestamp dt:dt=""int"">0</Timestamp><DateUtc dt:dt=""string"">2018-10-25T20:20:21Z</DateUtc></StartTime><FrequencyChanges><FrequencyChange><Frequency dt:dt=""r8"">3215273</Frequency><Timestamp dt:dt=""r8"">1613894523851</Timestamp><Current dt:dt=""r8"">0</Current><DateUtc dt:dt=""string"">2018-10-25T20:20:21Z</DateUtc></FrequencyChange></FrequencyChanges></Clock>\n",KW_Experiment5A-46-1,59.945,1.0.0.105,1,-1012567885,Professional,2.0.10.353,2.0.10.353,10/25/2018,10/25/2018 20:20,16:20:21,2.0.10.248,3,2,1,3,,,,,,,,TrainingProc,BlockList,2,2,Distractor2.bmp,2,0,,0,1,273699,600,,0,0,yellow,600,3,600,2,horizontal,yellow,Distractor2.bmp,purple,Distractor2.bmp,lime,Target2.bmp,blue,Distractor2.bmp,cyan,Distractor2.bmp,red,Distractor2.bmp,,,,TrialProc,,TrainingTrialList,1,2,-999999,0,274299,0,2,586,274885,Target2.bmp,lime,2,,,,3,3,50
KW_Experiment5A,46,1,"<?xml version=""1.0""?>\n<Clock xmlns:dt=""urn:schemas-microsoft-com:datatypes""><Description dt:dt=""string"">E-Prime Primary Realtime Clock</Description><StartTime><Timestamp dt:dt=""int"">0</Timestamp><DateUtc dt:dt=""string"">2018-10-25T20:20:21Z</DateUtc></StartTime><FrequencyChanges><FrequencyChange><Frequency dt:dt=""r8"">3215273</Frequency><Timestamp dt:dt=""r8"">1613894523851</Timestamp><Current dt:dt=""r8"">0</Current><DateUtc dt:dt=""string"">2018-10-25T20:20:21Z</DateUtc></FrequencyChange></FrequencyChanges></Clock>\n",KW_Experiment5A-46-1,59.945,1.0.0.105,1,-1012567885,Professional,2.0.10.353,2.0.10.353,10/25/2018,10/25/2018 20:20,16:20:21,2.0.10.248,3,2,1,3,,,,,,,,TrainingProc,BlockList,3,2,Distractor2.bmp,2,0,,0,1,275901,500,,0,0,blue,500,2,500,,horizontal,blue,Distractor2.bmp,lime,Distractor2.bmp,purple,Distractor1.bmp,red,Target2.bmp,cyan,Distractor2.bmp,yellow,Distractor2.bmp,,,,TrialProc,3,TrainingTrialList,1,2,-999999,0,276401,0,2,716,277117,Target2.bmp,red,2,,,,10,3,51
KW_Experiment5A,46,1,"<?xml version=""1.0""?>\n<Clock xmlns:dt=""urn:schemas-microsoft-com:datatypes""><Description dt:dt=""string"">E-Prime Primary Realtime Clock</Description><StartTime><Timestamp dt:dt=""int"">0</Timestamp><DateUtc dt:dt=""string"">2018-10-25T20:20:21Z</DateUtc></StartTime><FrequencyChanges><FrequencyChange><Frequency dt:dt=""r8"">3215273</Frequency><Timestamp dt:dt=""r8"">1613894523851</Timestamp><Current dt:dt=""r8"">0</Current><DateUtc dt:dt=""string"">2018-10-25T20:20:21Z</DateUtc></FrequencyChange></FrequencyChanges></Clock>\n",KW_Experiment5A-46-1,59.945,1.0.0.105,1,-1012567885,Professional,2.0.10.353,2.0.10.353,10/25/2018,10/25/2018 20:20,16:20:21,2.0.10.248,3,2,1,3,,,,,,,,TrainingProc,BlockList,4,2,Distractor1.bmp,1,0,,0,1,278136,500,,0,0,cyan,500,2,500,4,horizontal,lime,Target2.bmp,cyan,Distractor1.bmp,yellow,Distractor1.bmp,red,Distractor2.bmp,blue,Distractor2.bmp,purple,Distractor1.bmp,,,,TrialProc,,TrainingTrialList,1,2,-999999,0,278636,0,2,529,279165,Target2.bmp,lime,2,,,,1,3,52
KW_Experiment5A,46,1,"<?xml version=""1.0""?>\n<Clock xmlns:dt=""urn:schemas-microsoft-com:datatypes""><Description dt:dt=""string"">E-Prime Primary Realtime Clock</Description><StartTime><Timestamp dt:dt=""int"">0</Timestamp><DateUtc dt:dt=""string"">2018-10-25T20:20:21Z</DateUtc></StartTime><FrequencyChanges><FrequencyChange><Frequency dt:dt=""r8"">3215273</Frequency><Timestamp dt:dt=""r8"">1613894523851</Timestamp><Current dt:dt=""r8"">0</Current><DateUtc dt:dt=""string"">2018-10-25T20:20:21Z</DateUtc></FrequencyChange></FrequencyChanges></Clock>\n",KW_Experiment5A-46-1,59.945,1.0.0.105,1,-1012567885,Professional,2.0.10.353,2.0.10.353,10/25/2018,10/25/2018 20:20,16:20:21,2.0.10.248,3,2,1,3,,,,,,,,TrainingProc,BlockList,5,2,Distractor1.bmp,1,0,,0,1,280188,600,,0,0,red,600,3,600,1,horizontal,red,Distractor2.bmp,lime,Target2.bmp,yellow,Distractor1.bmp,blue,Distractor2.bmp,cyan,Distractor2.bmp,purple,Distractor1.bmp,,,,TrialProc,,TrainingTrialList,1,2,-999999,0,280788,0,2,513,281301,Target2.bmp,lime,2,,,,2,3,53
KW_Experiment5A,46,1,"<?xml version=""1.0""?>\n<Clock xmlns:dt=""urn:schemas-microsoft-com:datatypes""><Description dt:dt=""string"">E-Prime Primary Realtime Clock</Description><StartTime><Timestamp dt:dt=""int"">0</Timestamp><DateUtc dt:dt=""string"">2018-10-25T20:20:21Z</DateUtc></StartTime><FrequencyChanges><FrequencyChange><Frequency dt:dt=""r8"">3215273</Frequency><Timestamp dt:dt=""r8"">1613894523851</Timestamp><Current dt:dt=""r8"">0</Current><DateUtc dt:dt=""string"">2018-10-25T20:20:21Z</DateUtc></FrequencyChange></FrequencyChanges></Clock>\n",KW_Experiment5A-46-1,59.945,1.0.0.105,1,-1012567885,Professional,2.0.10.353,2.0.10.353,10/25/2018,10/25/2018 20:20,16:20:21,2.0.10.248,3,2,1,3,,,,,,,,TrainingProc,BlockList,6,1,Distractor2.bmp,2,0,,0,1,282323,501,,0,0,red,500,2,500,1,vertical,red,Distractor2.bmp,yellow,Distractor2.bmp,purple,Distractor2.bmp,cyan,Distractor1.bmp,lime,Target1.bmp,blue,Distractor2.bmp,,,,TrialProc,,TrainingTrialList,1,1,-999999,1,282824,0,1,477,283301,Target1.bmp,lime,1,,,,5,3,54
KW_Experiment5A,46,1,"<?xml version=""1.0""?>\n<Clock xmlns:dt=""urn:schemas-microsoft-com:datatypes""><Description dt:dt=""string"">E-Prime Primary Realtime Clock</Description><StartTime><Timestamp dt:dt=""int"">0</Timestamp><DateUtc dt:dt=""string"">2018-10-25T20:20:21Z</DateUtc></StartTime><FrequencyChanges><FrequencyChange><Frequency dt:dt=""r8"">3215273</Frequency><Timestamp dt:dt=""r8"">1613894523851</Timestamp><Current dt:dt=""r8"">0</Current><DateUtc dt:dt=""string"">2018-10-25T20:20:21Z</DateUtc></FrequencyChange></FrequencyChanges></Clock>\n",KW_Experiment5A-46-1,59.945,1.0.0.105,1,-1012567885,Professional,2.0.10.353,2.0.10.353,10/25/2018,10/25/2018 20:20,16:20:21,2.0.10.248,3,2,1,3,,,,,,,,TrainingProc,BlockList,7,2,Distractor1.bmp,1,0,,0,1,284325,601,,0,0,red,600,3,600,1,horizontal,lime,Target2.bmp,red,Distractor1.bmp,cyan,Distractor1.bmp,blue,Distractor1.bmp,yellow,Distractor2.bmp,purple,Distractor2.bmp,,,,TrialProc,,TrainingTrialList,1,2,-999999,1,284926,0,2,647,285573,Target2.bmp,lime,2,,,,1,3,55
KW_Experiment5A,46,1,"<?xml version=""1.0""?>\n<Clock xmlns:dt=""urn:schemas-microsoft-com:datatypes""><Description dt:dt=""string"">E-Prime Primary Realtime Clock</Description><StartTime><Timestamp dt:dt=""int"">0</Timestamp><DateUtc dt:dt=""string"">2018-10-25T20:20:21Z</DateUtc></StartTime><FrequencyChanges><FrequencyChange><Frequency dt:dt=""r8"">3215273</Frequency><Timestamp dt:dt=""r8"">1613894523851</Timestamp><Current dt:dt=""r8"">0</Current><DateUtc dt:dt=""string"">2018-10-25T20:20:21Z</DateUtc></FrequencyChange></FrequencyChanges></Clock>\n",KW_Experiment5A-46-1,59.945,1.0.0.105,1,-1012567885,Professional,2.0.10.353,2.0.10.353,10/25/2018,10/25/2018 20:20,16:20:21,2.0.10.248,3,2,1,3,,,,,,,,TrainingProc,BlockList,8,2,Distractor2.bmp,2,0,,0,1,286594,500,,0,0,red,500,2,500,1,horizontal,red,Distractor1.bmp,yellow,Distractor2.bmp,purple,Distractor1.bmp,cyan,Distractor2.bmp,lime,Target2.bmp,blue,Distractor2.bmp,,,,TrialProc,,TrainingTrialList,1,2,-999999,0,287094,0,2,551,287645,Target2.bmp,lime,2,,,,5,3,56
KW_Experiment5A,46,1,"<?xml version=""1.0""?>\n<Clock xmlns:dt=""urn:schemas-microsoft-com:datatypes""><Description dt:dt=""string"">E-Prime Primary Realtime Clock</Description><StartTime><Timestamp dt:dt=""int"">0</Timestamp><DateUtc dt:dt=""string"">2018-10-25T20:20:21Z</DateUtc></StartTime><FrequencyChanges><FrequencyChange><Frequency dt:dt=""r8"">3215273</Frequency><Timestamp dt:dt=""r8"">1613894523851</Timestamp><Current dt:dt=""r8"">0</Current><DateUtc dt:dt=""string"">2018-10-25T20:20:21Z</DateUtc></FrequencyChange></FrequencyChanges></Clock>\n",KW_Experiment5A-46-1,59.945,1.0.0.105,1,-1012567885,Professional,2.0.10.353,2.0.10.353,10/25/2018,10/25/2018 20:20,16:20:21,2.0.10.248,3,2,1,3,,,,,,,,TrainingProc,BlockList,9,1,Distractor1.bmp,1,0,,0,1,288662,601,,0,0,cyan,600,3,600,,vertical,cyan,Distractor1.bmp,red,Target1.bmp,purple,Distractor1.bmp,yellow,Distractor1.bmp,blue,Distractor1.bmp,lime,Distractor2.bmp,,,,TrialProc,4,TrainingTrialList,1,1,-999999,1,289263,0,1,542,289805,Target1.bmp,red,1,,,,8,3,57
KW_Experiment5A,46,1,"<?xml version=""1.0""?>\n<Clock xmlns:dt=""urn:schemas-microsoft-com:datatypes""><Description dt:dt=""string"">E-Prime Primary Realtime Clock</Description><StartTime><Timestamp dt:dt=""int"">0</Timestamp><DateUtc dt:dt=""string"">2018-10-25T20:20:21Z</DateUtc></StartTime><FrequencyChanges><FrequencyChange><Frequency dt:dt=""r8"">3215273</Frequency><Timestamp dt:dt=""r8"">1613894523851</Timestamp><Current dt:dt=""r8"">0</Current><DateUtc dt:dt=""string"">2018-10-25T20:20:21Z</DateUtc></FrequencyChange></FrequencyChanges></Clock>\n",KW_Experiment5A-46-1,59.945,1.0.0.105,1,-1012567885,Professional,2.0.10.353,2.0.10.353,10/25/2018,10/25/2018 20:20,16:20:21,2.0.10.248,3,2,1,3,,,,,,,,TrainingProc,BlockList,10,2,Distractor2.bmp,2,0,,0,1,290814,601,,0,0,purple,600,3,600,,horizontal,red,Target2.bmp,yellow,Distractor2.bmp,blue,Distractor2.bmp,lime,Distractor2.bmp,cyan,Distractor1.bmp,purple,Distractor2.bmp,,,,TrialProc,5,TrainingTrialList,1,2,-999999,1,291415,0,2,502,291917,Target2.bmp,red,2,,,,7,3,58
KW_Experiment5A,46,1,"<?xml version=""1.0""?>\n<Clock xmlns:dt=""urn:schemas-microsoft-com:datatypes""><Description dt:dt=""string"">E-Prime Primary Realtime Clock</Description><StartTime><Timestamp dt:dt=""int"">0</Timestamp><DateUtc dt:dt=""string"">2018-10-25T20:20:21Z</DateUtc></StartTime><FrequencyChanges><FrequencyChange><Frequency dt:dt=""r8"">3215273</Frequency><Timestamp dt:dt=""r8"">1613894523851</Timestamp><Current dt:dt=""r8"">0</Current><DateUtc dt:dt=""string"">2018-10-25T20:20:21Z</DateUtc></FrequencyChange></FrequencyChanges></Clock>\n",KW_Experiment5A-46-1,59.945,1.0.0.105,1,-1012567885,Professional,2.0.10.353,2.0.10.353,10/25/2018,10/25/2018 20:20,16:20:21,2.0.10.248,3,2,1,3,,,,,,,,TrainingProc,BlockList,11,1,Distractor1.bmp,1,0,,0,1,292933,400,,0,0,purple,400,1,400,5,vertical,purple,Distractor1.bmp,cyan,Distractor1.bmp,red,Distractor1.bmp,blue,Distractor1.bmp,yellow,Distractor2.bmp,lime,Target1.bmp,,,,TrialProc,,TrainingTrialList,1,1,-999999,0,293333,0,1,600,293933,Target1.bmp,lime,1,,,,6,3,59
KW_Experiment5A,46,1,"<?xml version=""1.0""?>\n<Clock xmlns:dt=""urn:schemas-microsoft-com:datatypes""><Description dt:dt=""string"">E-Prime Primary Realtime Clock</Description><StartTime><Timestamp dt:dt=""int"">0</Timestamp><DateUtc dt:dt=""string"">2018-10-25T20:20:21Z</DateUtc></StartTime><FrequencyChanges><FrequencyChange><Frequency dt:dt=""r8"">3215273</Frequency><Timestamp dt:dt=""r8"">1613894523851</Timestamp><Current dt:dt=""r8"">0</Current><DateUtc dt:dt=""string"">2018-10-25T20:20:21Z</DateUtc></FrequencyChange></FrequencyChanges></Clock>\n",KW_Experiment5A-46-1,59.945,1.0.0.105,1,-1012567885,Professional,2.0.10.353,2.0.10.353,10/25/2018,10/25/2018 20:20,16:20:21,2.0.10.248,3,2,1,3,,,,,,,,TrainingProc,BlockList,12,1,Distractor1.bmp,1,0,,0,1,294951,401,,0,0,purple,400,1,400,5,vertical,purple,Distractor1.bmp,yellow,Distractor2.bmp,red,Distractor2.bmp,lime,Target1.bmp,blue,Distractor1.bmp,cyan,Distractor2.bmp,,,,TrialProc,,TrainingTrialList,1,1,-999999,1,295352,0,1,725,296077,Target1.bmp,lime,1,,,,4,3,60
KW_Experiment5A,46,1,"<?xml version=""1.0""?>\n<Clock xmlns:dt=""urn:schemas-microsoft-com:datatypes""><Description dt:dt=""string"">E-Prime Primary Realtime Clock</Description><StartTime><Timestamp dt:dt=""int"">0</Timestamp><DateUtc dt:dt=""string"">2018-10-25T20:20:21Z</DateUtc></StartTime><FrequencyChanges><FrequencyChange><Frequency dt:dt=""r8"">3215273</Frequency><Timestamp dt:dt=""r8"">1613894523851</Timestamp><Current dt:dt=""r8"">0</Current><DateUtc dt:dt=""string"">2018-10-25T20:20:21Z</DateUtc></FrequencyChange></FrequencyChanges></Clock>\n",KW_Experiment5A-46-1,59.945,1.0.0.105,1,-1012567885,Professional,2.0.10.353,2.0.10.353,10/25/2018,10/25/2018 20:20,16:20:21,2.0.10.248,3,2,1,3,,,,,,,,TrainingProc,BlockList,13,1,Distractor1.bmp,1,0,,0,1,297087,400,,0,0,purple,400,1,400,5,vertical,purple,Distractor2.bmp,cyan,Distractor1.bmp,red,Distractor2.bmp,lime,Target1.bmp,yellow,Distractor1.bmp,blue,Distractor2.bmp,,,,TrialProc,,TrainingTrialList,1,1,-999999,0,297487,0,1,478,297965,Target1.bmp,lime,1,,,,4,3,61
KW_Experiment5A,46,1,"<?xml version=""1.0""?>\n<Clock xmlns:dt=""urn:schemas-microsoft-com:datatypes""><Description dt:dt=""string"">E-Prime Primary Realtime Clock</Description><StartTime><Timestamp dt:dt=""int"">0</Timestamp><DateUtc dt:dt=""string"">2018-10-25T20:20:21Z</DateUtc></StartTime><FrequencyChanges><FrequencyChange><Frequency dt:dt=""r8"">3215273</Frequency><Timestamp dt:dt=""r8"">1613894523851</Timestamp><Current dt:dt=""r8"">0</Current><DateUtc dt:dt=""string"">2018-10-25T20:20:21Z</DateUtc></FrequencyChange></FrequencyChanges></Clock>\n",KW_Experiment5A-46-1,59.945,1.0.0.105,1,-1012567885,Professional,2.0.10.353,2.0.10.353,10/25/2018,10/25/2018 20:20,16:20:21,2.0.10.248,3,2,1,3,,,,,,,,TrainingProc,BlockList,14,1,Distractor1.bmp,1,0,,0,0,298988,601,,0,0,yellow,600,3,600,2,vertical,yellow,Distractor1.bmp,purple,Distractor2.bmp,blue,Distractor1.bmp,cyan,Distractor2.bmp,lime,Target1.bmp,red,Distractor1.bmp,,,,TrialProc,,TrainingTrialList,1,1,-999999,1,299589,0,1,584,300173,Target1.bmp,lime,1,,,,5,3,62
KW_Experiment5A,46,1,"<?xml version=""1.0""?>\n<Clock xmlns:dt=""urn:schemas-microsoft-com:datatypes""><Description dt:dt=""string"">E-Prime Primary Realtime Clock</Description><StartTime><Timestamp dt:dt=""int"">0</Timestamp><DateUtc dt:dt=""string"">2018-10-25T20:20:21Z</DateUtc></StartTime><FrequencyChanges><FrequencyChange><Frequency dt:dt=""r8"">3215273</Frequency><Timestamp dt:dt=""r8"">1613894523851</Timestamp><Current dt:dt=""r8"">0</Current><DateUtc dt:dt=""string"">2018-10-25T20:20:21Z</DateUtc></FrequencyChange></FrequencyChanges></Clock>\n",KW_Experiment5A-46-1,59.945,1.0.0.105,1,-1012567885,Professional,2.0.10.353,2.0.10.353,10/25/2018,10/25/2018 20:20,16:20:21,2.0.10.248,3,2,1,3,,,,,,,,TrainingProc,BlockList,15,2,Distractor2.bmp,2,0,,1,0,301190,501,,0,0,purple,500,2,500,,horizontal,purple,Distractor1.bmp,yellow,Distractor1.bmp,lime,Distractor1.bmp,blue,Distractor2.bmp,red,Target2.bmp,cyan,Distractor2.bmp,,,,TrialProc,5,TrainingTrialList,1,2,-999999,1,301691,0,2,562,302253,Target2.bmp,red,2,,,,11,3,63
KW_Experiment5A,46,1,"<?xml version=""1.0""?>\n<Clock xmlns:dt=""urn:schemas-microsoft-com:datatypes""><Description dt:dt=""string"">E-Prime Primary Realtime Clock</Description><StartTime><Timestamp dt:dt=""int"">0</Timestamp><DateUtc dt:dt=""string"">2018-10-25T20:20:21Z</DateUtc></StartTime><FrequencyChanges><FrequencyChange><Frequency dt:dt=""r8"">3215273</Frequency><Timestamp dt:dt=""r8"">1613894523851</Timestamp><Current dt:dt=""r8"">0</Current><DateUtc dt:dt=""string"">2018-10-25T20:20:21Z</DateUtc></FrequencyChange></FrequencyChanges></Clock>\n",KW_Experiment5A-46-1,59.945,1.0.0.105,1,-1012567885,Professional,2.0.10.353,2.0.10.353,10/25/2018,10/25/2018 20:20,16:20:21,2.0.10.248,3,2,1,3,,,,,,,,TrainingProc,BlockList,16,1,Distractor1.bmp,1,0,,0,1,303276,400,,0,0,blue,400,1,400,,vertical,blue,Distractor1.bmp,yellow,Distractor1.bmp,red,Target1.bmp,cyan,Distractor1.bmp,purple,Distractor2.bmp,lime,Distractor1.bmp,,,,TrialProc,3,TrainingTrialList,1,1,-999999,0,303676,0,1,961,304637,Target1.bmp,red,1,,,,9,3,64
KW_Experiment5A,46,1,"<?xml version=""1.0""?>\n<Clock xmlns:dt=""urn:schemas-microsoft-com:datatypes""><Description dt:dt=""string"">E-Prime Primary Realtime Clock</Description><StartTime><Timestamp dt:dt=""int"">0</Timestamp><DateUtc dt:dt=""string"">2018-10-25T20:20:21Z</DateUtc></StartTime><FrequencyChanges><FrequencyChange><Frequency dt:dt=""r8"">3215273</Frequency><Timestamp dt:dt=""r8"">1613894523851</Timestamp><Current dt:dt=""r8"">0</Current><DateUtc dt:dt=""string"">2018-10-25T20:20:21Z</DateUtc></FrequencyChange></FrequencyChanges></Clock>\n",KW_Experiment5A-46-1,59.945,1.0.0.105,1,-1012567885,Professional,2.0.10.353,2.0.10.353,10/25/2018,10/25/2018 20:20,16:20:21,2.0.10.248,3,2,1,3,,,,,,,,TrainingProc,BlockList,17,2,Distractor1.bmp,1,0,,0,1,305661,401,,0,0,cyan,400,1,400,4,horizontal,lime,Target2.bmp,cyan,Distractor1.bmp,red,Distractor1.bmp,yellow,Distractor1.bmp,blue,Distractor2.bmp,purple,Distractor1.bmp,,,,TrialProc,,TrainingTrialList,1,2,-999999,1,306062,0,2,719,306781,Target2.bmp,lime,2,,,,1,3,65
KW_Experiment5A,46,1,"<?xml version=""1.0""?>\n<Clock xmlns:dt=""urn:schemas-microsoft-com:datatypes""><Description dt:dt=""string"">E-Prime Primary Realtime Clock</Description><StartTime><Timestamp dt:dt=""int"">0</Timestamp><DateUtc dt:dt=""string"">2018-10-25T20:20:21Z</DateUtc></StartTime><FrequencyChanges><FrequencyChange><Frequency dt:dt=""r8"">3215273</Frequency><Timestamp dt:dt=""r8"">1613894523851</Timestamp><Current dt:dt=""r8"">0</Current><DateUtc dt:dt=""string"">2018-10-25T20:20:21Z</DateUtc></FrequencyChange></FrequencyChanges></Clock>\n",KW_Experiment5A-46-1,59.945,1.0.0.105,1,-1012567885,Professional,2.0.10.353,2.0.10.353,10/25/2018,10/25/2018 20:20,16:20:21,2.0.10.248,3,2,1,3,,,,,,,,TrainingProc,BlockList,18,2,Distractor2.bmp,2,0,,1,0,307796,401,,0,0,red,400,1,400,1,horizontal,red,Distractor2.bmp,yellow,Distractor2.bmp,blue,Distractor2.bmp,cyan,Distractor1.bmp,purple,Distractor1.bmp,lime,Target2.bmp,,,,TrialProc,,TrainingTrialList,0,2,-999999,1,308197,0,1,672,308869,Target2.bmp,lime,2,,,,6,3,66
KW_Experiment5A,46,1,"<?xml version=""1.0""?>\n<Clock xmlns:dt=""urn:schemas-microsoft-com:datatypes""><Description dt:dt=""string"">E-Prime Primary Realtime Clock</Description><StartTime><Timestamp dt:dt=""int"">0</Timestamp><DateUtc dt:dt=""string"">2018-10-25T20:20:21Z</DateUtc></StartTime><FrequencyChanges><FrequencyChange><Frequency dt:dt=""r8"">3215273</Frequency><Timestamp dt:dt=""r8"">1613894523851</Timestamp><Current dt:dt=""r8"">0</Current><DateUtc dt:dt=""string"">2018-10-25T20:20:21Z</DateUtc></FrequencyChange></FrequencyChanges></Clock>\n",KW_Experiment5A-46-1,59.945,1.0.0.105,1,-1012567885,Professional,2.0.10.353,2.0.10.353,10/25/2018,10/25/2018 20:20,16:20:21,2.0.10.248,3,2,1,3,,,,,,,,TrainingProc,BlockList,19,1,Distractor2.bmp,2,0,,0,1,309882,500,,0,0,blue,500,2,500,3,vertical,blue,Distractor2.bmp,yellow,Distractor2.bmp,lime,Target1.bmp,red,Distractor2.bmp,purple,Distractor1.bmp,cyan,Distractor2.bmp,,,,TrialProc,,TrainingTrialList,1,1,-999999,0,310382,0,1,855,311237,Target1.bmp,lime,1,,,,3,3,67
KW_Experiment5A,46,1,"<?xml version=""1.0""?>\n<Clock xmlns:dt=""urn:schemas-microsoft-com:datatypes""><Description dt:dt=""string"">E-Prime Primary Realtime Clock</Description><StartTime><Timestamp dt:dt=""int"">0</Timestamp><DateUtc dt:dt=""string"">2018-10-25T20:20:21Z</DateUtc></StartTime><FrequencyChanges><FrequencyChange><Frequency dt:dt=""r8"">3215273</Frequency><Timestamp dt:dt=""r8"">1613894523851</Timestamp><Current dt:dt=""r8"">0</Current><DateUtc dt:dt=""string"">2018-10-25T20:20:21Z</DateUtc></FrequencyChange></FrequencyChanges></Clock>\n",KW_Experiment5A-46-1,59.945,1.0.0.105,1,-1012567885,Professional,2.0.10.353,2.0.10.353,10/25/2018,10/25/2018 20:20,16:20:21,2.0.10.248,3,2,1,3,,,,,,,,TrainingProc,BlockList,20,2,Distractor2.bmp,2,0,,0,1,312251,400,,0,0,yellow,400,1,400,2,horizontal,yellow,Distractor2.bmp,cyan,Distractor2.bmp,red,Distractor2.bmp,purple,Distractor2.bmp,blue,Distractor2.bmp,lime,Target2.bmp,,,,TrialProc,,TrainingTrialList,1,2,-999999,0,312651,0,2,682,313333,Target2.bmp,lime,2,,,,6,3,68
KW_Experiment5A,46,1,"<?xml version=""1.0""?>\n<Clock xmlns:dt=""urn:schemas-microsoft-com:datatypes""><Description dt:dt=""string"">E-Prime Primary Realtime Clock</Description><StartTime><Timestamp dt:dt=""int"">0</Timestamp><DateUtc dt:dt=""string"">2018-10-25T20:20:21Z</DateUtc></StartTime><FrequencyChanges><FrequencyChange><Frequency dt:dt=""r8"">3215273</Frequency><Timestamp dt:dt=""r8"">1613894523851</Timestamp><Current dt:dt=""r8"">0</Current><DateUtc dt:dt=""string"">2018-10-25T20:20:21Z</DateUtc></FrequencyChange></FrequencyChanges></Clock>\n",KW_Experiment5A-46-1,59.945,1.0.0.105,1,-1012567885,Professional,2.0.10.353,2.0.10.353,10/25/2018,10/25/2018 20:20,16:20:21,2.0.10.248,3,2,1,3,,,,,,,,TrainingProc,BlockList,21,2,Distractor2.bmp,2,0,,1,0,314352,501,,0,0,yellow,500,2,500,2,horizontal,yellow,Distractor1.bmp,lime,Target2.bmp,blue,Distractor2.bmp,red,Distractor2.bmp,purple,Distractor2.bmp,cyan,Distractor2.bmp,,,,TrialProc,,TrainingTrialList,1,2,-999999,1,314853,0,2,568,315421,Target2.bmp,lime,2,,,,2,3,69
KW_Experiment5A,46,1,"<?xml version=""1.0""?>\n<Clock xmlns:dt=""urn:schemas-microsoft-com:datatypes""><Description dt:dt=""string"">E-Prime Primary Realtime Clock</Description><StartTime><Timestamp dt:dt=""int"">0</Timestamp><DateUtc dt:dt=""string"">2018-10-25T20:20:21Z</DateUtc></StartTime><FrequencyChanges><FrequencyChange><Frequency dt:dt=""r8"">3215273</Frequency><Timestamp dt:dt=""r8"">1613894523851</Timestamp><Current dt:dt=""r8"">0</Current><DateUtc dt:dt=""string"">2018-10-25T20:20:21Z</DateUtc></FrequencyChange></FrequencyChanges></Clock>\n",KW_Experiment5A-46-1,59.945,1.0.0.105,1,-1012567885,Professional,2.0.10.353,2.0.10.353,10/25/2018,10/25/2018 20:20,16:20:21,2.0.10.248,3,2,1,3,,,,,,,,TrainingProc,BlockList,22,2,Distractor1.bmp,1,0,,0,1,316438,600,,0,0,red,600,3,600,1,horizontal,red,Distractor2.bmp,yellow,Distractor2.bmp,lime,Target2.bmp,purple,Distractor1.bmp,cyan,Distractor1.bmp,blue,Distractor2.bmp,,,,TrialProc,,TrainingTrialList,1,2,-999999,0,317038,0,2,598,317636,Target2.bmp,lime,2,,,,3,3,70
KW_Experiment5A,46,1,"<?xml version=""1.0""?>\n<Clock xmlns:dt=""urn:schemas-microsoft-com:datatypes""><Description dt:dt=""string"">E-Prime Primary Realtime Clock</Description><StartTime><Timestamp dt:dt=""int"">0</Timestamp><DateUtc dt:dt=""string"">2018-10-25T20:20:21Z</DateUtc></StartTime><FrequencyChanges><FrequencyChange><Frequency dt:dt=""r8"">3215273</Frequency><Timestamp dt:dt=""r8"">1613894523851</Timestamp><Current dt:dt=""r8"">0</Current><DateUtc dt:dt=""string"">2018-10-25T20:20:21Z</DateUtc></FrequencyChange></FrequencyChanges></Clock>\n",KW_Experiment5A-46-1,59.945,1.0.0.105,1,-1012567885,Professional,2.0.10.353,2.0.10.353,10/25/2018,10/25/2018 20:20,16:20:21,2.0.10.248,3,2,1,3,,,,,,,,TrainingProc,BlockList,23,2,Distractor1.bmp,1,0,,0,1,318656,601,,0,0,red,600,3,600,1,horizontal,red,Distractor2.bmp,lime,Target2.bmp,yellow,Distractor1.bmp,purple,Distractor2.bmp,blue,Distractor2.bmp,cyan,Distractor2.bmp,,,,TrialProc,,TrainingTrialList,1,2,-999999,1,319257,0,2,659,319916,Target2.bmp,lime,2,,,,2,3,71
KW_Experiment5A,46,1,"<?xml version=""1.0""?>\n<Clock xmlns:dt=""urn:schemas-microsoft-com:datatypes""><Description dt:dt=""string"">E-Prime Primary Realtime Clock</Description><StartTime><Timestamp dt:dt=""int"">0</Timestamp><DateUtc dt:dt=""string"">2018-10-25T20:20:21Z</DateUtc></StartTime><FrequencyChanges><FrequencyChange><Frequency dt:dt=""r8"">3215273</Frequency><Timestamp dt:dt=""r8"">1613894523851</Timestamp><Current dt:dt=""r8"">0</Current><DateUtc dt:dt=""string"">2018-10-25T20:20:21Z</DateUtc></FrequencyChange></FrequencyChanges></Clock>\n",KW_Experiment5A-46-1,59.945,1.0.0.105,1,-1012567885,Professional,2.0.10.353,2.0.10.353,10/25/2018,10/25/2018 20:20,16:20:21,2.0.10.248,3,2,1,3,,,,,,,,TrainingProc,BlockList,24,2,Distractor1.bmp,1,0,,0,1,320942,600,,0,0,lime,600,3,600,,horizontal,lime,Distractor1.bmp,yellow,Distractor1.bmp,purple,Distractor2.bmp,blue,Distractor2.bmp,cyan,Distractor2.bmp,red,Target2.bmp,,,,TrialProc,6,TrainingTrialList,1,2,-999999,0,321542,0,2,838,322380,Target2.bmp,red,2,,,,12,3,72
KW_Experiment5A,46,1,"<?xml version=""1.0""?>\n<Clock xmlns:dt=""urn:schemas-microsoft-com:datatypes""><Description dt:dt=""string"">E-Prime Primary Realtime Clock</Description><StartTime><Timestamp dt:dt=""int"">0</Timestamp><DateUtc dt:dt=""string"">2018-10-25T20:20:21Z</DateUtc></StartTime><FrequencyChanges><FrequencyChange><Frequency dt:dt=""r8"">3215273</Frequency><Timestamp dt:dt=""r8"">1613894523851</Timestamp><Current dt:dt=""r8"">0</Current><DateUtc dt:dt=""string"">2018-10-25T20:20:21Z</DateUtc></FrequencyChange></FrequencyChanges></Clock>\n",KW_Experiment5A-46-1,59.945,1.0.0.105,1,-1012567885,Professional,2.0.10.353,2.0.10.353,10/25/2018,10/25/2018 20:20,16:20:21,2.0.10.248,3,2,1,3,,,,,,,,TrainingProc,BlockList,25,1,Distractor2.bmp,2,0,,0,1,323394,501,,0,0,yellow,500,2,500,2,vertical,yellow,Distractor2.bmp,red,Distractor1.bmp,lime,Target1.bmp,purple,Distractor2.bmp,blue,Distractor1.bmp,cyan,Distractor1.bmp,,,,TrialProc,,TrainingTrialList,1,1,-999999,1,323895,0,1,693,324588,Target1.bmp,lime,1,,,,3,4,73
KW_Experiment5A,46,1,"<?xml version=""1.0""?>\n<Clock xmlns:dt=""urn:schemas-microsoft-com:datatypes""><Description dt:dt=""string"">E-Prime Primary Realtime Clock</Description><StartTime><Timestamp dt:dt=""int"">0</Timestamp><DateUtc dt:dt=""string"">2018-10-25T20:20:21Z</DateUtc></StartTime><FrequencyChanges><FrequencyChange><Frequency dt:dt=""r8"">3215273</Frequency><Timestamp dt:dt=""r8"">1613894523851</Timestamp><Current dt:dt=""r8"">0</Current><DateUtc dt:dt=""string"">2018-10-25T20:20:21Z</DateUtc></FrequencyChange></FrequencyChanges></Clock>\n",KW_Experiment5A-46-1,59.945,1.0.0.105,1,-1012567885,Professional,2.0.10.353,2.0.10.353,10/25/2018,10/25/2018 20:20,16:20:21,2.0.10.248,3,2,1,3,,,,,,,,TrainingProc,BlockList,26,2,Distractor1.bmp,1,0,,0,1,325613,400,,0,0,blue,400,1,400,3,horizontal,blue,Distractor2.bmp,lime,Target2.bmp,yellow,Distractor1.bmp,purple,Distractor1.bmp,cyan,Distractor1.bmp,red,Distractor2.bmp,,,,TrialProc,,TrainingTrialList,1,2,-999999,0,326013,0,2,487,326500,Target2.bmp,lime,2,,,,2,4,74
KW_Experiment5A,46,1,"<?xml version=""1.0""?>\n<Clock xmlns:dt=""urn:schemas-microsoft-com:datatypes""><Description dt:dt=""string"">E-Prime Primary Realtime Clock</Description><StartTime><Timestamp dt:dt=""int"">0</Timestamp><DateUtc dt:dt=""string"">2018-10-25T20:20:21Z</DateUtc></StartTime><FrequencyChanges><FrequencyChange><Frequency dt:dt=""r8"">3215273</Frequency><Timestamp dt:dt=""r8"">1613894523851</Timestamp><Current dt:dt=""r8"">0</Current><DateUtc dt:dt=""string"">2018-10-25T20:20:21Z</DateUtc></FrequencyChange></FrequencyChanges></Clock>\n",KW_Experiment5A-46-1,59.945,1.0.0.105,1,-1012567885,Professional,2.0.10.353,2.0.10.353,10/25/2018,10/25/2018 20:20,16:20:21,2.0.10.248,3,2,1,3,,,,,,,,TrainingProc,BlockList,27,1,Distractor2.bmp,2,0,,1,0,327514,501,,0,0,blue,500,2,500,3,vertical,blue,Distractor2.bmp,yellow,Distractor1.bmp,purple,Distractor2.bmp,cyan,Distractor2.bmp,lime,Target1.bmp,red,Distractor2.bmp,,,,TrialProc,,TrainingTrialList,1,1,-999999,1,328015,0,1,533,328548,Target1.bmp,lime,1,,,,5,4,75
KW_Experiment5A,46,1,"<?xml version=""1.0""?>\n<Clock xmlns:dt=""urn:schemas-microsoft-com:datatypes""><Description dt:dt=""string"">E-Prime Primary Realtime Clock</Description><StartTime><Timestamp dt:dt=""int"">0</Timestamp><DateUtc dt:dt=""string"">2018-10-25T20:20:21Z</DateUtc></StartTime><FrequencyChanges><FrequencyChange><Frequency dt:dt=""r8"">3215273</Frequency><Timestamp dt:dt=""r8"">1613894523851</Timestamp><Current dt:dt=""r8"">0</Current><DateUtc dt:dt=""string"">2018-10-25T20:20:21Z</DateUtc></FrequencyChange></FrequencyChanges></Clock>\n",KW_Experiment5A-46-1,59.945,1.0.0.105,1,-1012567885,Professional,2.0.10.353,2.0.10.353,10/25/2018,10/25/2018 20:20,16:20:21,2.0.10.248,3,2,1,3,,,,,,,,TrainingProc,BlockList,28,2,Distractor1.bmp,1,0,,0,1,329566,601,,0,0,purple,600,3,600,5,horizontal,purple,Distractor2.bmp,lime,Target2.bmp,cyan,Distractor1.bmp,blue,Distractor1.bmp,red,Distractor2.bmp,yellow,Distractor2.bmp,,,,TrialProc,,TrainingTrialList,1,2,-999999,1,330167,0,2,493,330660,Target2.bmp,lime,2,,,,2,4,76
KW_Experiment5A,46,1,"<?xml version=""1.0""?>\n<Clock xmlns:dt=""urn:schemas-microsoft-com:datatypes""><Description dt:dt=""string"">E-Prime Primary Realtime Clock</Description><StartTime><Timestamp dt:dt=""int"">0</Timestamp><DateUtc dt:dt=""string"">2018-10-25T20:20:21Z</DateUtc></StartTime><FrequencyChanges><FrequencyChange><Frequency dt:dt=""r8"">3215273</Frequency><Timestamp dt:dt=""r8"">1613894523851</Timestamp><Current dt:dt=""r8"">0</Current><DateUtc dt:dt=""string"">2018-10-25T20:20:21Z</DateUtc></FrequencyChange></FrequencyChanges></Clock>\n",KW_Experiment5A-46-1,59.945,1.0.0.105,1,-1012567885,Professional,2.0.10.353,2.0.10.353,10/25/2018,10/25/2018 20:20,16:20:21,2.0.10.248,3,2,1,3,,,,,,,,TrainingProc,BlockList,29,1,Distractor2.bmp,2,0,,0,1,331685,500,,0,0,cyan,500,2,500,4,vertical,cyan,Distractor1.bmp,purple,Distractor1.bmp,red,Distractor2.bmp,lime,Target1.bmp,blue,Distractor2.bmp,yellow,Distractor2.bmp,,,,TrialProc,,TrainingTrialList,1,1,-999999,0,332185,0,1,675,332860,Target1.bmp,lime,1,,,,4,4,77
KW_Experiment5A,46,1,"<?xml version=""1.0""?>\n<Clock xmlns:dt=""urn:schemas-microsoft-com:datatypes""><Description dt:dt=""string"">E-Prime Primary Realtime Clock</Description><StartTime><Timestamp dt:dt=""int"">0</Timestamp><DateUtc dt:dt=""string"">2018-10-25T20:20:21Z</DateUtc></StartTime><FrequencyChanges><FrequencyChange><Frequency dt:dt=""r8"">3215273</Frequency><Timestamp dt:dt=""r8"">1613894523851</Timestamp><Current dt:dt=""r8"">0</Current><DateUtc dt:dt=""string"">2018-10-25T20:20:21Z</DateUtc></FrequencyChange></FrequencyChanges></Clock>\n",KW_Experiment5A-46-1,59.945,1.0.0.105,1,-1012567885,Professional,2.0.10.353,2.0.10.353,10/25/2018,10/25/2018 20:20,16:20:21,2.0.10.248,3,2,1,3,,,,,,,,TrainingProc,BlockList,30,2,Distractor1.bmp,1,0,,0,1,333870,401,,0,0,blue,400,1,400,3,horizontal,blue,Distractor1.bmp,lime,Target2.bmp,cyan,Distractor1.bmp,purple,Distractor2.bmp,red,Distractor2.bmp,yellow,Distractor1.bmp,,,,TrialProc,,TrainingTrialList,1,2,-999999,1,334271,0,2,469,334740,Target2.bmp,lime,2,,,,2,4,78
KW_Experiment5A,46,1,"<?xml version=""1.0""?>\n<Clock xmlns:dt=""urn:schemas-microsoft-com:datatypes""><Description dt:dt=""string"">E-Prime Primary Realtime Clock</Description><StartTime><Timestamp dt:dt=""int"">0</Timestamp><DateUtc dt:dt=""string"">2018-10-25T20:20:21Z</DateUtc></StartTime><FrequencyChanges><FrequencyChange><Frequency dt:dt=""r8"">3215273</Frequency><Timestamp dt:dt=""r8"">1613894523851</Timestamp><Current dt:dt=""r8"">0</Current><DateUtc dt:dt=""string"">2018-10-25T20:20:21Z</DateUtc></FrequencyChange></FrequencyChanges></Clock>\n",KW_Experiment5A-46-1,59.945,1.0.0.105,1,-1012567885,Professional,2.0.10.353,2.0.10.353,10/25/2018,10/25/2018 20:20,16:20:21,2.0.10.248,3,2,1,3,,,,,,,,TrainingProc,BlockList,31,2,Distractor2.bmp,2,0,,0,1,335755,601,,0,0,red,600,3,600,1,horizontal,lime,Target2.bmp,red,Distractor2.bmp,blue,Distractor1.bmp,cyan,Distractor2.bmp,purple,Distractor1.bmp,yellow,Distractor1.bmp,,,,TrialProc,,TrainingTrialList,1,2,-999999,1,336356,0,2,592,336948,Target2.bmp,lime,2,,,,1,4,79
KW_Experiment5A,46,1,"<?xml version=""1.0""?>\n<Clock xmlns:dt=""urn:schemas-microsoft-com:datatypes""><Description dt:dt=""string"">E-Prime Primary Realtime Clock</Description><StartTime><Timestamp dt:dt=""int"">0</Timestamp><DateUtc dt:dt=""string"">2018-10-25T20:20:21Z</DateUtc></StartTime><FrequencyChanges><FrequencyChange><Frequency dt:dt=""r8"">3215273</Frequency><Timestamp dt:dt=""r8"">1613894523851</Timestamp><Current dt:dt=""r8"">0</Current><DateUtc dt:dt=""string"">2018-10-25T20:20:21Z</DateUtc></FrequencyChange></FrequencyChanges></Clock>\n",KW_Experiment5A-46-1,59.945,1.0.0.105,1,-1012567885,Professional,2.0.10.353,2.0.10.353,10/25/2018,10/25/2018 20:20,16:20:21,2.0.10.248,3,2,1,3,,,,,,,,TrainingProc,BlockList,32,2,Distractor2.bmp,2,0,,0,1,337957,501,,0,0,cyan,500,2,500,4,horizontal,cyan,Distractor2.bmp,yellow,Distractor1.bmp,blue,Distractor2.bmp,purple,Distractor1.bmp,red,Distractor2.bmp,lime,Target2.bmp,,,,TrialProc,,TrainingTrialList,1,2,-999999,1,338458,0,2,754,339212,Target2.bmp,lime,2,,,,6,4,80
KW_Experiment5A,46,1,"<?xml version=""1.0""?>\n<Clock xmlns:dt=""urn:schemas-microsoft-com:datatypes""><Description dt:dt=""string"">E-Prime Primary Realtime Clock</Description><StartTime><Timestamp dt:dt=""int"">0</Timestamp><DateUtc dt:dt=""string"">2018-10-25T20:20:21Z</DateUtc></StartTime><FrequencyChanges><FrequencyChange><Frequency dt:dt=""r8"">3215273</Frequency><Timestamp dt:dt=""r8"">1613894523851</Timestamp><Current dt:dt=""r8"">0</Current><DateUtc dt:dt=""string"">2018-10-25T20:20:21Z</DateUtc></FrequencyChange></FrequencyChanges></Clock>\n",KW_Experiment5A-46-1,59.945,1.0.0.105,1,-1012567885,Professional,2.0.10.353,2.0.10.353,10/25/2018,10/25/2018 20:20,16:20:21,2.0.10.248,3,2,1,3,,,,,,,,TrainingProc,BlockList,33,2,Distractor1.bmp,1,0,,0,1,340226,501,,0,0,yellow,500,2,500,,horizontal,red,Target2.bmp,purple,Distractor1.bmp,cyan,Distractor1.bmp,blue,Distractor1.bmp,lime,Distractor2.bmp,yellow,Distractor1.bmp,,,,TrialProc,2,TrainingTrialList,1,2,-999999,1,340727,0,2,493,341220,Target2.bmp,red,2,,,,7,4,81
KW_Experiment5A,46,1,"<?xml version=""1.0""?>\n<Clock xmlns:dt=""urn:schemas-microsoft-com:datatypes""><Description dt:dt=""string"">E-Prime Primary Realtime Clock</Description><StartTime><Timestamp dt:dt=""int"">0</Timestamp><DateUtc dt:dt=""string"">2018-10-25T20:20:21Z</DateUtc></StartTime><FrequencyChanges><FrequencyChange><Frequency dt:dt=""r8"">3215273</Frequency><Timestamp dt:dt=""r8"">1613894523851</Timestamp><Current dt:dt=""r8"">0</Current><DateUtc dt:dt=""string"">2018-10-25T20:20:21Z</DateUtc></FrequencyChange></FrequencyChanges></Clock>\n",KW_Experiment5A-46-1,59.945,1.0.0.105,1,-1012567885,Professional,2.0.10.353,2.0.10.353,10/25/2018,10/25/2018 20:20,16:20:21,2.0.10.248,3,2,1,3,,,,,,,,TrainingProc,BlockList,34,2,Distractor2.bmp,2,0,,0,1,342245,400,,0,0,blue,400,1,400,3,horizontal,blue,Distractor2.bmp,cyan,Distractor2.bmp,yellow,Distractor1.bmp,lime,Target2.bmp,purple,Distractor2.bmp,red,Distractor1.bmp,,,,TrialProc,,TrainingTrialList,1,2,-999999,0,342645,0,2,935,343580,Target2.bmp,lime,2,,,,4,4,82
KW_Experiment5A,46,1,"<?xml version=""1.0""?>\n<Clock xmlns:dt=""urn:schemas-microsoft-com:datatypes""><Description dt:dt=""string"">E-Prime Primary Realtime Clock</Description><StartTime><Timestamp dt:dt=""int"">0</Timestamp><DateUtc dt:dt=""string"">2018-10-25T20:20:21Z</DateUtc></StartTime><FrequencyChanges><FrequencyChange><Frequency dt:dt=""r8"">3215273</Frequency><Timestamp dt:dt=""r8"">1613894523851</Timestamp><Current dt:dt=""r8"">0</Current><DateUtc dt:dt=""string"">2018-10-25T20:20:21Z</DateUtc></FrequencyChange></FrequencyChanges></Clock>\n",KW_Experiment5A-46-1,59.945,1.0.0.105,1,-1012567885,Professional,2.0.10.353,2.0.10.353,10/25/2018,10/25/2018 20:20,16:20:21,2.0.10.248,3,2,1,3,,,,,,,,TrainingProc,BlockList,35,2,Distractor2.bmp,2,0,,0,1,344597,500,,0,0,cyan,500,2,500,4,horizontal,cyan,Distractor1.bmp,red,Distractor2.bmp,lime,Target2.bmp,blue,Distractor2.bmp,purple,Distractor1.bmp,yellow,Distractor2.bmp,,,,TrialProc,,TrainingTrialList,1,2,-999999,0,345097,0,2,595,345692,Target2.bmp,lime,2,,,,3,4,83
KW_Experiment5A,46,1,"<?xml version=""1.0""?>\n<Clock xmlns:dt=""urn:schemas-microsoft-com:datatypes""><Description dt:dt=""string"">E-Prime Primary Realtime Clock</Description><StartTime><Timestamp dt:dt=""int"">0</Timestamp><DateUtc dt:dt=""string"">2018-10-25T20:20:21Z</DateUtc></StartTime><FrequencyChanges><FrequencyChange><Frequency dt:dt=""r8"">3215273</Frequency><Timestamp dt:dt=""r8"">1613894523851</Timestamp><Current dt:dt=""r8"">0</Current><DateUtc dt:dt=""string"">2018-10-25T20:20:21Z</DateUtc></FrequencyChange></FrequencyChanges></Clock>\n",KW_Experiment5A-46-1,59.945,1.0.0.105,1,-1012567885,Professional,2.0.10.353,2.0.10.353,10/25/2018,10/25/2018 20:20,16:20:21,2.0.10.248,3,2,1,3,,,,,,,,TrainingProc,BlockList,36,1,Distractor1.bmp,1,0,,0,1,346715,401,,0,0,red,400,1,400,1,vertical,red,Distractor1.bmp,cyan,Distractor2.bmp,purple,Distractor2.bmp,blue,Distractor1.bmp,lime,Target1.bmp,yellow,Distractor1.bmp,,,,TrialProc,,TrainingTrialList,1,1,-999999,1,347116,0,1,472,347588,Target1.bmp,lime,1,,,,5,4,84
KW_Experiment5A,46,1,"<?xml version=""1.0""?>\n<Clock xmlns:dt=""urn:schemas-microsoft-com:datatypes""><Description dt:dt=""string"">E-Prime Primary Realtime Clock</Description><StartTime><Timestamp dt:dt=""int"">0</Timestamp><DateUtc dt:dt=""string"">2018-10-25T20:20:21Z</DateUtc></StartTime><FrequencyChanges><FrequencyChange><Frequency dt:dt=""r8"">3215273</Frequency><Timestamp dt:dt=""r8"">1613894523851</Timestamp><Current dt:dt=""r8"">0</Current><DateUtc dt:dt=""string"">2018-10-25T20:20:21Z</DateUtc></FrequencyChange></FrequencyChanges></Clock>\n",KW_Experiment5A-46-1,59.945,1.0.0.105,1,-1012567885,Professional,2.0.10.353,2.0.10.353,10/25/2018,10/25/2018 20:20,16:20:21,2.0.10.248,3,2,1,3,,,,,,,,TrainingProc,BlockList,37,1,Distractor1.bmp,1,0,,1,0,348600,401,,0,0,red,400,1,400,1,vertical,red,Distractor1.bmp,yellow,Distractor1.bmp,blue,Distractor2.bmp,purple,Distractor2.bmp,lime,Target1.bmp,cyan,Distractor1.bmp,,,,TrialProc,,TrainingTrialList,1,1,-999999,1,349001,0,1,475,349476,Target1.bmp,lime,1,,,,5,4,85
KW_Experiment5A,46,1,"<?xml version=""1.0""?>\n<Clock xmlns:dt=""urn:schemas-microsoft-com:datatypes""><Description dt:dt=""string"">E-Prime Primary Realtime Clock</Description><StartTime><Timestamp dt:dt=""int"">0</Timestamp><DateUtc dt:dt=""string"">2018-10-25T20:20:21Z</DateUtc></StartTime><FrequencyChanges><FrequencyChange><Frequency dt:dt=""r8"">3215273</Frequency><Timestamp dt:dt=""r8"">1613894523851</Timestamp><Current dt:dt=""r8"">0</Current><DateUtc dt:dt=""string"">2018-10-25T20:20:21Z</DateUtc></FrequencyChange></FrequencyChanges></Clock>\n",KW_Experiment5A-46-1,59.945,1.0.0.105,1,-1012567885,Professional,2.0.10.353,2.0.10.353,10/25/2018,10/25/2018 20:20,16:20:21,2.0.10.248,3,2,1,3,,,,,,,,TrainingProc,BlockList,38,1,Distractor2.bmp,2,0,,1,0,350485,401,,0,0,purple,400,1,400,,vertical,purple,Distractor2.bmp,yellow,Distractor1.bmp,cyan,Distractor1.bmp,red,Target1.bmp,lime,Distractor2.bmp,blue,Distractor2.bmp,,,,TrialProc,5,TrainingTrialList,1,1,-999999,1,350886,0,1,758,351644,Target1.bmp,red,1,,,,10,4,86
KW_Experiment5A,46,1,"<?xml version=""1.0""?>\n<Clock xmlns:dt=""urn:schemas-microsoft-com:datatypes""><Description dt:dt=""string"">E-Prime Primary Realtime Clock</Description><StartTime><Timestamp dt:dt=""int"">0</Timestamp><DateUtc dt:dt=""string"">2018-10-25T20:20:21Z</DateUtc></StartTime><FrequencyChanges><FrequencyChange><Frequency dt:dt=""r8"">3215273</Frequency><Timestamp dt:dt=""r8"">1613894523851</Timestamp><Current dt:dt=""r8"">0</Current><DateUtc dt:dt=""string"">2018-10-25T20:20:21Z</DateUtc></FrequencyChange></FrequencyChanges></Clock>\n",KW_Experiment5A-46-1,59.945,1.0.0.105,1,-1012567885,Professional,2.0.10.353,2.0.10.353,10/25/2018,10/25/2018 20:20,16:20:21,2.0.10.248,3,2,1,3,,,,,,,,TrainingProc,BlockList,39,1,Distractor1.bmp,1,0,,0,1,352654,401,,0,0,blue,400,1,400,3,vertical,blue,Distractor2.bmp,red,Distractor2.bmp,lime,Target1.bmp,cyan,Distractor1.bmp,purple,Distractor1.bmp,yellow,Distractor1.bmp,,,,TrialProc,,TrainingTrialList,1,1,-999999,1,353055,0,1,933,353988,Target1.bmp,lime,1,,,,3,4,87
KW_Experiment5A,46,1,"<?xml version=""1.0""?>\n<Clock xmlns:dt=""urn:schemas-microsoft-com:datatypes""><Description dt:dt=""string"">E-Prime Primary Realtime Clock</Description><StartTime><Timestamp dt:dt=""int"">0</Timestamp><DateUtc dt:dt=""string"">2018-10-25T20:20:21Z</DateUtc></StartTime><FrequencyChanges><FrequencyChange><Frequency dt:dt=""r8"">3215273</Frequency><Timestamp dt:dt=""r8"">1613894523851</Timestamp><Current dt:dt=""r8"">0</Current><DateUtc dt:dt=""string"">2018-10-25T20:20:21Z</DateUtc></FrequencyChange></FrequencyChanges></Clock>\n",KW_Experiment5A-46-1,59.945,1.0.0.105,1,-1012567885,Professional,2.0.10.353,2.0.10.353,10/25/2018,10/25/2018 20:20,16:20:21,2.0.10.248,3,2,1,3,,,,,,,,TrainingProc,BlockList,40,1,Distractor1.bmp,1,0,,0,1,355006,601,,0,0,red,600,3,600,1,vertical,red,Distractor1.bmp,yellow,Distractor1.bmp,cyan,Distractor2.bmp,purple,Distractor1.bmp,blue,Distractor2.bmp,lime,Target1.bmp,,,,TrialProc,,TrainingTrialList,1,1,-999999,1,355607,0,1,597,356204,Target1.bmp,lime,1,,,,6,4,88
KW_Experiment5A,46,1,"<?xml version=""1.0""?>\n<Clock xmlns:dt=""urn:schemas-microsoft-com:datatypes""><Description dt:dt=""string"">E-Prime Primary Realtime Clock</Description><StartTime><Timestamp dt:dt=""int"">0</Timestamp><DateUtc dt:dt=""string"">2018-10-25T20:20:21Z</DateUtc></StartTime><FrequencyChanges><FrequencyChange><Frequency dt:dt=""r8"">3215273</Frequency><Timestamp dt:dt=""r8"">1613894523851</Timestamp><Current dt:dt=""r8"">0</Current><DateUtc dt:dt=""string"">2018-10-25T20:20:21Z</DateUtc></FrequencyChange></FrequencyChanges></Clock>\n",KW_Experiment5A-46-1,59.945,1.0.0.105,1,-1012567885,Professional,2.0.10.353,2.0.10.353,10/25/2018,10/25/2018 20:20,16:20:21,2.0.10.248,3,2,1,3,,,,,,,,TrainingProc,BlockList,41,1,Distractor2.bmp,2,0,,0,1,357225,500,,0,0,cyan,500,2,500,4,vertical,cyan,Distractor2.bmp,blue,Distractor2.bmp,purple,Distractor1.bmp,lime,Target1.bmp,red,Distractor2.bmp,yellow,Distractor1.bmp,,,,TrialProc,,TrainingTrialList,1,1,-999999,0,357725,0,1,647,358372,Target1.bmp,lime,1,,,,4,4,89
KW_Experiment5A,46,1,"<?xml version=""1.0""?>\n<Clock xmlns:dt=""urn:schemas-microsoft-com:datatypes""><Description dt:dt=""string"">E-Prime Primary Realtime Clock</Description><StartTime><Timestamp dt:dt=""int"">0</Timestamp><DateUtc dt:dt=""string"">2018-10-25T20:20:21Z</DateUtc></StartTime><FrequencyChanges><FrequencyChange><Frequency dt:dt=""r8"">3215273</Frequency><Timestamp dt:dt=""r8"">1613894523851</Timestamp><Current dt:dt=""r8"">0</Current><DateUtc dt:dt=""string"">2018-10-25T20:20:21Z</DateUtc></FrequencyChange></FrequencyChanges></Clock>\n",KW_Experiment5A-46-1,59.945,1.0.0.105,1,-1012567885,Professional,2.0.10.353,2.0.10.353,10/25/2018,10/25/2018 20:20,16:20:21,2.0.10.248,3,2,1,3,,,,,,,,TrainingProc,BlockList,42,1,Distractor2.bmp,2,0,,0,1,359394,500,,0,0,purple,500,2,500,5,vertical,lime,Target1.bmp,purple,Distractor2.bmp,yellow,Distractor2.bmp,red,Distractor1.bmp,blue,Distractor1.bmp,cyan,Distractor2.bmp,,,,TrialProc,,TrainingTrialList,1,1,-999999,0,359894,0,1,646,360540,Target1.bmp,lime,1,,,,1,4,90
