ExperimentName,Subject,Session,Clock.Information,DataFile.Basename,Display.RefreshRate,ExperimentVersion,Group,RandomSeed,RuntimeCapabilities,RuntimeVersion,RuntimeVersionExpected,SessionDate,SessionStartDateTimeUtc,SessionTime,StudioVersion,Block,BlockList,BlockList.Cycle,BlockList.Sample,PostTestQ1.RESP,PostTestQ1CJ.RESP,PostTestQ2.RESP,PostTestQ2CJ.RESP,PostTestQ3.RESP,PostTestQ3CJ.RESP,PostTestSlide.RESP,Procedure[Block],Running[Block],Trial,CorrectResponse,Distractor,DistractorList,Fixation.ACC,Fixation.CRESP,Fixation.DurationError,Fixation.OnsetDelay,Fixation.OnsetTime,Fixation.OnsetToOnsetTime,Fixation.RESP,Fixation.RT,Fixation.RTTime,ItemColor,Jitter,JitterList,JitterTime,Lime0List,Orientation,Pos1Color,Pos1Item,Pos2Color,Pos2Item,Pos3Color,Pos3Item,Pos4Color,Pos4Item,Pos5Color,Pos5Item,Pos6Color,Pos6Item,PracticeTrialList,PracticeTrialList.Cycle,PracticeTrialList.Sample,Procedure[Trial],Red0List,Running[Trial],Stimulus.ACC,Stimulus.CRESP,Stimulus.DurationError,Stimulus.OnsetDelay,Stimulus.OnsetTime,Stimulus.OnsetToOnsetTime,Stimulus.RESP,Stimulus.RT,Stimulus.RTTime,Target,TargetColor,TargetList,TestTrialList,TestTrialList.Cycle,TestTrialList.Sample,TrainingTrialList,TrainingTrialList.Cycle,TrainingTrialList.Sample
KW_Experiment5A,22,1,"<?xml version=""1.0""?>\n<Clock xmlns:dt=""urn:schemas-microsoft-com:datatypes""><Description dt:dt=""string"">E-Prime Primary Realtime Clock</Description><StartTime><Timestamp dt:dt=""int"">0</Timestamp><DateUtc dt:dt=""string"">2018-10-15T17:55:57Z</DateUtc></StartTime><FrequencyChanges><FrequencyChange><Frequency dt:dt=""r8"">3215244</Frequency><Timestamp dt:dt=""r8"">6586616668942</Timestamp><Current dt:dt=""r8"">0</Current><DateUtc dt:dt=""string"">2018-10-15T17:55:57Z</DateUtc></FrequencyChange></FrequencyChanges></Clock>\n",KW_Experiment5A-22-1,59.944,1.0.0.105,1,-1862543222,Professional,2.0.10.353,2.0.10.353,10/15/2018,10/15/2018 17:55,13:55:58,2.0.10.248,1,1,1,1,,,,,,,,PracticeProc,BlockList,1,2,Distractor1.bmp,1,0,,0,43,67370,400,,0,0,blue,400,1,400,,horizontal,yellow,Distractor2.bmp,purple,Distractor2.bmp,blue,Distractor2.bmp,red,Target2.bmp,cyan,Distractor1.bmp,lime,Distractor2.bmp,4,1,1,TrialProc,3,PracticeTrialList,0,2,-999999,0,67770,0,1,2301,70071,Target2.bmp,red,2,,,,,,
KW_Experiment5A,22,1,"<?xml version=""1.0""?>\n<Clock xmlns:dt=""urn:schemas-microsoft-com:datatypes""><Description dt:dt=""string"">E-Prime Primary Realtime Clock</Description><StartTime><Timestamp dt:dt=""int"">0</Timestamp><DateUtc dt:dt=""string"">2018-10-15T17:55:57Z</DateUtc></StartTime><FrequencyChanges><FrequencyChange><Frequency dt:dt=""r8"">3215244</Frequency><Timestamp dt:dt=""r8"">6586616668942</Timestamp><Current dt:dt=""r8"">0</Current><DateUtc dt:dt=""string"">2018-10-15T17:55:57Z</DateUtc></FrequencyChange></FrequencyChanges></Clock>\n",KW_Experiment5A-22-1,59.944,1.0.0.105,1,-1862543222,Professional,2.0.10.353,2.0.10.353,10/15/2018,10/15/2018 17:55,13:55:58,2.0.10.248,1,1,1,1,,,,,,,,PracticeProc,BlockList,2,1,Distractor1.bmp,1,0,,0,1,71090,400,,0,0,red,400,1,400,1,vertical,yellow,Distractor2.bmp,red,Distractor2.bmp,lime,Target1.bmp,purple,Distractor1.bmp,blue,Distractor1.bmp,cyan,Distractor2.bmp,3,1,2,TrialProc,,PracticeTrialList,0,1,-999999,0,71490,0,2,3861,75351,Target1.bmp,lime,1,,,,,,
KW_Experiment5A,22,1,"<?xml version=""1.0""?>\n<Clock xmlns:dt=""urn:schemas-microsoft-com:datatypes""><Description dt:dt=""string"">E-Prime Primary Realtime Clock</Description><StartTime><Timestamp dt:dt=""int"">0</Timestamp><DateUtc dt:dt=""string"">2018-10-15T17:55:57Z</DateUtc></StartTime><FrequencyChanges><FrequencyChange><Frequency dt:dt=""r8"">3215244</Frequency><Timestamp dt:dt=""r8"">6586616668942</Timestamp><Current dt:dt=""r8"">0</Current><DateUtc dt:dt=""string"">2018-10-15T17:55:57Z</DateUtc></FrequencyChange></FrequencyChanges></Clock>\n",KW_Experiment5A-22-1,59.944,1.0.0.105,1,-1862543222,Professional,2.0.10.353,2.0.10.353,10/15/2018,10/15/2018 17:55,13:55:58,2.0.10.248,1,1,1,1,,,,,,,,PracticeProc,BlockList,3,2,Distractor1.bmp,1,0,,0,1,76378,601,,0,0,cyan,600,3,600,4,horizontal,lime,Target2.bmp,yellow,Distractor1.bmp,red,Distractor1.bmp,blue,Distractor2.bmp,purple,Distractor2.bmp,cyan,Distractor2.bmp,1,1,3,TrialProc,,PracticeTrialList,1,2,-999999,1,76979,0,2,2140,79119,Target2.bmp,lime,2,,,,,,
KW_Experiment5A,22,1,"<?xml version=""1.0""?>\n<Clock xmlns:dt=""urn:schemas-microsoft-com:datatypes""><Description dt:dt=""string"">E-Prime Primary Realtime Clock</Description><StartTime><Timestamp dt:dt=""int"">0</Timestamp><DateUtc dt:dt=""string"">2018-10-15T17:55:57Z</DateUtc></StartTime><FrequencyChanges><FrequencyChange><Frequency dt:dt=""r8"">3215244</Frequency><Timestamp dt:dt=""r8"">6586616668942</Timestamp><Current dt:dt=""r8"">0</Current><DateUtc dt:dt=""string"">2018-10-15T17:55:57Z</DateUtc></FrequencyChange></FrequencyChanges></Clock>\n",KW_Experiment5A-22-1,59.944,1.0.0.105,1,-1862543222,Professional,2.0.10.353,2.0.10.353,10/15/2018,10/15/2018 17:55,13:55:58,2.0.10.248,1,1,1,1,,,,,,,,PracticeProc,BlockList,4,1,Distractor2.bmp,2,0,,0,1,80132,600,,0,0,blue,600,3,600,3,vertical,yellow,Distractor2.bmp,purple,Distractor2.bmp,red,Distractor1.bmp,blue,Distractor2.bmp,lime,Target1.bmp,cyan,Distractor2.bmp,5,1,4,TrialProc,,PracticeTrialList,1,1,-999999,0,80732,0,1,1427,82159,Target1.bmp,lime,1,,,,,,
KW_Experiment5A,22,1,"<?xml version=""1.0""?>\n<Clock xmlns:dt=""urn:schemas-microsoft-com:datatypes""><Description dt:dt=""string"">E-Prime Primary Realtime Clock</Description><StartTime><Timestamp dt:dt=""int"">0</Timestamp><DateUtc dt:dt=""string"">2018-10-15T17:55:57Z</DateUtc></StartTime><FrequencyChanges><FrequencyChange><Frequency dt:dt=""r8"">3215244</Frequency><Timestamp dt:dt=""r8"">6586616668942</Timestamp><Current dt:dt=""r8"">0</Current><DateUtc dt:dt=""string"">2018-10-15T17:55:57Z</DateUtc></FrequencyChange></FrequencyChanges></Clock>\n",KW_Experiment5A-22-1,59.944,1.0.0.105,1,-1862543222,Professional,2.0.10.353,2.0.10.353,10/15/2018,10/15/2018 17:55,13:55:58,2.0.10.248,1,1,1,1,,,,,,,,PracticeProc,BlockList,5,1,Distractor2.bmp,2,0,,0,1,83185,400,,0,0,cyan,400,1,400,,vertical,cyan,Distractor2.bmp,red,Target1.bmp,blue,Distractor2.bmp,lime,Distractor2.bmp,yellow,Distractor2.bmp,purple,Distractor1.bmp,2,1,5,TrialProc,4,PracticeTrialList,1,1,-999999,0,83585,0,1,1246,84831,Target1.bmp,red,1,,,,,,
KW_Experiment5A,22,1,"<?xml version=""1.0""?>\n<Clock xmlns:dt=""urn:schemas-microsoft-com:datatypes""><Description dt:dt=""string"">E-Prime Primary Realtime Clock</Description><StartTime><Timestamp dt:dt=""int"">0</Timestamp><DateUtc dt:dt=""string"">2018-10-15T17:55:57Z</DateUtc></StartTime><FrequencyChanges><FrequencyChange><Frequency dt:dt=""r8"">3215244</Frequency><Timestamp dt:dt=""r8"">6586616668942</Timestamp><Current dt:dt=""r8"">0</Current><DateUtc dt:dt=""string"">2018-10-15T17:55:57Z</DateUtc></FrequencyChange></FrequencyChanges></Clock>\n",KW_Experiment5A-22-1,59.944,1.0.0.105,1,-1862543222,Professional,2.0.10.353,2.0.10.353,10/15/2018,10/15/2018 17:55,13:55:58,2.0.10.248,1,1,1,1,,,,,,,,PracticeProc,BlockList,6,1,Distractor1.bmp,1,0,,0,1,85854,400,,0,0,yellow,400,1,400,,vertical,blue,Distractor1.bmp,cyan,Distractor1.bmp,lime,Distractor2.bmp,purple,Distractor2.bmp,yellow,Distractor1.bmp,red,Target1.bmp,6,1,6,TrialProc,2,PracticeTrialList,1,1,-999999,0,86254,0,1,1001,87255,Target1.bmp,red,1,,,,,,
KW_Experiment5A,22,1,"<?xml version=""1.0""?>\n<Clock xmlns:dt=""urn:schemas-microsoft-com:datatypes""><Description dt:dt=""string"">E-Prime Primary Realtime Clock</Description><StartTime><Timestamp dt:dt=""int"">0</Timestamp><DateUtc dt:dt=""string"">2018-10-15T17:55:57Z</DateUtc></StartTime><FrequencyChanges><FrequencyChange><Frequency dt:dt=""r8"">3215244</Frequency><Timestamp dt:dt=""r8"">6586616668942</Timestamp><Current dt:dt=""r8"">0</Current><DateUtc dt:dt=""string"">2018-10-15T17:55:57Z</DateUtc></FrequencyChange></FrequencyChanges></Clock>\n",KW_Experiment5A-22-1,59.944,1.0.0.105,1,-1862543222,Professional,2.0.10.353,2.0.10.353,10/15/2018,10/15/2018 17:55,13:55:58,2.0.10.248,2,2,1,2,,,,,,,,TrainingProc,BlockList,1,2,Distractor2.bmp,2,0,,0,26,93961,601,,0,0,yellow,600,3,600,2,horizontal,yellow,Distractor1.bmp,lime,Target2.bmp,cyan,Distractor2.bmp,blue,Distractor2.bmp,purple,Distractor2.bmp,red,Distractor2.bmp,,,,TrialProc,,TrainingTrialList,1,2,-999999,1,94562,0,2,797,95359,Target2.bmp,lime,2,,,,2,1,1
KW_Experiment5A,22,1,"<?xml version=""1.0""?>\n<Clock xmlns:dt=""urn:schemas-microsoft-com:datatypes""><Description dt:dt=""string"">E-Prime Primary Realtime Clock</Description><StartTime><Timestamp dt:dt=""int"">0</Timestamp><DateUtc dt:dt=""string"">2018-10-15T17:55:57Z</DateUtc></StartTime><FrequencyChanges><FrequencyChange><Frequency dt:dt=""r8"">3215244</Frequency><Timestamp dt:dt=""r8"">6586616668942</Timestamp><Current dt:dt=""r8"">0</Current><DateUtc dt:dt=""string"">2018-10-15T17:55:57Z</DateUtc></FrequencyChange></FrequencyChanges></Clock>\n",KW_Experiment5A-22-1,59.944,1.0.0.105,1,-1862543222,Professional,2.0.10.353,2.0.10.353,10/15/2018,10/15/2018 17:55,13:55:58,2.0.10.248,2,2,1,2,,,,,,,,TrainingProc,BlockList,2,2,Distractor1.bmp,1,0,,0,1,96380,500,,0,0,yellow,500,2,500,2,horizontal,lime,Target2.bmp,yellow,Distractor1.bmp,blue,Distractor2.bmp,red,Distractor1.bmp,cyan,Distractor1.bmp,purple,Distractor1.bmp,,,,TrialProc,,TrainingTrialList,1,2,-999999,0,96880,0,2,583,97463,Target2.bmp,lime,2,,,,1,1,2
KW_Experiment5A,22,1,"<?xml version=""1.0""?>\n<Clock xmlns:dt=""urn:schemas-microsoft-com:datatypes""><Description dt:dt=""string"">E-Prime Primary Realtime Clock</Description><StartTime><Timestamp dt:dt=""int"">0</Timestamp><DateUtc dt:dt=""string"">2018-10-15T17:55:57Z</DateUtc></StartTime><FrequencyChanges><FrequencyChange><Frequency dt:dt=""r8"">3215244</Frequency><Timestamp dt:dt=""r8"">6586616668942</Timestamp><Current dt:dt=""r8"">0</Current><DateUtc dt:dt=""string"">2018-10-15T17:55:57Z</DateUtc></FrequencyChange></FrequencyChanges></Clock>\n",KW_Experiment5A-22-1,59.944,1.0.0.105,1,-1862543222,Professional,2.0.10.353,2.0.10.353,10/15/2018,10/15/2018 17:55,13:55:58,2.0.10.248,2,2,1,2,,,,,,,,TrainingProc,BlockList,3,1,Distractor1.bmp,1,0,,0,1,98482,500,,0,0,purple,500,2,500,,vertical,purple,Distractor1.bmp,cyan,Distractor1.bmp,lime,Distractor2.bmp,yellow,Distractor2.bmp,red,Target1.bmp,blue,Distractor1.bmp,,,,TrialProc,5,TrainingTrialList,1,1,-999999,0,98982,0,1,1065,100047,Target1.bmp,red,1,,,,11,1,3
KW_Experiment5A,22,1,"<?xml version=""1.0""?>\n<Clock xmlns:dt=""urn:schemas-microsoft-com:datatypes""><Description dt:dt=""string"">E-Prime Primary Realtime Clock</Description><StartTime><Timestamp dt:dt=""int"">0</Timestamp><DateUtc dt:dt=""string"">2018-10-15T17:55:57Z</DateUtc></StartTime><FrequencyChanges><FrequencyChange><Frequency dt:dt=""r8"">3215244</Frequency><Timestamp dt:dt=""r8"">6586616668942</Timestamp><Current dt:dt=""r8"">0</Current><DateUtc dt:dt=""string"">2018-10-15T17:55:57Z</DateUtc></FrequencyChange></FrequencyChanges></Clock>\n",KW_Experiment5A-22-1,59.944,1.0.0.105,1,-1862543222,Professional,2.0.10.353,2.0.10.353,10/15/2018,10/15/2018 17:55,13:55:58,2.0.10.248,2,2,1,2,,,,,,,,TrainingProc,BlockList,4,1,Distractor1.bmp,1,0,,0,1,101068,600,,0,0,cyan,600,3,600,4,vertical,cyan,Distractor1.bmp,purple,Distractor1.bmp,lime,Target1.bmp,blue,Distractor1.bmp,red,Distractor2.bmp,yellow,Distractor2.bmp,,,,TrialProc,,TrainingTrialList,1,1,-999999,0,101668,0,1,1091,102759,Target1.bmp,lime,1,,,,3,1,4
KW_Experiment5A,22,1,"<?xml version=""1.0""?>\n<Clock xmlns:dt=""urn:schemas-microsoft-com:datatypes""><Description dt:dt=""string"">E-Prime Primary Realtime Clock</Description><StartTime><Timestamp dt:dt=""int"">0</Timestamp><DateUtc dt:dt=""string"">2018-10-15T17:55:57Z</DateUtc></StartTime><FrequencyChanges><FrequencyChange><Frequency dt:dt=""r8"">3215244</Frequency><Timestamp dt:dt=""r8"">6586616668942</Timestamp><Current dt:dt=""r8"">0</Current><DateUtc dt:dt=""string"">2018-10-15T17:55:57Z</DateUtc></FrequencyChange></FrequencyChanges></Clock>\n",KW_Experiment5A-22-1,59.944,1.0.0.105,1,-1862543222,Professional,2.0.10.353,2.0.10.353,10/15/2018,10/15/2018 17:55,13:55:58,2.0.10.248,2,2,1,2,,,,,,,,TrainingProc,BlockList,5,2,Distractor1.bmp,1,0,,0,1,103770,501,,0,0,cyan,500,2,500,,horizontal,cyan,Distractor1.bmp,lime,Distractor1.bmp,blue,Distractor1.bmp,red,Target2.bmp,yellow,Distractor1.bmp,purple,Distractor1.bmp,,,,TrialProc,4,TrainingTrialList,1,2,-999999,1,104271,0,2,912,105183,Target2.bmp,red,2,,,,10,1,5
KW_Experiment5A,22,1,"<?xml version=""1.0""?>\n<Clock xmlns:dt=""urn:schemas-microsoft-com:datatypes""><Description dt:dt=""string"">E-Prime Primary Realtime Clock</Description><StartTime><Timestamp dt:dt=""int"">0</Timestamp><DateUtc dt:dt=""string"">2018-10-15T17:55:57Z</DateUtc></StartTime><FrequencyChanges><FrequencyChange><Frequency dt:dt=""r8"">3215244</Frequency><Timestamp dt:dt=""r8"">6586616668942</Timestamp><Current dt:dt=""r8"">0</Current><DateUtc dt:dt=""string"">2018-10-15T17:55:57Z</DateUtc></FrequencyChange></FrequencyChanges></Clock>\n",KW_Experiment5A-22-1,59.944,1.0.0.105,1,-1862543222,Professional,2.0.10.353,2.0.10.353,10/15/2018,10/15/2018 17:55,13:55:58,2.0.10.248,2,2,1,2,,,,,,,,TrainingProc,BlockList,6,1,Distractor2.bmp,2,0,,0,1,106206,600,,0,0,red,600,3,600,1,vertical,red,Distractor1.bmp,blue,Distractor1.bmp,lime,Target1.bmp,cyan,Distractor2.bmp,purple,Distractor2.bmp,yellow,Distractor1.bmp,,,,TrialProc,,TrainingTrialList,0,1,-999999,0,106806,0,2,937,107743,Target1.bmp,lime,1,,,,3,1,6
KW_Experiment5A,22,1,"<?xml version=""1.0""?>\n<Clock xmlns:dt=""urn:schemas-microsoft-com:datatypes""><Description dt:dt=""string"">E-Prime Primary Realtime Clock</Description><StartTime><Timestamp dt:dt=""int"">0</Timestamp><DateUtc dt:dt=""string"">2018-10-15T17:55:57Z</DateUtc></StartTime><FrequencyChanges><FrequencyChange><Frequency dt:dt=""r8"">3215244</Frequency><Timestamp dt:dt=""r8"">6586616668942</Timestamp><Current dt:dt=""r8"">0</Current><DateUtc dt:dt=""string"">2018-10-15T17:55:57Z</DateUtc></FrequencyChange></FrequencyChanges></Clock>\n",KW_Experiment5A-22-1,59.944,1.0.0.105,1,-1862543222,Professional,2.0.10.353,2.0.10.353,10/15/2018,10/15/2018 17:55,13:55:58,2.0.10.248,2,2,1,2,,,,,,,,TrainingProc,BlockList,7,2,Distractor1.bmp,1,0,,0,1,108758,601,,0,0,lime,600,3,600,,horizontal,lime,Distractor1.bmp,cyan,Distractor1.bmp,red,Target2.bmp,blue,Distractor1.bmp,yellow,Distractor2.bmp,purple,Distractor2.bmp,,,,TrialProc,6,TrainingTrialList,1,2,-999999,1,109359,0,2,824,110183,Target2.bmp,red,2,,,,9,1,7
KW_Experiment5A,22,1,"<?xml version=""1.0""?>\n<Clock xmlns:dt=""urn:schemas-microsoft-com:datatypes""><Description dt:dt=""string"">E-Prime Primary Realtime Clock</Description><StartTime><Timestamp dt:dt=""int"">0</Timestamp><DateUtc dt:dt=""string"">2018-10-15T17:55:57Z</DateUtc></StartTime><FrequencyChanges><FrequencyChange><Frequency dt:dt=""r8"">3215244</Frequency><Timestamp dt:dt=""r8"">6586616668942</Timestamp><Current dt:dt=""r8"">0</Current><DateUtc dt:dt=""string"">2018-10-15T17:55:57Z</DateUtc></FrequencyChange></FrequencyChanges></Clock>\n",KW_Experiment5A-22-1,59.944,1.0.0.105,1,-1862543222,Professional,2.0.10.353,2.0.10.353,10/15/2018,10/15/2018 17:55,13:55:58,2.0.10.248,2,2,1,2,,,,,,,,TrainingProc,BlockList,8,1,Distractor2.bmp,2,0,,0,1,111194,600,,0,0,red,600,3,600,1,vertical,red,Distractor1.bmp,blue,Distractor1.bmp,cyan,Distractor1.bmp,purple,Distractor1.bmp,lime,Target1.bmp,yellow,Distractor2.bmp,,,,TrialProc,,TrainingTrialList,1,1,-999999,0,111794,0,1,1485,113279,Target1.bmp,lime,1,,,,5,1,8
KW_Experiment5A,22,1,"<?xml version=""1.0""?>\n<Clock xmlns:dt=""urn:schemas-microsoft-com:datatypes""><Description dt:dt=""string"">E-Prime Primary Realtime Clock</Description><StartTime><Timestamp dt:dt=""int"">0</Timestamp><DateUtc dt:dt=""string"">2018-10-15T17:55:57Z</DateUtc></StartTime><FrequencyChanges><FrequencyChange><Frequency dt:dt=""r8"">3215244</Frequency><Timestamp dt:dt=""r8"">6586616668942</Timestamp><Current dt:dt=""r8"">0</Current><DateUtc dt:dt=""string"">2018-10-15T17:55:57Z</DateUtc></FrequencyChange></FrequencyChanges></Clock>\n",KW_Experiment5A-22-1,59.944,1.0.0.105,1,-1862543222,Professional,2.0.10.353,2.0.10.353,10/15/2018,10/15/2018 17:55,13:55:58,2.0.10.248,2,2,1,2,,,,,,,,TrainingProc,BlockList,9,1,Distractor1.bmp,1,0,,0,1,114297,400,,0,0,red,400,1,400,1,vertical,lime,Target1.bmp,red,Distractor1.bmp,yellow,Distractor1.bmp,cyan,Distractor2.bmp,purple,Distractor2.bmp,blue,Distractor1.bmp,,,,TrialProc,,TrainingTrialList,1,1,-999999,0,114697,0,1,542,115239,Target1.bmp,lime,1,,,,1,1,9
KW_Experiment5A,22,1,"<?xml version=""1.0""?>\n<Clock xmlns:dt=""urn:schemas-microsoft-com:datatypes""><Description dt:dt=""string"">E-Prime Primary Realtime Clock</Description><StartTime><Timestamp dt:dt=""int"">0</Timestamp><DateUtc dt:dt=""string"">2018-10-15T17:55:57Z</DateUtc></StartTime><FrequencyChanges><FrequencyChange><Frequency dt:dt=""r8"">3215244</Frequency><Timestamp dt:dt=""r8"">6586616668942</Timestamp><Current dt:dt=""r8"">0</Current><DateUtc dt:dt=""string"">2018-10-15T17:55:57Z</DateUtc></FrequencyChange></FrequencyChanges></Clock>\n",KW_Experiment5A-22-1,59.944,1.0.0.105,1,-1862543222,Professional,2.0.10.353,2.0.10.353,10/15/2018,10/15/2018 17:55,13:55:58,2.0.10.248,2,2,1,2,,,,,,,,TrainingProc,BlockList,10,2,Distractor2.bmp,2,0,,0,1,116265,601,,0,0,red,600,3,600,1,horizontal,red,Distractor1.bmp,cyan,Distractor2.bmp,blue,Distractor1.bmp,lime,Target2.bmp,purple,Distractor2.bmp,yellow,Distractor1.bmp,,,,TrialProc,,TrainingTrialList,1,2,-999999,1,116866,0,2,1221,118087,Target2.bmp,lime,2,,,,4,1,10
KW_Experiment5A,22,1,"<?xml version=""1.0""?>\n<Clock xmlns:dt=""urn:schemas-microsoft-com:datatypes""><Description dt:dt=""string"">E-Prime Primary Realtime Clock</Description><StartTime><Timestamp dt:dt=""int"">0</Timestamp><DateUtc dt:dt=""string"">2018-10-15T17:55:57Z</DateUtc></StartTime><FrequencyChanges><FrequencyChange><Frequency dt:dt=""r8"">3215244</Frequency><Timestamp dt:dt=""r8"">6586616668942</Timestamp><Current dt:dt=""r8"">0</Current><DateUtc dt:dt=""string"">2018-10-15T17:55:57Z</DateUtc></FrequencyChange></FrequencyChanges></Clock>\n",KW_Experiment5A-22-1,59.944,1.0.0.105,1,-1862543222,Professional,2.0.10.353,2.0.10.353,10/15/2018,10/15/2018 17:55,13:55:58,2.0.10.248,2,2,1,2,,,,,,,,TrainingProc,BlockList,11,2,Distractor1.bmp,1,0,,0,1,119101,601,,0,0,red,600,3,600,1,horizontal,red,Distractor1.bmp,blue,Distractor1.bmp,cyan,Distractor2.bmp,yellow,Distractor1.bmp,purple,Distractor1.bmp,lime,Target2.bmp,,,,TrialProc,,TrainingTrialList,1,2,-999999,1,119702,0,2,505,120207,Target2.bmp,lime,2,,,,6,1,11
KW_Experiment5A,22,1,"<?xml version=""1.0""?>\n<Clock xmlns:dt=""urn:schemas-microsoft-com:datatypes""><Description dt:dt=""string"">E-Prime Primary Realtime Clock</Description><StartTime><Timestamp dt:dt=""int"">0</Timestamp><DateUtc dt:dt=""string"">2018-10-15T17:55:57Z</DateUtc></StartTime><FrequencyChanges><FrequencyChange><Frequency dt:dt=""r8"">3215244</Frequency><Timestamp dt:dt=""r8"">6586616668942</Timestamp><Current dt:dt=""r8"">0</Current><DateUtc dt:dt=""string"">2018-10-15T17:55:57Z</DateUtc></FrequencyChange></FrequencyChanges></Clock>\n",KW_Experiment5A-22-1,59.944,1.0.0.105,1,-1862543222,Professional,2.0.10.353,2.0.10.353,10/15/2018,10/15/2018 17:55,13:55:58,2.0.10.248,2,2,1,2,,,,,,,,TrainingProc,BlockList,12,2,Distractor2.bmp,2,0,,0,1,121220,500,,0,0,yellow,500,2,500,2,horizontal,yellow,Distractor1.bmp,cyan,Distractor1.bmp,blue,Distractor2.bmp,lime,Target2.bmp,red,Distractor2.bmp,purple,Distractor1.bmp,,,,TrialProc,,TrainingTrialList,1,2,-999999,0,121720,0,2,615,122335,Target2.bmp,lime,2,,,,4,1,12
KW_Experiment5A,22,1,"<?xml version=""1.0""?>\n<Clock xmlns:dt=""urn:schemas-microsoft-com:datatypes""><Description dt:dt=""string"">E-Prime Primary Realtime Clock</Description><StartTime><Timestamp dt:dt=""int"">0</Timestamp><DateUtc dt:dt=""string"">2018-10-15T17:55:57Z</DateUtc></StartTime><FrequencyChanges><FrequencyChange><Frequency dt:dt=""r8"">3215244</Frequency><Timestamp dt:dt=""r8"">6586616668942</Timestamp><Current dt:dt=""r8"">0</Current><DateUtc dt:dt=""string"">2018-10-15T17:55:57Z</DateUtc></FrequencyChange></FrequencyChanges></Clock>\n",KW_Experiment5A-22-1,59.944,1.0.0.105,1,-1862543222,Professional,2.0.10.353,2.0.10.353,10/15/2018,10/15/2018 17:55,13:55:58,2.0.10.248,2,2,1,2,,,,,,,,TrainingProc,BlockList,13,2,Distractor2.bmp,2,0,,0,1,123355,500,,0,0,red,500,2,500,1,horizontal,red,Distractor2.bmp,blue,Distractor2.bmp,purple,Distractor2.bmp,yellow,Distractor1.bmp,cyan,Distractor2.bmp,lime,Target2.bmp,,,,TrialProc,,TrainingTrialList,1,2,-999999,0,123855,0,2,600,124455,Target2.bmp,lime,2,,,,6,1,13
KW_Experiment5A,22,1,"<?xml version=""1.0""?>\n<Clock xmlns:dt=""urn:schemas-microsoft-com:datatypes""><Description dt:dt=""string"">E-Prime Primary Realtime Clock</Description><StartTime><Timestamp dt:dt=""int"">0</Timestamp><DateUtc dt:dt=""string"">2018-10-15T17:55:57Z</DateUtc></StartTime><FrequencyChanges><FrequencyChange><Frequency dt:dt=""r8"">3215244</Frequency><Timestamp dt:dt=""r8"">6586616668942</Timestamp><Current dt:dt=""r8"">0</Current><DateUtc dt:dt=""string"">2018-10-15T17:55:57Z</DateUtc></FrequencyChange></FrequencyChanges></Clock>\n",KW_Experiment5A-22-1,59.944,1.0.0.105,1,-1862543222,Professional,2.0.10.353,2.0.10.353,10/15/2018,10/15/2018 17:55,13:55:58,2.0.10.248,2,2,1,2,,,,,,,,TrainingProc,BlockList,14,1,Distractor2.bmp,2,0,,0,1,125474,500,,0,0,cyan,500,2,500,4,vertical,cyan,Distractor1.bmp,blue,Distractor1.bmp,lime,Target1.bmp,purple,Distractor2.bmp,yellow,Distractor1.bmp,red,Distractor1.bmp,,,,TrialProc,,TrainingTrialList,1,1,-999999,0,125974,0,1,497,126471,Target1.bmp,lime,1,,,,3,1,14
KW_Experiment5A,22,1,"<?xml version=""1.0""?>\n<Clock xmlns:dt=""urn:schemas-microsoft-com:datatypes""><Description dt:dt=""string"">E-Prime Primary Realtime Clock</Description><StartTime><Timestamp dt:dt=""int"">0</Timestamp><DateUtc dt:dt=""string"">2018-10-15T17:55:57Z</DateUtc></StartTime><FrequencyChanges><FrequencyChange><Frequency dt:dt=""r8"">3215244</Frequency><Timestamp dt:dt=""r8"">6586616668942</Timestamp><Current dt:dt=""r8"">0</Current><DateUtc dt:dt=""string"">2018-10-15T17:55:57Z</DateUtc></FrequencyChange></FrequencyChanges></Clock>\n",KW_Experiment5A-22-1,59.944,1.0.0.105,1,-1862543222,Professional,2.0.10.353,2.0.10.353,10/15/2018,10/15/2018 17:55,13:55:58,2.0.10.248,2,2,1,2,,,,,,,,TrainingProc,BlockList,15,1,Distractor1.bmp,1,0,,0,1,127492,400,,0,0,purple,400,1,400,5,vertical,purple,Distractor1.bmp,lime,Target1.bmp,blue,Distractor1.bmp,cyan,Distractor2.bmp,yellow,Distractor1.bmp,red,Distractor1.bmp,,,,TrialProc,,TrainingTrialList,0,1,-999999,0,127892,0,2,595,128487,Target1.bmp,lime,1,,,,2,1,15
KW_Experiment5A,22,1,"<?xml version=""1.0""?>\n<Clock xmlns:dt=""urn:schemas-microsoft-com:datatypes""><Description dt:dt=""string"">E-Prime Primary Realtime Clock</Description><StartTime><Timestamp dt:dt=""int"">0</Timestamp><DateUtc dt:dt=""string"">2018-10-15T17:55:57Z</DateUtc></StartTime><FrequencyChanges><FrequencyChange><Frequency dt:dt=""r8"">3215244</Frequency><Timestamp dt:dt=""r8"">6586616668942</Timestamp><Current dt:dt=""r8"">0</Current><DateUtc dt:dt=""string"">2018-10-15T17:55:57Z</DateUtc></FrequencyChange></FrequencyChanges></Clock>\n",KW_Experiment5A-22-1,59.944,1.0.0.105,1,-1862543222,Professional,2.0.10.353,2.0.10.353,10/15/2018,10/15/2018 17:55,13:55:58,2.0.10.248,2,2,1,2,,,,,,,,TrainingProc,BlockList,16,1,Distractor1.bmp,1,0,,0,1,129511,400,,0,0,yellow,400,1,400,2,vertical,yellow,Distractor2.bmp,blue,Distractor1.bmp,purple,Distractor1.bmp,cyan,Distractor1.bmp,lime,Target1.bmp,red,Distractor1.bmp,,,,TrialProc,,TrainingTrialList,1,1,-999999,0,129911,0,1,592,130503,Target1.bmp,lime,1,,,,5,1,16
KW_Experiment5A,22,1,"<?xml version=""1.0""?>\n<Clock xmlns:dt=""urn:schemas-microsoft-com:datatypes""><Description dt:dt=""string"">E-Prime Primary Realtime Clock</Description><StartTime><Timestamp dt:dt=""int"">0</Timestamp><DateUtc dt:dt=""string"">2018-10-15T17:55:57Z</DateUtc></StartTime><FrequencyChanges><FrequencyChange><Frequency dt:dt=""r8"">3215244</Frequency><Timestamp dt:dt=""r8"">6586616668942</Timestamp><Current dt:dt=""r8"">0</Current><DateUtc dt:dt=""string"">2018-10-15T17:55:57Z</DateUtc></FrequencyChange></FrequencyChanges></Clock>\n",KW_Experiment5A-22-1,59.944,1.0.0.105,1,-1862543222,Professional,2.0.10.353,2.0.10.353,10/15/2018,10/15/2018 17:55,13:55:58,2.0.10.248,2,2,1,2,,,,,,,,TrainingProc,BlockList,17,1,Distractor2.bmp,2,0,,1,1,131512,401,,0,0,purple,400,1,400,,vertical,red,Target1.bmp,lime,Distractor2.bmp,blue,Distractor2.bmp,yellow,Distractor1.bmp,cyan,Distractor1.bmp,purple,Distractor1.bmp,,,,TrialProc,5,TrainingTrialList,1,1,-999999,1,131913,0,1,774,132687,Target1.bmp,red,1,,,,7,1,17
KW_Experiment5A,22,1,"<?xml version=""1.0""?>\n<Clock xmlns:dt=""urn:schemas-microsoft-com:datatypes""><Description dt:dt=""string"">E-Prime Primary Realtime Clock</Description><StartTime><Timestamp dt:dt=""int"">0</Timestamp><DateUtc dt:dt=""string"">2018-10-15T17:55:57Z</DateUtc></StartTime><FrequencyChanges><FrequencyChange><Frequency dt:dt=""r8"">3215244</Frequency><Timestamp dt:dt=""r8"">6586616668942</Timestamp><Current dt:dt=""r8"">0</Current><DateUtc dt:dt=""string"">2018-10-15T17:55:57Z</DateUtc></FrequencyChange></FrequencyChanges></Clock>\n",KW_Experiment5A-22-1,59.944,1.0.0.105,1,-1862543222,Professional,2.0.10.353,2.0.10.353,10/15/2018,10/15/2018 17:55,13:55:58,2.0.10.248,2,2,1,2,,,,,,,,TrainingProc,BlockList,18,1,Distractor2.bmp,2,0,,0,1,133698,400,,0,0,cyan,400,1,400,4,vertical,cyan,Distractor2.bmp,red,Distractor1.bmp,yellow,Distractor2.bmp,purple,Distractor1.bmp,blue,Distractor1.bmp,lime,Target1.bmp,,,,TrialProc,,TrainingTrialList,1,1,-999999,0,134098,0,1,820,134918,Target1.bmp,lime,1,,,,6,1,18
KW_Experiment5A,22,1,"<?xml version=""1.0""?>\n<Clock xmlns:dt=""urn:schemas-microsoft-com:datatypes""><Description dt:dt=""string"">E-Prime Primary Realtime Clock</Description><StartTime><Timestamp dt:dt=""int"">0</Timestamp><DateUtc dt:dt=""string"">2018-10-15T17:55:57Z</DateUtc></StartTime><FrequencyChanges><FrequencyChange><Frequency dt:dt=""r8"">3215244</Frequency><Timestamp dt:dt=""r8"">6586616668942</Timestamp><Current dt:dt=""r8"">0</Current><DateUtc dt:dt=""string"">2018-10-15T17:55:57Z</DateUtc></FrequencyChange></FrequencyChanges></Clock>\n",KW_Experiment5A-22-1,59.944,1.0.0.105,1,-1862543222,Professional,2.0.10.353,2.0.10.353,10/15/2018,10/15/2018 17:55,13:55:58,2.0.10.248,2,2,1,2,,,,,,,,TrainingProc,BlockList,19,2,Distractor1.bmp,1,0,,0,1,135933,401,,0,0,lime,400,1,400,,horizontal,lime,Distractor1.bmp,cyan,Distractor2.bmp,blue,Distractor1.bmp,purple,Distractor2.bmp,yellow,Distractor1.bmp,red,Target2.bmp,,,,TrialProc,6,TrainingTrialList,1,2,-999999,1,136334,0,2,544,136878,Target2.bmp,red,2,,,,12,1,19
KW_Experiment5A,22,1,"<?xml version=""1.0""?>\n<Clock xmlns:dt=""urn:schemas-microsoft-com:datatypes""><Description dt:dt=""string"">E-Prime Primary Realtime Clock</Description><StartTime><Timestamp dt:dt=""int"">0</Timestamp><DateUtc dt:dt=""string"">2018-10-15T17:55:57Z</DateUtc></StartTime><FrequencyChanges><FrequencyChange><Frequency dt:dt=""r8"">3215244</Frequency><Timestamp dt:dt=""r8"">6586616668942</Timestamp><Current dt:dt=""r8"">0</Current><DateUtc dt:dt=""string"">2018-10-15T17:55:57Z</DateUtc></FrequencyChange></FrequencyChanges></Clock>\n",KW_Experiment5A-22-1,59.944,1.0.0.105,1,-1862543222,Professional,2.0.10.353,2.0.10.353,10/15/2018,10/15/2018 17:55,13:55:58,2.0.10.248,2,2,1,2,,,,,,,,TrainingProc,BlockList,20,2,Distractor1.bmp,1,0,,0,1,137902,400,,0,0,cyan,400,1,400,4,horizontal,lime,Target2.bmp,cyan,Distractor1.bmp,purple,Distractor1.bmp,yellow,Distractor1.bmp,blue,Distractor2.bmp,red,Distractor1.bmp,,,,TrialProc,,TrainingTrialList,1,2,-999999,0,138302,0,2,792,139094,Target2.bmp,lime,2,,,,1,1,20
KW_Experiment5A,22,1,"<?xml version=""1.0""?>\n<Clock xmlns:dt=""urn:schemas-microsoft-com:datatypes""><Description dt:dt=""string"">E-Prime Primary Realtime Clock</Description><StartTime><Timestamp dt:dt=""int"">0</Timestamp><DateUtc dt:dt=""string"">2018-10-15T17:55:57Z</DateUtc></StartTime><FrequencyChanges><FrequencyChange><Frequency dt:dt=""r8"">3215244</Frequency><Timestamp dt:dt=""r8"">6586616668942</Timestamp><Current dt:dt=""r8"">0</Current><DateUtc dt:dt=""string"">2018-10-15T17:55:57Z</DateUtc></FrequencyChange></FrequencyChanges></Clock>\n",KW_Experiment5A-22-1,59.944,1.0.0.105,1,-1862543222,Professional,2.0.10.353,2.0.10.353,10/15/2018,10/15/2018 17:55,13:55:58,2.0.10.248,2,2,1,2,,,,,,,,TrainingProc,BlockList,21,2,Distractor1.bmp,1,0,,0,1,140104,400,,0,0,blue,400,1,400,3,horizontal,blue,Distractor2.bmp,lime,Target2.bmp,cyan,Distractor1.bmp,purple,Distractor1.bmp,yellow,Distractor2.bmp,red,Distractor1.bmp,,,,TrialProc,,TrainingTrialList,1,2,-999999,0,140504,0,2,758,141262,Target2.bmp,lime,2,,,,2,1,21
KW_Experiment5A,22,1,"<?xml version=""1.0""?>\n<Clock xmlns:dt=""urn:schemas-microsoft-com:datatypes""><Description dt:dt=""string"">E-Prime Primary Realtime Clock</Description><StartTime><Timestamp dt:dt=""int"">0</Timestamp><DateUtc dt:dt=""string"">2018-10-15T17:55:57Z</DateUtc></StartTime><FrequencyChanges><FrequencyChange><Frequency dt:dt=""r8"">3215244</Frequency><Timestamp dt:dt=""r8"">6586616668942</Timestamp><Current dt:dt=""r8"">0</Current><DateUtc dt:dt=""string"">2018-10-15T17:55:57Z</DateUtc></FrequencyChange></FrequencyChanges></Clock>\n",KW_Experiment5A-22-1,59.944,1.0.0.105,1,-1862543222,Professional,2.0.10.353,2.0.10.353,10/15/2018,10/15/2018 17:55,13:55:58,2.0.10.248,2,2,1,2,,,,,,,,TrainingProc,BlockList,22,2,Distractor1.bmp,1,0,,0,1,142272,601,,0,0,cyan,600,3,600,,horizontal,cyan,Distractor1.bmp,red,Target2.bmp,yellow,Distractor1.bmp,purple,Distractor2.bmp,blue,Distractor2.bmp,lime,Distractor1.bmp,,,,TrialProc,4,TrainingTrialList,1,2,-999999,1,142873,0,2,477,143350,Target2.bmp,red,2,,,,8,1,22
KW_Experiment5A,22,1,"<?xml version=""1.0""?>\n<Clock xmlns:dt=""urn:schemas-microsoft-com:datatypes""><Description dt:dt=""string"">E-Prime Primary Realtime Clock</Description><StartTime><Timestamp dt:dt=""int"">0</Timestamp><DateUtc dt:dt=""string"">2018-10-15T17:55:57Z</DateUtc></StartTime><FrequencyChanges><FrequencyChange><Frequency dt:dt=""r8"">3215244</Frequency><Timestamp dt:dt=""r8"">6586616668942</Timestamp><Current dt:dt=""r8"">0</Current><DateUtc dt:dt=""string"">2018-10-15T17:55:57Z</DateUtc></FrequencyChange></FrequencyChanges></Clock>\n",KW_Experiment5A-22-1,59.944,1.0.0.105,1,-1862543222,Professional,2.0.10.353,2.0.10.353,10/15/2018,10/15/2018 17:55,13:55:58,2.0.10.248,2,2,1,2,,,,,,,,TrainingProc,BlockList,23,2,Distractor1.bmp,1,0,,0,1,144374,601,,0,0,blue,600,3,600,3,horizontal,blue,Distractor2.bmp,purple,Distractor2.bmp,red,Distractor1.bmp,yellow,Distractor1.bmp,lime,Target2.bmp,cyan,Distractor1.bmp,,,,TrialProc,,TrainingTrialList,1,2,-999999,1,144975,0,2,783,145758,Target2.bmp,lime,2,,,,5,1,23
KW_Experiment5A,22,1,"<?xml version=""1.0""?>\n<Clock xmlns:dt=""urn:schemas-microsoft-com:datatypes""><Description dt:dt=""string"">E-Prime Primary Realtime Clock</Description><StartTime><Timestamp dt:dt=""int"">0</Timestamp><DateUtc dt:dt=""string"">2018-10-15T17:55:57Z</DateUtc></StartTime><FrequencyChanges><FrequencyChange><Frequency dt:dt=""r8"">3215244</Frequency><Timestamp dt:dt=""r8"">6586616668942</Timestamp><Current dt:dt=""r8"">0</Current><DateUtc dt:dt=""string"">2018-10-15T17:55:57Z</DateUtc></FrequencyChange></FrequencyChanges></Clock>\n",KW_Experiment5A-22-1,59.944,1.0.0.105,1,-1862543222,Professional,2.0.10.353,2.0.10.353,10/15/2018,10/15/2018 17:55,13:55:58,2.0.10.248,2,2,1,2,,,,,,,,TrainingProc,BlockList,24,2,Distractor1.bmp,1,0,,1,0,146776,601,,0,0,blue,600,3,600,3,horizontal,blue,Distractor1.bmp,red,Distractor1.bmp,purple,Distractor2.bmp,lime,Target2.bmp,yellow,Distractor1.bmp,cyan,Distractor2.bmp,,,,TrialProc,,TrainingTrialList,1,2,-999999,1,147377,0,2,733,148110,Target2.bmp,lime,2,,,,4,1,24
KW_Experiment5A,22,1,"<?xml version=""1.0""?>\n<Clock xmlns:dt=""urn:schemas-microsoft-com:datatypes""><Description dt:dt=""string"">E-Prime Primary Realtime Clock</Description><StartTime><Timestamp dt:dt=""int"">0</Timestamp><DateUtc dt:dt=""string"">2018-10-15T17:55:57Z</DateUtc></StartTime><FrequencyChanges><FrequencyChange><Frequency dt:dt=""r8"">3215244</Frequency><Timestamp dt:dt=""r8"">6586616668942</Timestamp><Current dt:dt=""r8"">0</Current><DateUtc dt:dt=""string"">2018-10-15T17:55:57Z</DateUtc></FrequencyChange></FrequencyChanges></Clock>\n",KW_Experiment5A-22-1,59.944,1.0.0.105,1,-1862543222,Professional,2.0.10.353,2.0.10.353,10/15/2018,10/15/2018 17:55,13:55:58,2.0.10.248,2,2,1,2,,,,,,,,TrainingProc,BlockList,25,2,Distractor1.bmp,1,0,,0,1,149129,500,,0,0,yellow,500,2,500,2,horizontal,yellow,Distractor1.bmp,purple,Distractor1.bmp,lime,Target2.bmp,blue,Distractor1.bmp,cyan,Distractor1.bmp,red,Distractor1.bmp,,,,TrialProc,,TrainingTrialList,1,2,-999999,0,149629,0,2,569,150198,Target2.bmp,lime,2,,,,3,2,25
KW_Experiment5A,22,1,"<?xml version=""1.0""?>\n<Clock xmlns:dt=""urn:schemas-microsoft-com:datatypes""><Description dt:dt=""string"">E-Prime Primary Realtime Clock</Description><StartTime><Timestamp dt:dt=""int"">0</Timestamp><DateUtc dt:dt=""string"">2018-10-15T17:55:57Z</DateUtc></StartTime><FrequencyChanges><FrequencyChange><Frequency dt:dt=""r8"">3215244</Frequency><Timestamp dt:dt=""r8"">6586616668942</Timestamp><Current dt:dt=""r8"">0</Current><DateUtc dt:dt=""string"">2018-10-15T17:55:57Z</DateUtc></FrequencyChange></FrequencyChanges></Clock>\n",KW_Experiment5A-22-1,59.944,1.0.0.105,1,-1862543222,Professional,2.0.10.353,2.0.10.353,10/15/2018,10/15/2018 17:55,13:55:58,2.0.10.248,2,2,1,2,,,,,,,,TrainingProc,BlockList,26,1,Distractor1.bmp,1,0,,0,1,151214,500,,0,0,purple,500,2,500,5,vertical,purple,Distractor2.bmp,lime,Target1.bmp,yellow,Distractor1.bmp,blue,Distractor2.bmp,red,Distractor1.bmp,cyan,Distractor1.bmp,,,,TrialProc,,TrainingTrialList,1,1,-999999,0,151714,0,1,604,152318,Target1.bmp,lime,1,,,,2,2,26
KW_Experiment5A,22,1,"<?xml version=""1.0""?>\n<Clock xmlns:dt=""urn:schemas-microsoft-com:datatypes""><Description dt:dt=""string"">E-Prime Primary Realtime Clock</Description><StartTime><Timestamp dt:dt=""int"">0</Timestamp><DateUtc dt:dt=""string"">2018-10-15T17:55:57Z</DateUtc></StartTime><FrequencyChanges><FrequencyChange><Frequency dt:dt=""r8"">3215244</Frequency><Timestamp dt:dt=""r8"">6586616668942</Timestamp><Current dt:dt=""r8"">0</Current><DateUtc dt:dt=""string"">2018-10-15T17:55:57Z</DateUtc></FrequencyChange></FrequencyChanges></Clock>\n",KW_Experiment5A-22-1,59.944,1.0.0.105,1,-1862543222,Professional,2.0.10.353,2.0.10.353,10/15/2018,10/15/2018 17:55,13:55:58,2.0.10.248,2,2,1,2,,,,,,,,TrainingProc,BlockList,27,1,Distractor2.bmp,2,0,,0,1,153333,500,,0,0,yellow,500,2,500,2,vertical,lime,Target1.bmp,yellow,Distractor2.bmp,purple,Distractor1.bmp,red,Distractor2.bmp,cyan,Distractor1.bmp,blue,Distractor2.bmp,,,,TrialProc,,TrainingTrialList,1,1,-999999,0,153833,0,1,741,154574,Target1.bmp,lime,1,,,,1,2,27
KW_Experiment5A,22,1,"<?xml version=""1.0""?>\n<Clock xmlns:dt=""urn:schemas-microsoft-com:datatypes""><Description dt:dt=""string"">E-Prime Primary Realtime Clock</Description><StartTime><Timestamp dt:dt=""int"">0</Timestamp><DateUtc dt:dt=""string"">2018-10-15T17:55:57Z</DateUtc></StartTime><FrequencyChanges><FrequencyChange><Frequency dt:dt=""r8"">3215244</Frequency><Timestamp dt:dt=""r8"">6586616668942</Timestamp><Current dt:dt=""r8"">0</Current><DateUtc dt:dt=""string"">2018-10-15T17:55:57Z</DateUtc></FrequencyChange></FrequencyChanges></Clock>\n",KW_Experiment5A-22-1,59.944,1.0.0.105,1,-1862543222,Professional,2.0.10.353,2.0.10.353,10/15/2018,10/15/2018 17:55,13:55:58,2.0.10.248,2,2,1,2,,,,,,,,TrainingProc,BlockList,28,2,Distractor1.bmp,1,0,,0,1,155585,500,,0,0,purple,500,2,500,5,horizontal,purple,Distractor1.bmp,red,Distractor1.bmp,blue,Distractor1.bmp,cyan,Distractor1.bmp,yellow,Distractor2.bmp,lime,Target2.bmp,,,,TrialProc,,TrainingTrialList,1,2,-999999,0,156085,0,2,561,156646,Target2.bmp,lime,2,,,,6,2,28
KW_Experiment5A,22,1,"<?xml version=""1.0""?>\n<Clock xmlns:dt=""urn:schemas-microsoft-com:datatypes""><Description dt:dt=""string"">E-Prime Primary Realtime Clock</Description><StartTime><Timestamp dt:dt=""int"">0</Timestamp><DateUtc dt:dt=""string"">2018-10-15T17:55:57Z</DateUtc></StartTime><FrequencyChanges><FrequencyChange><Frequency dt:dt=""r8"">3215244</Frequency><Timestamp dt:dt=""r8"">6586616668942</Timestamp><Current dt:dt=""r8"">0</Current><DateUtc dt:dt=""string"">2018-10-15T17:55:57Z</DateUtc></FrequencyChange></FrequencyChanges></Clock>\n",KW_Experiment5A-22-1,59.944,1.0.0.105,1,-1862543222,Professional,2.0.10.353,2.0.10.353,10/15/2018,10/15/2018 17:55,13:55:58,2.0.10.248,2,2,1,2,,,,,,,,TrainingProc,BlockList,29,1,Distractor1.bmp,1,0,,0,1,157670,400,,0,0,yellow,400,1,400,2,vertical,yellow,Distractor1.bmp,blue,Distractor2.bmp,purple,Distractor2.bmp,red,Distractor1.bmp,cyan,Distractor1.bmp,lime,Target1.bmp,,,,TrialProc,,TrainingTrialList,1,1,-999999,0,158070,0,1,560,158630,Target1.bmp,lime,1,,,,6,2,29
KW_Experiment5A,22,1,"<?xml version=""1.0""?>\n<Clock xmlns:dt=""urn:schemas-microsoft-com:datatypes""><Description dt:dt=""string"">E-Prime Primary Realtime Clock</Description><StartTime><Timestamp dt:dt=""int"">0</Timestamp><DateUtc dt:dt=""string"">2018-10-15T17:55:57Z</DateUtc></StartTime><FrequencyChanges><FrequencyChange><Frequency dt:dt=""r8"">3215244</Frequency><Timestamp dt:dt=""r8"">6586616668942</Timestamp><Current dt:dt=""r8"">0</Current><DateUtc dt:dt=""string"">2018-10-15T17:55:57Z</DateUtc></FrequencyChange></FrequencyChanges></Clock>\n",KW_Experiment5A-22-1,59.944,1.0.0.105,1,-1862543222,Professional,2.0.10.353,2.0.10.353,10/15/2018,10/15/2018 17:55,13:55:58,2.0.10.248,2,2,1,2,,,,,,,,TrainingProc,BlockList,30,2,Distractor2.bmp,2,0,,0,1,159655,501,,0,0,blue,500,2,500,,horizontal,blue,Distractor1.bmp,cyan,Distractor1.bmp,red,Target2.bmp,lime,Distractor2.bmp,yellow,Distractor2.bmp,purple,Distractor1.bmp,,,,TrialProc,3,TrainingTrialList,1,2,-999999,1,160156,0,2,842,160998,Target2.bmp,red,2,,,,9,2,30
KW_Experiment5A,22,1,"<?xml version=""1.0""?>\n<Clock xmlns:dt=""urn:schemas-microsoft-com:datatypes""><Description dt:dt=""string"">E-Prime Primary Realtime Clock</Description><StartTime><Timestamp dt:dt=""int"">0</Timestamp><DateUtc dt:dt=""string"">2018-10-15T17:55:57Z</DateUtc></StartTime><FrequencyChanges><FrequencyChange><Frequency dt:dt=""r8"">3215244</Frequency><Timestamp dt:dt=""r8"">6586616668942</Timestamp><Current dt:dt=""r8"">0</Current><DateUtc dt:dt=""string"">2018-10-15T17:55:57Z</DateUtc></FrequencyChange></FrequencyChanges></Clock>\n",KW_Experiment5A-22-1,59.944,1.0.0.105,1,-1862543222,Professional,2.0.10.353,2.0.10.353,10/15/2018,10/15/2018 17:55,13:55:58,2.0.10.248,2,2,1,2,,,,,,,,TrainingProc,BlockList,31,2,Distractor2.bmp,2,0,,0,1,162024,600,,0,0,purple,600,3,600,5,horizontal,purple,Distractor1.bmp,yellow,Distractor2.bmp,cyan,Distractor1.bmp,red,Distractor2.bmp,lime,Target2.bmp,blue,Distractor2.bmp,,,,TrialProc,,TrainingTrialList,1,2,-999999,0,162624,0,2,614,163238,Target2.bmp,lime,2,,,,5,2,31
KW_Experiment5A,22,1,"<?xml version=""1.0""?>\n<Clock xmlns:dt=""urn:schemas-microsoft-com:datatypes""><Description dt:dt=""string"">E-Prime Primary Realtime Clock</Description><StartTime><Timestamp dt:dt=""int"">0</Timestamp><DateUtc dt:dt=""string"">2018-10-15T17:55:57Z</DateUtc></StartTime><FrequencyChanges><FrequencyChange><Frequency dt:dt=""r8"">3215244</Frequency><Timestamp dt:dt=""r8"">6586616668942</Timestamp><Current dt:dt=""r8"">0</Current><DateUtc dt:dt=""string"">2018-10-15T17:55:57Z</DateUtc></FrequencyChange></FrequencyChanges></Clock>\n",KW_Experiment5A-22-1,59.944,1.0.0.105,1,-1862543222,Professional,2.0.10.353,2.0.10.353,10/15/2018,10/15/2018 17:55,13:55:58,2.0.10.248,2,2,1,2,,,,,,,,TrainingProc,BlockList,32,2,Distractor1.bmp,1,0,,0,1,164259,401,,0,0,yellow,400,1,400,2,horizontal,yellow,Distractor2.bmp,lime,Target2.bmp,red,Distractor1.bmp,cyan,Distractor2.bmp,blue,Distractor1.bmp,purple,Distractor1.bmp,,,,TrialProc,,TrainingTrialList,1,2,-999999,1,164660,0,2,506,165166,Target2.bmp,lime,2,,,,2,2,32
KW_Experiment5A,22,1,"<?xml version=""1.0""?>\n<Clock xmlns:dt=""urn:schemas-microsoft-com:datatypes""><Description dt:dt=""string"">E-Prime Primary Realtime Clock</Description><StartTime><Timestamp dt:dt=""int"">0</Timestamp><DateUtc dt:dt=""string"">2018-10-15T17:55:57Z</DateUtc></StartTime><FrequencyChanges><FrequencyChange><Frequency dt:dt=""r8"">3215244</Frequency><Timestamp dt:dt=""r8"">6586616668942</Timestamp><Current dt:dt=""r8"">0</Current><DateUtc dt:dt=""string"">2018-10-15T17:55:57Z</DateUtc></FrequencyChange></FrequencyChanges></Clock>\n",KW_Experiment5A-22-1,59.944,1.0.0.105,1,-1862543222,Professional,2.0.10.353,2.0.10.353,10/15/2018,10/15/2018 17:55,13:55:58,2.0.10.248,2,2,1,2,,,,,,,,TrainingProc,BlockList,33,1,Distractor2.bmp,2,0,,0,1,166178,600,,0,0,cyan,600,3,600,4,vertical,cyan,Distractor2.bmp,red,Distractor1.bmp,purple,Distractor2.bmp,blue,Distractor1.bmp,lime,Target1.bmp,yellow,Distractor2.bmp,,,,TrialProc,,TrainingTrialList,1,1,-999999,0,166778,0,1,452,167230,Target1.bmp,lime,1,,,,5,2,33
KW_Experiment5A,22,1,"<?xml version=""1.0""?>\n<Clock xmlns:dt=""urn:schemas-microsoft-com:datatypes""><Description dt:dt=""string"">E-Prime Primary Realtime Clock</Description><StartTime><Timestamp dt:dt=""int"">0</Timestamp><DateUtc dt:dt=""string"">2018-10-15T17:55:57Z</DateUtc></StartTime><FrequencyChanges><FrequencyChange><Frequency dt:dt=""r8"">3215244</Frequency><Timestamp dt:dt=""r8"">6586616668942</Timestamp><Current dt:dt=""r8"">0</Current><DateUtc dt:dt=""string"">2018-10-15T17:55:57Z</DateUtc></FrequencyChange></FrequencyChanges></Clock>\n",KW_Experiment5A-22-1,59.944,1.0.0.105,1,-1862543222,Professional,2.0.10.353,2.0.10.353,10/15/2018,10/15/2018 17:55,13:55:58,2.0.10.248,2,2,1,2,,,,,,,,TrainingProc,BlockList,34,2,Distractor1.bmp,1,0,,0,1,168246,601,,0,0,blue,600,3,600,3,horizontal,blue,Distractor1.bmp,yellow,Distractor1.bmp,lime,Target2.bmp,red,Distractor1.bmp,purple,Distractor2.bmp,cyan,Distractor2.bmp,,,,TrialProc,,TrainingTrialList,1,2,-999999,1,168847,0,2,551,169398,Target2.bmp,lime,2,,,,3,2,34
KW_Experiment5A,22,1,"<?xml version=""1.0""?>\n<Clock xmlns:dt=""urn:schemas-microsoft-com:datatypes""><Description dt:dt=""string"">E-Prime Primary Realtime Clock</Description><StartTime><Timestamp dt:dt=""int"">0</Timestamp><DateUtc dt:dt=""string"">2018-10-15T17:55:57Z</DateUtc></StartTime><FrequencyChanges><FrequencyChange><Frequency dt:dt=""r8"">3215244</Frequency><Timestamp dt:dt=""r8"">6586616668942</Timestamp><Current dt:dt=""r8"">0</Current><DateUtc dt:dt=""string"">2018-10-15T17:55:57Z</DateUtc></FrequencyChange></FrequencyChanges></Clock>\n",KW_Experiment5A-22-1,59.944,1.0.0.105,1,-1862543222,Professional,2.0.10.353,2.0.10.353,10/15/2018,10/15/2018 17:55,13:55:58,2.0.10.248,2,2,1,2,,,,,,,,TrainingProc,BlockList,35,2,Distractor2.bmp,2,0,,0,1,170415,601,,0,0,red,600,3,600,1,horizontal,red,Distractor2.bmp,yellow,Distractor1.bmp,blue,Distractor1.bmp,purple,Distractor1.bmp,cyan,Distractor2.bmp,lime,Target2.bmp,,,,TrialProc,,TrainingTrialList,1,2,-999999,1,171016,0,2,454,171470,Target2.bmp,lime,2,,,,6,2,35
KW_Experiment5A,22,1,"<?xml version=""1.0""?>\n<Clock xmlns:dt=""urn:schemas-microsoft-com:datatypes""><Description dt:dt=""string"">E-Prime Primary Realtime Clock</Description><StartTime><Timestamp dt:dt=""int"">0</Timestamp><DateUtc dt:dt=""string"">2018-10-15T17:55:57Z</DateUtc></StartTime><FrequencyChanges><FrequencyChange><Frequency dt:dt=""r8"">3215244</Frequency><Timestamp dt:dt=""r8"">6586616668942</Timestamp><Current dt:dt=""r8"">0</Current><DateUtc dt:dt=""string"">2018-10-15T17:55:57Z</DateUtc></FrequencyChange></FrequencyChanges></Clock>\n",KW_Experiment5A-22-1,59.944,1.0.0.105,1,-1862543222,Professional,2.0.10.353,2.0.10.353,10/15/2018,10/15/2018 17:55,13:55:58,2.0.10.248,2,2,1,2,,,,,,,,TrainingProc,BlockList,36,2,Distractor2.bmp,2,0,,1,0,172483,401,,0,0,red,400,1,400,1,horizontal,red,Distractor2.bmp,yellow,Distractor1.bmp,lime,Target2.bmp,cyan,Distractor2.bmp,purple,Distractor1.bmp,blue,Distractor1.bmp,,,,TrialProc,,TrainingTrialList,1,2,-999999,1,172884,0,2,458,173342,Target2.bmp,lime,2,,,,3,2,36
KW_Experiment5A,22,1,"<?xml version=""1.0""?>\n<Clock xmlns:dt=""urn:schemas-microsoft-com:datatypes""><Description dt:dt=""string"">E-Prime Primary Realtime Clock</Description><StartTime><Timestamp dt:dt=""int"">0</Timestamp><DateUtc dt:dt=""string"">2018-10-15T17:55:57Z</DateUtc></StartTime><FrequencyChanges><FrequencyChange><Frequency dt:dt=""r8"">3215244</Frequency><Timestamp dt:dt=""r8"">6586616668942</Timestamp><Current dt:dt=""r8"">0</Current><DateUtc dt:dt=""string"">2018-10-15T17:55:57Z</DateUtc></FrequencyChange></FrequencyChanges></Clock>\n",KW_Experiment5A-22-1,59.944,1.0.0.105,1,-1862543222,Professional,2.0.10.353,2.0.10.353,10/15/2018,10/15/2018 17:55,13:55:58,2.0.10.248,2,2,1,2,,,,,,,,TrainingProc,BlockList,37,1,Distractor2.bmp,2,0,,0,1,174352,500,,0,0,yellow,500,2,500,2,vertical,yellow,Distractor1.bmp,lime,Target1.bmp,red,Distractor2.bmp,blue,Distractor2.bmp,purple,Distractor2.bmp,cyan,Distractor2.bmp,,,,TrialProc,,TrainingTrialList,0,1,-999999,0,174852,0,2,442,175294,Target1.bmp,lime,1,,,,2,2,37
KW_Experiment5A,22,1,"<?xml version=""1.0""?>\n<Clock xmlns:dt=""urn:schemas-microsoft-com:datatypes""><Description dt:dt=""string"">E-Prime Primary Realtime Clock</Description><StartTime><Timestamp dt:dt=""int"">0</Timestamp><DateUtc dt:dt=""string"">2018-10-15T17:55:57Z</DateUtc></StartTime><FrequencyChanges><FrequencyChange><Frequency dt:dt=""r8"">3215244</Frequency><Timestamp dt:dt=""r8"">6586616668942</Timestamp><Current dt:dt=""r8"">0</Current><DateUtc dt:dt=""string"">2018-10-15T17:55:57Z</DateUtc></FrequencyChange></FrequencyChanges></Clock>\n",KW_Experiment5A-22-1,59.944,1.0.0.105,1,-1862543222,Professional,2.0.10.353,2.0.10.353,10/15/2018,10/15/2018 17:55,13:55:58,2.0.10.248,2,2,1,2,,,,,,,,TrainingProc,BlockList,38,2,Distractor1.bmp,1,0,,0,1,176320,501,,0,0,blue,500,2,500,3,horizontal,blue,Distractor2.bmp,purple,Distractor2.bmp,red,Distractor1.bmp,cyan,Distractor1.bmp,lime,Target2.bmp,yellow,Distractor1.bmp,,,,TrialProc,,TrainingTrialList,0,2,-999999,1,176821,0,1,649,177470,Target2.bmp,lime,2,,,,5,2,38
KW_Experiment5A,22,1,"<?xml version=""1.0""?>\n<Clock xmlns:dt=""urn:schemas-microsoft-com:datatypes""><Description dt:dt=""string"">E-Prime Primary Realtime Clock</Description><StartTime><Timestamp dt:dt=""int"">0</Timestamp><DateUtc dt:dt=""string"">2018-10-15T17:55:57Z</DateUtc></StartTime><FrequencyChanges><FrequencyChange><Frequency dt:dt=""r8"">3215244</Frequency><Timestamp dt:dt=""r8"">6586616668942</Timestamp><Current dt:dt=""r8"">0</Current><DateUtc dt:dt=""string"">2018-10-15T17:55:57Z</DateUtc></FrequencyChange></FrequencyChanges></Clock>\n",KW_Experiment5A-22-1,59.944,1.0.0.105,1,-1862543222,Professional,2.0.10.353,2.0.10.353,10/15/2018,10/15/2018 17:55,13:55:58,2.0.10.248,2,2,1,2,,,,,,,,TrainingProc,BlockList,39,1,Distractor2.bmp,2,0,,0,1,178489,500,,0,0,yellow,500,2,500,,vertical,red,Target1.bmp,purple,Distractor2.bmp,blue,Distractor1.bmp,lime,Distractor1.bmp,cyan,Distractor1.bmp,yellow,Distractor2.bmp,,,,TrialProc,2,TrainingTrialList,1,1,-999999,0,178989,0,1,601,179590,Target1.bmp,red,1,,,,7,2,39
KW_Experiment5A,22,1,"<?xml version=""1.0""?>\n<Clock xmlns:dt=""urn:schemas-microsoft-com:datatypes""><Description dt:dt=""string"">E-Prime Primary Realtime Clock</Description><StartTime><Timestamp dt:dt=""int"">0</Timestamp><DateUtc dt:dt=""string"">2018-10-15T17:55:57Z</DateUtc></StartTime><FrequencyChanges><FrequencyChange><Frequency dt:dt=""r8"">3215244</Frequency><Timestamp dt:dt=""r8"">6586616668942</Timestamp><Current dt:dt=""r8"">0</Current><DateUtc dt:dt=""string"">2018-10-15T17:55:57Z</DateUtc></FrequencyChange></FrequencyChanges></Clock>\n",KW_Experiment5A-22-1,59.944,1.0.0.105,1,-1862543222,Professional,2.0.10.353,2.0.10.353,10/15/2018,10/15/2018 17:55,13:55:58,2.0.10.248,2,2,1,2,,,,,,,,TrainingProc,BlockList,40,1,Distractor2.bmp,2,0,,0,1,180608,400,,0,0,blue,400,1,400,3,vertical,lime,Target1.bmp,blue,Distractor2.bmp,red,Distractor2.bmp,yellow,Distractor1.bmp,cyan,Distractor1.bmp,purple,Distractor1.bmp,,,,TrialProc,,TrainingTrialList,1,1,-999999,0,181008,0,1,590,181598,Target1.bmp,lime,1,,,,1,2,40
KW_Experiment5A,22,1,"<?xml version=""1.0""?>\n<Clock xmlns:dt=""urn:schemas-microsoft-com:datatypes""><Description dt:dt=""string"">E-Prime Primary Realtime Clock</Description><StartTime><Timestamp dt:dt=""int"">0</Timestamp><DateUtc dt:dt=""string"">2018-10-15T17:55:57Z</DateUtc></StartTime><FrequencyChanges><FrequencyChange><Frequency dt:dt=""r8"">3215244</Frequency><Timestamp dt:dt=""r8"">6586616668942</Timestamp><Current dt:dt=""r8"">0</Current><DateUtc dt:dt=""string"">2018-10-15T17:55:57Z</DateUtc></FrequencyChange></FrequencyChanges></Clock>\n",KW_Experiment5A-22-1,59.944,1.0.0.105,1,-1862543222,Professional,2.0.10.353,2.0.10.353,10/15/2018,10/15/2018 17:55,13:55:58,2.0.10.248,2,2,1,2,,,,,,,,TrainingProc,BlockList,41,1,Distractor1.bmp,1,0,,1,0,182609,401,,0,0,cyan,400,1,400,,vertical,cyan,Distractor1.bmp,blue,Distractor1.bmp,yellow,Distractor1.bmp,red,Target1.bmp,lime,Distractor1.bmp,purple,Distractor2.bmp,,,,TrialProc,4,TrainingTrialList,1,1,-999999,1,183010,0,1,668,183678,Target1.bmp,red,1,,,,10,2,41
KW_Experiment5A,22,1,"<?xml version=""1.0""?>\n<Clock xmlns:dt=""urn:schemas-microsoft-com:datatypes""><Description dt:dt=""string"">E-Prime Primary Realtime Clock</Description><StartTime><Timestamp dt:dt=""int"">0</Timestamp><DateUtc dt:dt=""string"">2018-10-15T17:55:57Z</DateUtc></StartTime><FrequencyChanges><FrequencyChange><Frequency dt:dt=""r8"">3215244</Frequency><Timestamp dt:dt=""r8"">6586616668942</Timestamp><Current dt:dt=""r8"">0</Current><DateUtc dt:dt=""string"">2018-10-15T17:55:57Z</DateUtc></FrequencyChange></FrequencyChanges></Clock>\n",KW_Experiment5A-22-1,59.944,1.0.0.105,1,-1862543222,Professional,2.0.10.353,2.0.10.353,10/15/2018,10/15/2018 17:55,13:55:58,2.0.10.248,2,2,1,2,,,,,,,,TrainingProc,BlockList,42,1,Distractor1.bmp,1,0,,0,1,184695,400,,0,0,blue,400,1,400,,vertical,blue,Distractor1.bmp,lime,Distractor2.bmp,purple,Distractor2.bmp,yellow,Distractor2.bmp,cyan,Distractor2.bmp,red,Target1.bmp,,,,TrialProc,3,TrainingTrialList,1,1,-999999,0,185095,0,1,503,185598,Target1.bmp,red,1,,,,12,2,42
KW_Experiment5A,22,1,"<?xml version=""1.0""?>\n<Clock xmlns:dt=""urn:schemas-microsoft-com:datatypes""><Description dt:dt=""string"">E-Prime Primary Realtime Clock</Description><StartTime><Timestamp dt:dt=""int"">0</Timestamp><DateUtc dt:dt=""string"">2018-10-15T17:55:57Z</DateUtc></StartTime><FrequencyChanges><FrequencyChange><Frequency dt:dt=""r8"">3215244</Frequency><Timestamp dt:dt=""r8"">6586616668942</Timestamp><Current dt:dt=""r8"">0</Current><DateUtc dt:dt=""string"">2018-10-15T17:55:57Z</DateUtc></FrequencyChange></FrequencyChanges></Clock>\n",KW_Experiment5A-22-1,59.944,1.0.0.105,1,-1862543222,Professional,2.0.10.353,2.0.10.353,10/15/2018,10/15/2018 17:55,13:55:58,2.0.10.248,2,2,1,2,,,,,,,,TrainingProc,BlockList,43,1,Distractor1.bmp,1,0,,0,1,186613,401,,0,0,cyan,400,1,400,4,vertical,cyan,Distractor2.bmp,yellow,Distractor2.bmp,purple,Distractor2.bmp,lime,Target1.bmp,blue,Distractor1.bmp,red,Distractor1.bmp,,,,TrialProc,,TrainingTrialList,1,1,-999999,1,187014,0,1,640,187654,Target1.bmp,lime,1,,,,4,2,43
KW_Experiment5A,22,1,"<?xml version=""1.0""?>\n<Clock xmlns:dt=""urn:schemas-microsoft-com:datatypes""><Description dt:dt=""string"">E-Prime Primary Realtime Clock</Description><StartTime><Timestamp dt:dt=""int"">0</Timestamp><DateUtc dt:dt=""string"">2018-10-15T17:55:57Z</DateUtc></StartTime><FrequencyChanges><FrequencyChange><Frequency dt:dt=""r8"">3215244</Frequency><Timestamp dt:dt=""r8"">6586616668942</Timestamp><Current dt:dt=""r8"">0</Current><DateUtc dt:dt=""string"">2018-10-15T17:55:57Z</DateUtc></FrequencyChange></FrequencyChanges></Clock>\n",KW_Experiment5A-22-1,59.944,1.0.0.105,1,-1862543222,Professional,2.0.10.353,2.0.10.353,10/15/2018,10/15/2018 17:55,13:55:58,2.0.10.248,2,2,1,2,,,,,,,,TrainingProc,BlockList,44,1,Distractor1.bmp,1,0,,0,1,188665,601,,0,0,purple,600,3,600,5,vertical,purple,Distractor2.bmp,blue,Distractor2.bmp,yellow,Distractor2.bmp,lime,Target1.bmp,red,Distractor1.bmp,cyan,Distractor2.bmp,,,,TrialProc,,TrainingTrialList,1,1,-999999,1,189266,0,1,428,189694,Target1.bmp,lime,1,,,,4,2,44
KW_Experiment5A,22,1,"<?xml version=""1.0""?>\n<Clock xmlns:dt=""urn:schemas-microsoft-com:datatypes""><Description dt:dt=""string"">E-Prime Primary Realtime Clock</Description><StartTime><Timestamp dt:dt=""int"">0</Timestamp><DateUtc dt:dt=""string"">2018-10-15T17:55:57Z</DateUtc></StartTime><FrequencyChanges><FrequencyChange><Frequency dt:dt=""r8"">3215244</Frequency><Timestamp dt:dt=""r8"">6586616668942</Timestamp><Current dt:dt=""r8"">0</Current><DateUtc dt:dt=""string"">2018-10-15T17:55:57Z</DateUtc></FrequencyChange></FrequencyChanges></Clock>\n",KW_Experiment5A-22-1,59.944,1.0.0.105,1,-1862543222,Professional,2.0.10.353,2.0.10.353,10/15/2018,10/15/2018 17:55,13:55:58,2.0.10.248,2,2,1,2,,,,,,,,TrainingProc,BlockList,45,1,Distractor2.bmp,2,0,,0,1,190717,601,,0,0,blue,600,3,600,,vertical,blue,Distractor1.bmp,cyan,Distractor2.bmp,yellow,Distractor2.bmp,purple,Distractor1.bmp,red,Target1.bmp,lime,Distractor2.bmp,,,,TrialProc,3,TrainingTrialList,1,1,-999999,1,191318,0,1,472,191790,Target1.bmp,red,1,,,,11,2,45
KW_Experiment5A,22,1,"<?xml version=""1.0""?>\n<Clock xmlns:dt=""urn:schemas-microsoft-com:datatypes""><Description dt:dt=""string"">E-Prime Primary Realtime Clock</Description><StartTime><Timestamp dt:dt=""int"">0</Timestamp><DateUtc dt:dt=""string"">2018-10-15T17:55:57Z</DateUtc></StartTime><FrequencyChanges><FrequencyChange><Frequency dt:dt=""r8"">3215244</Frequency><Timestamp dt:dt=""r8"">6586616668942</Timestamp><Current dt:dt=""r8"">0</Current><DateUtc dt:dt=""string"">2018-10-15T17:55:57Z</DateUtc></FrequencyChange></FrequencyChanges></Clock>\n",KW_Experiment5A-22-1,59.944,1.0.0.105,1,-1862543222,Professional,2.0.10.353,2.0.10.353,10/15/2018,10/15/2018 17:55,13:55:58,2.0.10.248,2,2,1,2,,,,,,,,TrainingProc,BlockList,46,1,Distractor1.bmp,1,0,,0,1,192802,601,,0,0,purple,600,3,600,,vertical,purple,Distractor2.bmp,red,Target1.bmp,blue,Distractor1.bmp,lime,Distractor2.bmp,yellow,Distractor1.bmp,cyan,Distractor1.bmp,,,,TrialProc,5,TrainingTrialList,1,1,-999999,1,193403,0,1,643,194046,Target1.bmp,red,1,,,,8,2,46
KW_Experiment5A,22,1,"<?xml version=""1.0""?>\n<Clock xmlns:dt=""urn:schemas-microsoft-com:datatypes""><Description dt:dt=""string"">E-Prime Primary Realtime Clock</Description><StartTime><Timestamp dt:dt=""int"">0</Timestamp><DateUtc dt:dt=""string"">2018-10-15T17:55:57Z</DateUtc></StartTime><FrequencyChanges><FrequencyChange><Frequency dt:dt=""r8"">3215244</Frequency><Timestamp dt:dt=""r8"">6586616668942</Timestamp><Current dt:dt=""r8"">0</Current><DateUtc dt:dt=""string"">2018-10-15T17:55:57Z</DateUtc></FrequencyChange></FrequencyChanges></Clock>\n",KW_Experiment5A-22-1,59.944,1.0.0.105,1,-1862543222,Professional,2.0.10.353,2.0.10.353,10/15/2018,10/15/2018 17:55,13:55:58,2.0.10.248,2,2,1,2,,,,,,,,TrainingProc,BlockList,47,1,Distractor2.bmp,2,0,,0,1,195071,400,,0,0,yellow,400,1,400,2,vertical,yellow,Distractor1.bmp,red,Distractor1.bmp,cyan,Distractor1.bmp,lime,Target1.bmp,purple,Distractor2.bmp,blue,Distractor2.bmp,,,,TrialProc,,TrainingTrialList,1,1,-999999,0,195471,0,1,679,196150,Target1.bmp,lime,1,,,,4,2,47
KW_Experiment5A,22,1,"<?xml version=""1.0""?>\n<Clock xmlns:dt=""urn:schemas-microsoft-com:datatypes""><Description dt:dt=""string"">E-Prime Primary Realtime Clock</Description><StartTime><Timestamp dt:dt=""int"">0</Timestamp><DateUtc dt:dt=""string"">2018-10-15T17:55:57Z</DateUtc></StartTime><FrequencyChanges><FrequencyChange><Frequency dt:dt=""r8"">3215244</Frequency><Timestamp dt:dt=""r8"">6586616668942</Timestamp><Current dt:dt=""r8"">0</Current><DateUtc dt:dt=""string"">2018-10-15T17:55:57Z</DateUtc></FrequencyChange></FrequencyChanges></Clock>\n",KW_Experiment5A-22-1,59.944,1.0.0.105,1,-1862543222,Professional,2.0.10.353,2.0.10.353,10/15/2018,10/15/2018 17:55,13:55:58,2.0.10.248,2,2,1,2,,,,,,,,TrainingProc,BlockList,48,1,Distractor2.bmp,2,0,,0,1,197173,601,,0,0,yellow,600,3,600,2,vertical,lime,Target1.bmp,yellow,Distractor2.bmp,red,Distractor1.bmp,blue,Distractor2.bmp,cyan,Distractor1.bmp,purple,Distractor1.bmp,,,,TrialProc,,TrainingTrialList,1,1,-999999,1,197774,0,1,552,198326,Target1.bmp,lime,1,,,,1,2,48
KW_Experiment5A,22,1,"<?xml version=""1.0""?>\n<Clock xmlns:dt=""urn:schemas-microsoft-com:datatypes""><Description dt:dt=""string"">E-Prime Primary Realtime Clock</Description><StartTime><Timestamp dt:dt=""int"">0</Timestamp><DateUtc dt:dt=""string"">2018-10-15T17:55:57Z</DateUtc></StartTime><FrequencyChanges><FrequencyChange><Frequency dt:dt=""r8"">3215244</Frequency><Timestamp dt:dt=""r8"">6586616668942</Timestamp><Current dt:dt=""r8"">0</Current><DateUtc dt:dt=""string"">2018-10-15T17:55:57Z</DateUtc></FrequencyChange></FrequencyChanges></Clock>\n",KW_Experiment5A-22-1,59.944,1.0.0.105,1,-1862543222,Professional,2.0.10.353,2.0.10.353,10/15/2018,10/15/2018 17:55,13:55:58,2.0.10.248,3,2,1,3,,,,,,,,TrainingProc,BlockList,1,1,Distractor2.bmp,2,0,,0,20,201210,500,,0,0,red,500,2,500,1,vertical,red,Distractor1.bmp,cyan,Distractor2.bmp,yellow,Distractor2.bmp,purple,Distractor2.bmp,lime,Target1.bmp,blue,Distractor2.bmp,,,,TrialProc,,TrainingTrialList,1,1,-999999,0,201710,0,1,488,202198,Target1.bmp,lime,1,,,,5,3,49
KW_Experiment5A,22,1,"<?xml version=""1.0""?>\n<Clock xmlns:dt=""urn:schemas-microsoft-com:datatypes""><Description dt:dt=""string"">E-Prime Primary Realtime Clock</Description><StartTime><Timestamp dt:dt=""int"">0</Timestamp><DateUtc dt:dt=""string"">2018-10-15T17:55:57Z</DateUtc></StartTime><FrequencyChanges><FrequencyChange><Frequency dt:dt=""r8"">3215244</Frequency><Timestamp dt:dt=""r8"">6586616668942</Timestamp><Current dt:dt=""r8"">0</Current><DateUtc dt:dt=""string"">2018-10-15T17:55:57Z</DateUtc></FrequencyChange></FrequencyChanges></Clock>\n",KW_Experiment5A-22-1,59.944,1.0.0.105,1,-1862543222,Professional,2.0.10.353,2.0.10.353,10/15/2018,10/15/2018 17:55,13:55:58,2.0.10.248,3,2,1,3,,,,,,,,TrainingProc,BlockList,2,1,Distractor1.bmp,1,0,,0,1,203212,400,,0,0,purple,400,1,400,,vertical,purple,Distractor2.bmp,red,Target1.bmp,cyan,Distractor1.bmp,blue,Distractor1.bmp,lime,Distractor1.bmp,yellow,Distractor2.bmp,,,,TrialProc,5,TrainingTrialList,1,1,-999999,0,203612,0,1,642,204254,Target1.bmp,red,1,,,,8,3,50
KW_Experiment5A,22,1,"<?xml version=""1.0""?>\n<Clock xmlns:dt=""urn:schemas-microsoft-com:datatypes""><Description dt:dt=""string"">E-Prime Primary Realtime Clock</Description><StartTime><Timestamp dt:dt=""int"">0</Timestamp><DateUtc dt:dt=""string"">2018-10-15T17:55:57Z</DateUtc></StartTime><FrequencyChanges><FrequencyChange><Frequency dt:dt=""r8"">3215244</Frequency><Timestamp dt:dt=""r8"">6586616668942</Timestamp><Current dt:dt=""r8"">0</Current><DateUtc dt:dt=""string"">2018-10-15T17:55:57Z</DateUtc></FrequencyChange></FrequencyChanges></Clock>\n",KW_Experiment5A-22-1,59.944,1.0.0.105,1,-1862543222,Professional,2.0.10.353,2.0.10.353,10/15/2018,10/15/2018 17:55,13:55:58,2.0.10.248,3,2,1,3,,,,,,,,TrainingProc,BlockList,3,2,Distractor2.bmp,2,0,,0,1,205264,600,,0,0,purple,600,3,600,,horizontal,red,Target2.bmp,cyan,Distractor2.bmp,yellow,Distractor1.bmp,lime,Distractor1.bmp,blue,Distractor2.bmp,purple,Distractor1.bmp,,,,TrialProc,5,TrainingTrialList,1,2,-999999,0,205864,0,2,534,206398,Target2.bmp,red,2,,,,7,3,51
KW_Experiment5A,22,1,"<?xml version=""1.0""?>\n<Clock xmlns:dt=""urn:schemas-microsoft-com:datatypes""><Description dt:dt=""string"">E-Prime Primary Realtime Clock</Description><StartTime><Timestamp dt:dt=""int"">0</Timestamp><DateUtc dt:dt=""string"">2018-10-15T17:55:57Z</DateUtc></StartTime><FrequencyChanges><FrequencyChange><Frequency dt:dt=""r8"">3215244</Frequency><Timestamp dt:dt=""r8"">6586616668942</Timestamp><Current dt:dt=""r8"">0</Current><DateUtc dt:dt=""string"">2018-10-15T17:55:57Z</DateUtc></FrequencyChange></FrequencyChanges></Clock>\n",KW_Experiment5A-22-1,59.944,1.0.0.105,1,-1862543222,Professional,2.0.10.353,2.0.10.353,10/15/2018,10/15/2018 17:55,13:55:58,2.0.10.248,3,2,1,3,,,,,,,,TrainingProc,BlockList,4,2,Distractor2.bmp,2,0,,0,1,207416,500,,0,0,purple,500,2,500,5,horizontal,purple,Distractor2.bmp,cyan,Distractor2.bmp,red,Distractor1.bmp,blue,Distractor2.bmp,yellow,Distractor2.bmp,lime,Target2.bmp,,,,TrialProc,,TrainingTrialList,1,2,-999999,0,207916,0,2,666,208582,Target2.bmp,lime,2,,,,6,3,52
KW_Experiment5A,22,1,"<?xml version=""1.0""?>\n<Clock xmlns:dt=""urn:schemas-microsoft-com:datatypes""><Description dt:dt=""string"">E-Prime Primary Realtime Clock</Description><StartTime><Timestamp dt:dt=""int"">0</Timestamp><DateUtc dt:dt=""string"">2018-10-15T17:55:57Z</DateUtc></StartTime><FrequencyChanges><FrequencyChange><Frequency dt:dt=""r8"">3215244</Frequency><Timestamp dt:dt=""r8"">6586616668942</Timestamp><Current dt:dt=""r8"">0</Current><DateUtc dt:dt=""string"">2018-10-15T17:55:57Z</DateUtc></FrequencyChange></FrequencyChanges></Clock>\n",KW_Experiment5A-22-1,59.944,1.0.0.105,1,-1862543222,Professional,2.0.10.353,2.0.10.353,10/15/2018,10/15/2018 17:55,13:55:58,2.0.10.248,3,2,1,3,,,,,,,,TrainingProc,BlockList,5,1,Distractor2.bmp,2,0,,0,1,209601,601,,0,0,blue,600,3,600,3,vertical,blue,Distractor2.bmp,lime,Target1.bmp,purple,Distractor2.bmp,red,Distractor1.bmp,cyan,Distractor2.bmp,yellow,Distractor2.bmp,,,,TrialProc,,TrainingTrialList,1,1,-999999,1,210202,0,1,748,210950,Target1.bmp,lime,1,,,,2,3,53
KW_Experiment5A,22,1,"<?xml version=""1.0""?>\n<Clock xmlns:dt=""urn:schemas-microsoft-com:datatypes""><Description dt:dt=""string"">E-Prime Primary Realtime Clock</Description><StartTime><Timestamp dt:dt=""int"">0</Timestamp><DateUtc dt:dt=""string"">2018-10-15T17:55:57Z</DateUtc></StartTime><FrequencyChanges><FrequencyChange><Frequency dt:dt=""r8"">3215244</Frequency><Timestamp dt:dt=""r8"">6586616668942</Timestamp><Current dt:dt=""r8"">0</Current><DateUtc dt:dt=""string"">2018-10-15T17:55:57Z</DateUtc></FrequencyChange></FrequencyChanges></Clock>\n",KW_Experiment5A-22-1,59.944,1.0.0.105,1,-1862543222,Professional,2.0.10.353,2.0.10.353,10/15/2018,10/15/2018 17:55,13:55:58,2.0.10.248,3,2,1,3,,,,,,,,TrainingProc,BlockList,6,2,Distractor2.bmp,2,0,,0,1,211970,500,,0,0,red,500,2,500,1,horizontal,lime,Target2.bmp,red,Distractor2.bmp,purple,Distractor2.bmp,yellow,Distractor1.bmp,blue,Distractor2.bmp,cyan,Distractor2.bmp,,,,TrialProc,,TrainingTrialList,1,2,-999999,0,212470,0,2,488,212958,Target2.bmp,lime,2,,,,1,3,54
KW_Experiment5A,22,1,"<?xml version=""1.0""?>\n<Clock xmlns:dt=""urn:schemas-microsoft-com:datatypes""><Description dt:dt=""string"">E-Prime Primary Realtime Clock</Description><StartTime><Timestamp dt:dt=""int"">0</Timestamp><DateUtc dt:dt=""string"">2018-10-15T17:55:57Z</DateUtc></StartTime><FrequencyChanges><FrequencyChange><Frequency dt:dt=""r8"">3215244</Frequency><Timestamp dt:dt=""r8"">6586616668942</Timestamp><Current dt:dt=""r8"">0</Current><DateUtc dt:dt=""string"">2018-10-15T17:55:57Z</DateUtc></FrequencyChange></FrequencyChanges></Clock>\n",KW_Experiment5A-22-1,59.944,1.0.0.105,1,-1862543222,Professional,2.0.10.353,2.0.10.353,10/15/2018,10/15/2018 17:55,13:55:58,2.0.10.248,3,2,1,3,,,,,,,,TrainingProc,BlockList,7,2,Distractor2.bmp,2,0,,0,1,213972,600,,0,0,lime,600,3,600,,horizontal,lime,Distractor1.bmp,yellow,Distractor2.bmp,red,Target2.bmp,cyan,Distractor2.bmp,blue,Distractor1.bmp,purple,Distractor1.bmp,,,,TrialProc,6,TrainingTrialList,1,2,-999999,0,214572,0,2,818,215390,Target2.bmp,red,2,,,,9,3,55
KW_Experiment5A,22,1,"<?xml version=""1.0""?>\n<Clock xmlns:dt=""urn:schemas-microsoft-com:datatypes""><Description dt:dt=""string"">E-Prime Primary Realtime Clock</Description><StartTime><Timestamp dt:dt=""int"">0</Timestamp><DateUtc dt:dt=""string"">2018-10-15T17:55:57Z</DateUtc></StartTime><FrequencyChanges><FrequencyChange><Frequency dt:dt=""r8"">3215244</Frequency><Timestamp dt:dt=""r8"">6586616668942</Timestamp><Current dt:dt=""r8"">0</Current><DateUtc dt:dt=""string"">2018-10-15T17:55:57Z</DateUtc></FrequencyChange></FrequencyChanges></Clock>\n",KW_Experiment5A-22-1,59.944,1.0.0.105,1,-1862543222,Professional,2.0.10.353,2.0.10.353,10/15/2018,10/15/2018 17:55,13:55:58,2.0.10.248,3,2,1,3,,,,,,,,TrainingProc,BlockList,8,2,Distractor1.bmp,1,0,,0,1,216407,601,,0,0,cyan,600,3,600,4,horizontal,cyan,Distractor1.bmp,purple,Distractor1.bmp,blue,Distractor1.bmp,lime,Target2.bmp,red,Distractor1.bmp,yellow,Distractor2.bmp,,,,TrialProc,,TrainingTrialList,1,2,-999999,1,217008,0,2,606,217614,Target2.bmp,lime,2,,,,4,3,56
KW_Experiment5A,22,1,"<?xml version=""1.0""?>\n<Clock xmlns:dt=""urn:schemas-microsoft-com:datatypes""><Description dt:dt=""string"">E-Prime Primary Realtime Clock</Description><StartTime><Timestamp dt:dt=""int"">0</Timestamp><DateUtc dt:dt=""string"">2018-10-15T17:55:57Z</DateUtc></StartTime><FrequencyChanges><FrequencyChange><Frequency dt:dt=""r8"">3215244</Frequency><Timestamp dt:dt=""r8"">6586616668942</Timestamp><Current dt:dt=""r8"">0</Current><DateUtc dt:dt=""string"">2018-10-15T17:55:57Z</DateUtc></FrequencyChange></FrequencyChanges></Clock>\n",KW_Experiment5A-22-1,59.944,1.0.0.105,1,-1862543222,Professional,2.0.10.353,2.0.10.353,10/15/2018,10/15/2018 17:55,13:55:58,2.0.10.248,3,2,1,3,,,,,,,,TrainingProc,BlockList,9,2,Distractor1.bmp,1,0,,0,1,218626,400,,0,0,blue,400,1,400,,horizontal,blue,Distractor2.bmp,yellow,Distractor1.bmp,cyan,Distractor2.bmp,purple,Distractor2.bmp,red,Target2.bmp,lime,Distractor1.bmp,,,,TrialProc,3,TrainingTrialList,1,2,-999999,0,219026,0,2,932,219958,Target2.bmp,red,2,,,,11,3,57
KW_Experiment5A,22,1,"<?xml version=""1.0""?>\n<Clock xmlns:dt=""urn:schemas-microsoft-com:datatypes""><Description dt:dt=""string"">E-Prime Primary Realtime Clock</Description><StartTime><Timestamp dt:dt=""int"">0</Timestamp><DateUtc dt:dt=""string"">2018-10-15T17:55:57Z</DateUtc></StartTime><FrequencyChanges><FrequencyChange><Frequency dt:dt=""r8"">3215244</Frequency><Timestamp dt:dt=""r8"">6586616668942</Timestamp><Current dt:dt=""r8"">0</Current><DateUtc dt:dt=""string"">2018-10-15T17:55:57Z</DateUtc></FrequencyChange></FrequencyChanges></Clock>\n",KW_Experiment5A-22-1,59.944,1.0.0.105,1,-1862543222,Professional,2.0.10.353,2.0.10.353,10/15/2018,10/15/2018 17:55,13:55:58,2.0.10.248,3,2,1,3,,,,,,,,TrainingProc,BlockList,10,1,Distractor1.bmp,1,0,,0,1,220978,601,,0,0,cyan,600,3,600,4,vertical,cyan,Distractor2.bmp,yellow,Distractor1.bmp,red,Distractor1.bmp,lime,Target1.bmp,blue,Distractor1.bmp,purple,Distractor1.bmp,,,,TrialProc,,TrainingTrialList,1,1,-999999,1,221579,0,1,507,222086,Target1.bmp,lime,1,,,,4,3,58
KW_Experiment5A,22,1,"<?xml version=""1.0""?>\n<Clock xmlns:dt=""urn:schemas-microsoft-com:datatypes""><Description dt:dt=""string"">E-Prime Primary Realtime Clock</Description><StartTime><Timestamp dt:dt=""int"">0</Timestamp><DateUtc dt:dt=""string"">2018-10-15T17:55:57Z</DateUtc></StartTime><FrequencyChanges><FrequencyChange><Frequency dt:dt=""r8"">3215244</Frequency><Timestamp dt:dt=""r8"">6586616668942</Timestamp><Current dt:dt=""r8"">0</Current><DateUtc dt:dt=""string"">2018-10-15T17:55:57Z</DateUtc></FrequencyChange></FrequencyChanges></Clock>\n",KW_Experiment5A-22-1,59.944,1.0.0.105,1,-1862543222,Professional,2.0.10.353,2.0.10.353,10/15/2018,10/15/2018 17:55,13:55:58,2.0.10.248,3,2,1,3,,,,,,,,TrainingProc,BlockList,11,2,Distractor1.bmp,1,0,,0,1,223097,400,,0,0,red,400,1,400,1,horizontal,red,Distractor1.bmp,yellow,Distractor1.bmp,purple,Distractor2.bmp,blue,Distractor1.bmp,cyan,Distractor2.bmp,lime,Target2.bmp,,,,TrialProc,,TrainingTrialList,1,2,-999999,0,223497,0,2,757,224254,Target2.bmp,lime,2,,,,6,3,59
KW_Experiment5A,22,1,"<?xml version=""1.0""?>\n<Clock xmlns:dt=""urn:schemas-microsoft-com:datatypes""><Description dt:dt=""string"">E-Prime Primary Realtime Clock</Description><StartTime><Timestamp dt:dt=""int"">0</Timestamp><DateUtc dt:dt=""string"">2018-10-15T17:55:57Z</DateUtc></StartTime><FrequencyChanges><FrequencyChange><Frequency dt:dt=""r8"">3215244</Frequency><Timestamp dt:dt=""r8"">6586616668942</Timestamp><Current dt:dt=""r8"">0</Current><DateUtc dt:dt=""string"">2018-10-15T17:55:57Z</DateUtc></FrequencyChange></FrequencyChanges></Clock>\n",KW_Experiment5A-22-1,59.944,1.0.0.105,1,-1862543222,Professional,2.0.10.353,2.0.10.353,10/15/2018,10/15/2018 17:55,13:55:58,2.0.10.248,3,2,1,3,,,,,,,,TrainingProc,BlockList,12,2,Distractor1.bmp,1,0,,1,0,225265,601,,0,0,blue,600,3,600,,horizontal,blue,Distractor1.bmp,yellow,Distractor2.bmp,cyan,Distractor2.bmp,purple,Distractor2.bmp,lime,Distractor2.bmp,red,Target2.bmp,,,,TrialProc,3,TrainingTrialList,1,2,-999999,1,225866,0,2,508,226374,Target2.bmp,red,2,,,,12,3,60
KW_Experiment5A,22,1,"<?xml version=""1.0""?>\n<Clock xmlns:dt=""urn:schemas-microsoft-com:datatypes""><Description dt:dt=""string"">E-Prime Primary Realtime Clock</Description><StartTime><Timestamp dt:dt=""int"">0</Timestamp><DateUtc dt:dt=""string"">2018-10-15T17:55:57Z</DateUtc></StartTime><FrequencyChanges><FrequencyChange><Frequency dt:dt=""r8"">3215244</Frequency><Timestamp dt:dt=""r8"">6586616668942</Timestamp><Current dt:dt=""r8"">0</Current><DateUtc dt:dt=""string"">2018-10-15T17:55:57Z</DateUtc></FrequencyChange></FrequencyChanges></Clock>\n",KW_Experiment5A-22-1,59.944,1.0.0.105,1,-1862543222,Professional,2.0.10.353,2.0.10.353,10/15/2018,10/15/2018 17:55,13:55:58,2.0.10.248,3,2,1,3,,,,,,,,TrainingProc,BlockList,13,1,Distractor1.bmp,1,0,,0,1,227384,401,,0,0,purple,400,1,400,5,vertical,purple,Distractor2.bmp,yellow,Distractor1.bmp,cyan,Distractor2.bmp,red,Distractor2.bmp,lime,Target1.bmp,blue,Distractor1.bmp,,,,TrialProc,,TrainingTrialList,1,1,-999999,1,227785,0,1,557,228342,Target1.bmp,lime,1,,,,5,3,61
KW_Experiment5A,22,1,"<?xml version=""1.0""?>\n<Clock xmlns:dt=""urn:schemas-microsoft-com:datatypes""><Description dt:dt=""string"">E-Prime Primary Realtime Clock</Description><StartTime><Timestamp dt:dt=""int"">0</Timestamp><DateUtc dt:dt=""string"">2018-10-15T17:55:57Z</DateUtc></StartTime><FrequencyChanges><FrequencyChange><Frequency dt:dt=""r8"">3215244</Frequency><Timestamp dt:dt=""r8"">6586616668942</Timestamp><Current dt:dt=""r8"">0</Current><DateUtc dt:dt=""string"">2018-10-15T17:55:57Z</DateUtc></FrequencyChange></FrequencyChanges></Clock>\n",KW_Experiment5A-22-1,59.944,1.0.0.105,1,-1862543222,Professional,2.0.10.353,2.0.10.353,10/15/2018,10/15/2018 17:55,13:55:58,2.0.10.248,3,2,1,3,,,,,,,,TrainingProc,BlockList,14,2,Distractor2.bmp,2,0,,0,1,229353,400,,0,0,blue,400,1,400,3,horizontal,blue,Distractor2.bmp,yellow,Distractor2.bmp,lime,Target2.bmp,cyan,Distractor2.bmp,purple,Distractor2.bmp,red,Distractor2.bmp,,,,TrialProc,,TrainingTrialList,1,2,-999999,0,229753,0,2,541,230294,Target2.bmp,lime,2,,,,3,3,62
KW_Experiment5A,22,1,"<?xml version=""1.0""?>\n<Clock xmlns:dt=""urn:schemas-microsoft-com:datatypes""><Description dt:dt=""string"">E-Prime Primary Realtime Clock</Description><StartTime><Timestamp dt:dt=""int"">0</Timestamp><DateUtc dt:dt=""string"">2018-10-15T17:55:57Z</DateUtc></StartTime><FrequencyChanges><FrequencyChange><Frequency dt:dt=""r8"">3215244</Frequency><Timestamp dt:dt=""r8"">6586616668942</Timestamp><Current dt:dt=""r8"">0</Current><DateUtc dt:dt=""string"">2018-10-15T17:55:57Z</DateUtc></FrequencyChange></FrequencyChanges></Clock>\n",KW_Experiment5A-22-1,59.944,1.0.0.105,1,-1862543222,Professional,2.0.10.353,2.0.10.353,10/15/2018,10/15/2018 17:55,13:55:58,2.0.10.248,3,2,1,3,,,,,,,,TrainingProc,BlockList,15,1,Distractor1.bmp,1,0,,0,1,231304,501,,0,0,red,500,2,500,1,vertical,red,Distractor1.bmp,cyan,Distractor2.bmp,lime,Target1.bmp,yellow,Distractor1.bmp,blue,Distractor2.bmp,purple,Distractor2.bmp,,,,TrialProc,,TrainingTrialList,1,1,-999999,1,231805,0,1,577,232382,Target1.bmp,lime,1,,,,3,3,63
KW_Experiment5A,22,1,"<?xml version=""1.0""?>\n<Clock xmlns:dt=""urn:schemas-microsoft-com:datatypes""><Description dt:dt=""string"">E-Prime Primary Realtime Clock</Description><StartTime><Timestamp dt:dt=""int"">0</Timestamp><DateUtc dt:dt=""string"">2018-10-15T17:55:57Z</DateUtc></StartTime><FrequencyChanges><FrequencyChange><Frequency dt:dt=""r8"">3215244</Frequency><Timestamp dt:dt=""r8"">6586616668942</Timestamp><Current dt:dt=""r8"">0</Current><DateUtc dt:dt=""string"">2018-10-15T17:55:57Z</DateUtc></FrequencyChange></FrequencyChanges></Clock>\n",KW_Experiment5A-22-1,59.944,1.0.0.105,1,-1862543222,Professional,2.0.10.353,2.0.10.353,10/15/2018,10/15/2018 17:55,13:55:58,2.0.10.248,3,2,1,3,,,,,,,,TrainingProc,BlockList,16,1,Distractor2.bmp,2,0,,0,1,233406,401,,0,0,cyan,400,1,400,4,vertical,cyan,Distractor1.bmp,blue,Distractor1.bmp,purple,Distractor2.bmp,lime,Target1.bmp,yellow,Distractor2.bmp,red,Distractor1.bmp,,,,TrialProc,,TrainingTrialList,1,1,-999999,1,233807,0,1,447,234254,Target1.bmp,lime,1,,,,4,3,64
KW_Experiment5A,22,1,"<?xml version=""1.0""?>\n<Clock xmlns:dt=""urn:schemas-microsoft-com:datatypes""><Description dt:dt=""string"">E-Prime Primary Realtime Clock</Description><StartTime><Timestamp dt:dt=""int"">0</Timestamp><DateUtc dt:dt=""string"">2018-10-15T17:55:57Z</DateUtc></StartTime><FrequencyChanges><FrequencyChange><Frequency dt:dt=""r8"">3215244</Frequency><Timestamp dt:dt=""r8"">6586616668942</Timestamp><Current dt:dt=""r8"">0</Current><DateUtc dt:dt=""string"">2018-10-15T17:55:57Z</DateUtc></FrequencyChange></FrequencyChanges></Clock>\n",KW_Experiment5A-22-1,59.944,1.0.0.105,1,-1862543222,Professional,2.0.10.353,2.0.10.353,10/15/2018,10/15/2018 17:55,13:55:58,2.0.10.248,3,2,1,3,,,,,,,,TrainingProc,BlockList,17,2,Distractor1.bmp,1,0,,0,1,235275,600,,0,0,red,600,3,600,1,horizontal,lime,Target2.bmp,red,Distractor1.bmp,cyan,Distractor2.bmp,yellow,Distractor2.bmp,blue,Distractor1.bmp,purple,Distractor1.bmp,,,,TrialProc,,TrainingTrialList,1,2,-999999,0,235875,0,2,563,236438,Target2.bmp,lime,2,,,,1,3,65
KW_Experiment5A,22,1,"<?xml version=""1.0""?>\n<Clock xmlns:dt=""urn:schemas-microsoft-com:datatypes""><Description dt:dt=""string"">E-Prime Primary Realtime Clock</Description><StartTime><Timestamp dt:dt=""int"">0</Timestamp><DateUtc dt:dt=""string"">2018-10-15T17:55:57Z</DateUtc></StartTime><FrequencyChanges><FrequencyChange><Frequency dt:dt=""r8"">3215244</Frequency><Timestamp dt:dt=""r8"">6586616668942</Timestamp><Current dt:dt=""r8"">0</Current><DateUtc dt:dt=""string"">2018-10-15T17:55:57Z</DateUtc></FrequencyChange></FrequencyChanges></Clock>\n",KW_Experiment5A-22-1,59.944,1.0.0.105,1,-1862543222,Professional,2.0.10.353,2.0.10.353,10/15/2018,10/15/2018 17:55,13:55:58,2.0.10.248,3,2,1,3,,,,,,,,TrainingProc,BlockList,18,1,Distractor2.bmp,2,0,,0,1,237460,601,,0,0,yellow,600,3,600,2,vertical,yellow,Distractor2.bmp,cyan,Distractor1.bmp,purple,Distractor1.bmp,blue,Distractor1.bmp,red,Distractor1.bmp,lime,Target1.bmp,,,,TrialProc,,TrainingTrialList,1,1,-999999,1,238061,0,1,737,238798,Target1.bmp,lime,1,,,,6,3,66
KW_Experiment5A,22,1,"<?xml version=""1.0""?>\n<Clock xmlns:dt=""urn:schemas-microsoft-com:datatypes""><Description dt:dt=""string"">E-Prime Primary Realtime Clock</Description><StartTime><Timestamp dt:dt=""int"">0</Timestamp><DateUtc dt:dt=""string"">2018-10-15T17:55:57Z</DateUtc></StartTime><FrequencyChanges><FrequencyChange><Frequency dt:dt=""r8"">3215244</Frequency><Timestamp dt:dt=""r8"">6586616668942</Timestamp><Current dt:dt=""r8"">0</Current><DateUtc dt:dt=""string"">2018-10-15T17:55:57Z</DateUtc></FrequencyChange></FrequencyChanges></Clock>\n",KW_Experiment5A-22-1,59.944,1.0.0.105,1,-1862543222,Professional,2.0.10.353,2.0.10.353,10/15/2018,10/15/2018 17:55,13:55:58,2.0.10.248,3,2,1,3,,,,,,,,TrainingProc,BlockList,19,2,Distractor2.bmp,2,0,,0,1,239812,501,,0,0,cyan,500,2,500,,horizontal,cyan,Distractor2.bmp,lime,Distractor2.bmp,purple,Distractor1.bmp,red,Target2.bmp,yellow,Distractor2.bmp,blue,Distractor1.bmp,,,,TrialProc,4,TrainingTrialList,1,2,-999999,1,240313,0,2,636,240949,Target2.bmp,red,2,,,,10,3,67
KW_Experiment5A,22,1,"<?xml version=""1.0""?>\n<Clock xmlns:dt=""urn:schemas-microsoft-com:datatypes""><Description dt:dt=""string"">E-Prime Primary Realtime Clock</Description><StartTime><Timestamp dt:dt=""int"">0</Timestamp><DateUtc dt:dt=""string"">2018-10-15T17:55:57Z</DateUtc></StartTime><FrequencyChanges><FrequencyChange><Frequency dt:dt=""r8"">3215244</Frequency><Timestamp dt:dt=""r8"">6586616668942</Timestamp><Current dt:dt=""r8"">0</Current><DateUtc dt:dt=""string"">2018-10-15T17:55:57Z</DateUtc></FrequencyChange></FrequencyChanges></Clock>\n",KW_Experiment5A-22-1,59.944,1.0.0.105,1,-1862543222,Professional,2.0.10.353,2.0.10.353,10/15/2018,10/15/2018 17:55,13:55:58,2.0.10.248,3,2,1,3,,,,,,,,TrainingProc,BlockList,20,1,Distractor2.bmp,2,0,,0,1,241964,601,,0,0,cyan,600,3,600,4,vertical,lime,Target1.bmp,cyan,Distractor2.bmp,blue,Distractor1.bmp,red,Distractor1.bmp,yellow,Distractor2.bmp,purple,Distractor1.bmp,,,,TrialProc,,TrainingTrialList,0,1,-999999,1,242565,0,2,696,243261,Target1.bmp,lime,1,,,,1,3,68
KW_Experiment5A,22,1,"<?xml version=""1.0""?>\n<Clock xmlns:dt=""urn:schemas-microsoft-com:datatypes""><Description dt:dt=""string"">E-Prime Primary Realtime Clock</Description><StartTime><Timestamp dt:dt=""int"">0</Timestamp><DateUtc dt:dt=""string"">2018-10-15T17:55:57Z</DateUtc></StartTime><FrequencyChanges><FrequencyChange><Frequency dt:dt=""r8"">3215244</Frequency><Timestamp dt:dt=""r8"">6586616668942</Timestamp><Current dt:dt=""r8"">0</Current><DateUtc dt:dt=""string"">2018-10-15T17:55:57Z</DateUtc></FrequencyChange></FrequencyChanges></Clock>\n",KW_Experiment5A-22-1,59.944,1.0.0.105,1,-1862543222,Professional,2.0.10.353,2.0.10.353,10/15/2018,10/15/2018 17:55,13:55:58,2.0.10.248,3,2,1,3,,,,,,,,TrainingProc,BlockList,21,1,Distractor1.bmp,1,0,,0,1,244283,601,,0,0,yellow,600,3,600,2,vertical,yellow,Distractor2.bmp,lime,Target1.bmp,cyan,Distractor1.bmp,purple,Distractor2.bmp,red,Distractor1.bmp,blue,Distractor1.bmp,,,,TrialProc,,TrainingTrialList,0,1,-999999,1,244884,0,2,489,245373,Target1.bmp,lime,1,,,,2,3,69
KW_Experiment5A,22,1,"<?xml version=""1.0""?>\n<Clock xmlns:dt=""urn:schemas-microsoft-com:datatypes""><Description dt:dt=""string"">E-Prime Primary Realtime Clock</Description><StartTime><Timestamp dt:dt=""int"">0</Timestamp><DateUtc dt:dt=""string"">2018-10-15T17:55:57Z</DateUtc></StartTime><FrequencyChanges><FrequencyChange><Frequency dt:dt=""r8"">3215244</Frequency><Timestamp dt:dt=""r8"">6586616668942</Timestamp><Current dt:dt=""r8"">0</Current><DateUtc dt:dt=""string"">2018-10-15T17:55:57Z</DateUtc></FrequencyChange></FrequencyChanges></Clock>\n",KW_Experiment5A-22-1,59.944,1.0.0.105,1,-1862543222,Professional,2.0.10.353,2.0.10.353,10/15/2018,10/15/2018 17:55,13:55:58,2.0.10.248,3,2,1,3,,,,,,,,TrainingProc,BlockList,22,1,Distractor1.bmp,1,0,,0,1,246385,601,,0,0,purple,600,3,600,5,vertical,purple,Distractor2.bmp,cyan,Distractor2.bmp,lime,Target1.bmp,red,Distractor1.bmp,blue,Distractor1.bmp,yellow,Distractor2.bmp,,,,TrialProc,,TrainingTrialList,1,1,-999999,1,246986,0,1,667,247653,Target1.bmp,lime,1,,,,3,3,70
KW_Experiment5A,22,1,"<?xml version=""1.0""?>\n<Clock xmlns:dt=""urn:schemas-microsoft-com:datatypes""><Description dt:dt=""string"">E-Prime Primary Realtime Clock</Description><StartTime><Timestamp dt:dt=""int"">0</Timestamp><DateUtc dt:dt=""string"">2018-10-15T17:55:57Z</DateUtc></StartTime><FrequencyChanges><FrequencyChange><Frequency dt:dt=""r8"">3215244</Frequency><Timestamp dt:dt=""r8"">6586616668942</Timestamp><Current dt:dt=""r8"">0</Current><DateUtc dt:dt=""string"">2018-10-15T17:55:57Z</DateUtc></FrequencyChange></FrequencyChanges></Clock>\n",KW_Experiment5A-22-1,59.944,1.0.0.105,1,-1862543222,Professional,2.0.10.353,2.0.10.353,10/15/2018,10/15/2018 17:55,13:55:58,2.0.10.248,3,2,1,3,,,,,,,,TrainingProc,BlockList,23,1,Distractor1.bmp,1,0,,1,1,248670,401,,0,0,blue,400,1,400,3,vertical,blue,Distractor2.bmp,red,Distractor2.bmp,purple,Distractor1.bmp,yellow,Distractor2.bmp,lime,Target1.bmp,cyan,Distractor1.bmp,,,,TrialProc,,TrainingTrialList,1,1,-999999,1,249071,0,1,454,249525,Target1.bmp,lime,1,,,,5,3,71
KW_Experiment5A,22,1,"<?xml version=""1.0""?>\n<Clock xmlns:dt=""urn:schemas-microsoft-com:datatypes""><Description dt:dt=""string"">E-Prime Primary Realtime Clock</Description><StartTime><Timestamp dt:dt=""int"">0</Timestamp><DateUtc dt:dt=""string"">2018-10-15T17:55:57Z</DateUtc></StartTime><FrequencyChanges><FrequencyChange><Frequency dt:dt=""r8"">3215244</Frequency><Timestamp dt:dt=""r8"">6586616668942</Timestamp><Current dt:dt=""r8"">0</Current><DateUtc dt:dt=""string"">2018-10-15T17:55:57Z</DateUtc></FrequencyChange></FrequencyChanges></Clock>\n",KW_Experiment5A-22-1,59.944,1.0.0.105,1,-1862543222,Professional,2.0.10.353,2.0.10.353,10/15/2018,10/15/2018 17:55,13:55:58,2.0.10.248,3,2,1,3,,,,,,,,TrainingProc,BlockList,24,1,Distractor2.bmp,2,0,,0,1,250539,400,,0,0,blue,400,1,400,3,vertical,blue,Distractor2.bmp,lime,Target1.bmp,yellow,Distractor2.bmp,red,Distractor1.bmp,cyan,Distractor2.bmp,purple,Distractor2.bmp,,,,TrialProc,,TrainingTrialList,1,1,-999999,0,250939,0,1,514,251453,Target1.bmp,lime,1,,,,2,3,72
KW_Experiment5A,22,1,"<?xml version=""1.0""?>\n<Clock xmlns:dt=""urn:schemas-microsoft-com:datatypes""><Description dt:dt=""string"">E-Prime Primary Realtime Clock</Description><StartTime><Timestamp dt:dt=""int"">0</Timestamp><DateUtc dt:dt=""string"">2018-10-15T17:55:57Z</DateUtc></StartTime><FrequencyChanges><FrequencyChange><Frequency dt:dt=""r8"">3215244</Frequency><Timestamp dt:dt=""r8"">6586616668942</Timestamp><Current dt:dt=""r8"">0</Current><DateUtc dt:dt=""string"">2018-10-15T17:55:57Z</DateUtc></FrequencyChange></FrequencyChanges></Clock>\n",KW_Experiment5A-22-1,59.944,1.0.0.105,1,-1862543222,Professional,2.0.10.353,2.0.10.353,10/15/2018,10/15/2018 17:55,13:55:58,2.0.10.248,3,2,1,3,,,,,,,,TrainingProc,BlockList,25,1,Distractor2.bmp,2,0,,0,1,252474,400,,0,0,cyan,400,1,400,4,vertical,cyan,Distractor2.bmp,yellow,Distractor1.bmp,red,Distractor2.bmp,purple,Distractor2.bmp,lime,Target1.bmp,blue,Distractor2.bmp,,,,TrialProc,,TrainingTrialList,1,1,-999999,0,252874,0,1,467,253341,Target1.bmp,lime,1,,,,5,4,73
KW_Experiment5A,22,1,"<?xml version=""1.0""?>\n<Clock xmlns:dt=""urn:schemas-microsoft-com:datatypes""><Description dt:dt=""string"">E-Prime Primary Realtime Clock</Description><StartTime><Timestamp dt:dt=""int"">0</Timestamp><DateUtc dt:dt=""string"">2018-10-15T17:55:57Z</DateUtc></StartTime><FrequencyChanges><FrequencyChange><Frequency dt:dt=""r8"">3215244</Frequency><Timestamp dt:dt=""r8"">6586616668942</Timestamp><Current dt:dt=""r8"">0</Current><DateUtc dt:dt=""string"">2018-10-15T17:55:57Z</DateUtc></FrequencyChange></FrequencyChanges></Clock>\n",KW_Experiment5A-22-1,59.944,1.0.0.105,1,-1862543222,Professional,2.0.10.353,2.0.10.353,10/15/2018,10/15/2018 17:55,13:55:58,2.0.10.248,3,2,1,3,,,,,,,,TrainingProc,BlockList,26,2,Distractor2.bmp,2,0,,0,1,254359,500,,0,0,blue,500,2,500,3,horizontal,blue,Distractor1.bmp,yellow,Distractor2.bmp,lime,Target2.bmp,red,Distractor2.bmp,purple,Distractor1.bmp,cyan,Distractor2.bmp,,,,TrialProc,,TrainingTrialList,1,2,-999999,0,254859,0,2,490,255349,Target2.bmp,lime,2,,,,3,4,74
KW_Experiment5A,22,1,"<?xml version=""1.0""?>\n<Clock xmlns:dt=""urn:schemas-microsoft-com:datatypes""><Description dt:dt=""string"">E-Prime Primary Realtime Clock</Description><StartTime><Timestamp dt:dt=""int"">0</Timestamp><DateUtc dt:dt=""string"">2018-10-15T17:55:57Z</DateUtc></StartTime><FrequencyChanges><FrequencyChange><Frequency dt:dt=""r8"">3215244</Frequency><Timestamp dt:dt=""r8"">6586616668942</Timestamp><Current dt:dt=""r8"">0</Current><DateUtc dt:dt=""string"">2018-10-15T17:55:57Z</DateUtc></FrequencyChange></FrequencyChanges></Clock>\n",KW_Experiment5A-22-1,59.944,1.0.0.105,1,-1862543222,Professional,2.0.10.353,2.0.10.353,10/15/2018,10/15/2018 17:55,13:55:58,2.0.10.248,3,2,1,3,,,,,,,,TrainingProc,BlockList,27,1,Distractor1.bmp,1,0,,0,1,256361,500,,0,0,cyan,500,2,500,4,vertical,cyan,Distractor1.bmp,yellow,Distractor2.bmp,purple,Distractor2.bmp,red,Distractor2.bmp,blue,Distractor2.bmp,lime,Target1.bmp,,,,TrialProc,,TrainingTrialList,1,1,-999999,0,256861,0,1,448,257309,Target1.bmp,lime,1,,,,6,4,75
KW_Experiment5A,22,1,"<?xml version=""1.0""?>\n<Clock xmlns:dt=""urn:schemas-microsoft-com:datatypes""><Description dt:dt=""string"">E-Prime Primary Realtime Clock</Description><StartTime><Timestamp dt:dt=""int"">0</Timestamp><DateUtc dt:dt=""string"">2018-10-15T17:55:57Z</DateUtc></StartTime><FrequencyChanges><FrequencyChange><Frequency dt:dt=""r8"">3215244</Frequency><Timestamp dt:dt=""r8"">6586616668942</Timestamp><Current dt:dt=""r8"">0</Current><DateUtc dt:dt=""string"">2018-10-15T17:55:57Z</DateUtc></FrequencyChange></FrequencyChanges></Clock>\n",KW_Experiment5A-22-1,59.944,1.0.0.105,1,-1862543222,Professional,2.0.10.353,2.0.10.353,10/15/2018,10/15/2018 17:55,13:55:58,2.0.10.248,3,2,1,3,,,,,,,,TrainingProc,BlockList,28,2,Distractor2.bmp,2,0,,0,1,258329,501,,0,0,yellow,500,2,500,,horizontal,red,Target2.bmp,purple,Distractor2.bmp,cyan,Distractor2.bmp,lime,Distractor1.bmp,blue,Distractor1.bmp,yellow,Distractor2.bmp,,,,TrialProc,2,TrainingTrialList,1,2,-999999,1,258830,0,2,463,259293,Target2.bmp,red,2,,,,7,4,76
KW_Experiment5A,22,1,"<?xml version=""1.0""?>\n<Clock xmlns:dt=""urn:schemas-microsoft-com:datatypes""><Description dt:dt=""string"">E-Prime Primary Realtime Clock</Description><StartTime><Timestamp dt:dt=""int"">0</Timestamp><DateUtc dt:dt=""string"">2018-10-15T17:55:57Z</DateUtc></StartTime><FrequencyChanges><FrequencyChange><Frequency dt:dt=""r8"">3215244</Frequency><Timestamp dt:dt=""r8"">6586616668942</Timestamp><Current dt:dt=""r8"">0</Current><DateUtc dt:dt=""string"">2018-10-15T17:55:57Z</DateUtc></FrequencyChange></FrequencyChanges></Clock>\n",KW_Experiment5A-22-1,59.944,1.0.0.105,1,-1862543222,Professional,2.0.10.353,2.0.10.353,10/15/2018,10/15/2018 17:55,13:55:58,2.0.10.248,3,2,1,3,,,,,,,,TrainingProc,BlockList,29,2,Distractor1.bmp,1,0,,1,0,260314,601,,0,0,cyan,600,3,600,4,horizontal,cyan,Distractor2.bmp,lime,Target2.bmp,red,Distractor1.bmp,blue,Distractor1.bmp,purple,Distractor1.bmp,yellow,Distractor2.bmp,,,,TrialProc,,TrainingTrialList,1,2,-999999,1,260915,0,2,426,261341,Target2.bmp,lime,2,,,,2,4,77
KW_Experiment5A,22,1,"<?xml version=""1.0""?>\n<Clock xmlns:dt=""urn:schemas-microsoft-com:datatypes""><Description dt:dt=""string"">E-Prime Primary Realtime Clock</Description><StartTime><Timestamp dt:dt=""int"">0</Timestamp><DateUtc dt:dt=""string"">2018-10-15T17:55:57Z</DateUtc></StartTime><FrequencyChanges><FrequencyChange><Frequency dt:dt=""r8"">3215244</Frequency><Timestamp dt:dt=""r8"">6586616668942</Timestamp><Current dt:dt=""r8"">0</Current><DateUtc dt:dt=""string"">2018-10-15T17:55:57Z</DateUtc></FrequencyChange></FrequencyChanges></Clock>\n",KW_Experiment5A-22-1,59.944,1.0.0.105,1,-1862543222,Professional,2.0.10.353,2.0.10.353,10/15/2018,10/15/2018 17:55,13:55:58,2.0.10.248,3,2,1,3,,,,,,,,TrainingProc,BlockList,30,1,Distractor1.bmp,1,0,,0,1,262366,601,,0,0,purple,600,3,600,5,vertical,purple,Distractor1.bmp,yellow,Distractor2.bmp,cyan,Distractor2.bmp,lime,Target1.bmp,red,Distractor1.bmp,blue,Distractor2.bmp,,,,TrialProc,,TrainingTrialList,1,1,-999999,1,262967,0,1,478,263445,Target1.bmp,lime,1,,,,4,4,78
KW_Experiment5A,22,1,"<?xml version=""1.0""?>\n<Clock xmlns:dt=""urn:schemas-microsoft-com:datatypes""><Description dt:dt=""string"">E-Prime Primary Realtime Clock</Description><StartTime><Timestamp dt:dt=""int"">0</Timestamp><DateUtc dt:dt=""string"">2018-10-15T17:55:57Z</DateUtc></StartTime><FrequencyChanges><FrequencyChange><Frequency dt:dt=""r8"">3215244</Frequency><Timestamp dt:dt=""r8"">6586616668942</Timestamp><Current dt:dt=""r8"">0</Current><DateUtc dt:dt=""string"">2018-10-15T17:55:57Z</DateUtc></FrequencyChange></FrequencyChanges></Clock>\n",KW_Experiment5A-22-1,59.944,1.0.0.105,1,-1862543222,Professional,2.0.10.353,2.0.10.353,10/15/2018,10/15/2018 17:55,13:55:58,2.0.10.248,3,2,1,3,,,,,,,,TrainingProc,BlockList,31,2,Distractor1.bmp,1,0,,0,1,264468,401,,0,0,red,400,1,400,1,horizontal,red,Distractor2.bmp,purple,Distractor1.bmp,lime,Target2.bmp,blue,Distractor1.bmp,yellow,Distractor2.bmp,cyan,Distractor1.bmp,,,,TrialProc,,TrainingTrialList,1,2,-999999,1,264869,0,2,496,265365,Target2.bmp,lime,2,,,,3,4,79
KW_Experiment5A,22,1,"<?xml version=""1.0""?>\n<Clock xmlns:dt=""urn:schemas-microsoft-com:datatypes""><Description dt:dt=""string"">E-Prime Primary Realtime Clock</Description><StartTime><Timestamp dt:dt=""int"">0</Timestamp><DateUtc dt:dt=""string"">2018-10-15T17:55:57Z</DateUtc></StartTime><FrequencyChanges><FrequencyChange><Frequency dt:dt=""r8"">3215244</Frequency><Timestamp dt:dt=""r8"">6586616668942</Timestamp><Current dt:dt=""r8"">0</Current><DateUtc dt:dt=""string"">2018-10-15T17:55:57Z</DateUtc></FrequencyChange></FrequencyChanges></Clock>\n",KW_Experiment5A-22-1,59.944,1.0.0.105,1,-1862543222,Professional,2.0.10.353,2.0.10.353,10/15/2018,10/15/2018 17:55,13:55:58,2.0.10.248,3,2,1,3,,,,,,,,TrainingProc,BlockList,32,2,Distractor1.bmp,1,0,,0,1,266387,500,,0,0,blue,500,2,500,3,horizontal,lime,Target2.bmp,blue,Distractor1.bmp,yellow,Distractor2.bmp,purple,Distractor2.bmp,red,Distractor1.bmp,cyan,Distractor2.bmp,,,,TrialProc,,TrainingTrialList,1,2,-999999,0,266887,0,2,486,267373,Target2.bmp,lime,2,,,,1,4,80
KW_Experiment5A,22,1,"<?xml version=""1.0""?>\n<Clock xmlns:dt=""urn:schemas-microsoft-com:datatypes""><Description dt:dt=""string"">E-Prime Primary Realtime Clock</Description><StartTime><Timestamp dt:dt=""int"">0</Timestamp><DateUtc dt:dt=""string"">2018-10-15T17:55:57Z</DateUtc></StartTime><FrequencyChanges><FrequencyChange><Frequency dt:dt=""r8"">3215244</Frequency><Timestamp dt:dt=""r8"">6586616668942</Timestamp><Current dt:dt=""r8"">0</Current><DateUtc dt:dt=""string"">2018-10-15T17:55:57Z</DateUtc></FrequencyChange></FrequencyChanges></Clock>\n",KW_Experiment5A-22-1,59.944,1.0.0.105,1,-1862543222,Professional,2.0.10.353,2.0.10.353,10/15/2018,10/15/2018 17:55,13:55:58,2.0.10.248,3,2,1,3,,,,,,,,TrainingProc,BlockList,33,2,Distractor1.bmp,1,0,,0,1,268389,600,,0,0,blue,600,3,600,3,horizontal,lime,Target2.bmp,blue,Distractor1.bmp,purple,Distractor1.bmp,yellow,Distractor2.bmp,red,Distractor2.bmp,cyan,Distractor2.bmp,,,,TrialProc,,TrainingTrialList,1,2,-999999,0,268989,0,2,392,269381,Target2.bmp,lime,2,,,,1,4,81
KW_Experiment5A,22,1,"<?xml version=""1.0""?>\n<Clock xmlns:dt=""urn:schemas-microsoft-com:datatypes""><Description dt:dt=""string"">E-Prime Primary Realtime Clock</Description><StartTime><Timestamp dt:dt=""int"">0</Timestamp><DateUtc dt:dt=""string"">2018-10-15T17:55:57Z</DateUtc></StartTime><FrequencyChanges><FrequencyChange><Frequency dt:dt=""r8"">3215244</Frequency><Timestamp dt:dt=""r8"">6586616668942</Timestamp><Current dt:dt=""r8"">0</Current><DateUtc dt:dt=""string"">2018-10-15T17:55:57Z</DateUtc></FrequencyChange></FrequencyChanges></Clock>\n",KW_Experiment5A-22-1,59.944,1.0.0.105,1,-1862543222,Professional,2.0.10.353,2.0.10.353,10/15/2018,10/15/2018 17:55,13:55:58,2.0.10.248,3,2,1,3,,,,,,,,TrainingProc,BlockList,34,2,Distractor1.bmp,1,0,,1,0,270390,401,,0,0,blue,400,1,400,3,horizontal,blue,Distractor1.bmp,yellow,Distractor2.bmp,cyan,Distractor2.bmp,red,Distractor2.bmp,purple,Distractor2.bmp,lime,Target2.bmp,,,,TrialProc,,TrainingTrialList,0,2,-999999,1,270791,0,1,494,271285,Target2.bmp,lime,2,,,,6,4,82
KW_Experiment5A,22,1,"<?xml version=""1.0""?>\n<Clock xmlns:dt=""urn:schemas-microsoft-com:datatypes""><Description dt:dt=""string"">E-Prime Primary Realtime Clock</Description><StartTime><Timestamp dt:dt=""int"">0</Timestamp><DateUtc dt:dt=""string"">2018-10-15T17:55:57Z</DateUtc></StartTime><FrequencyChanges><FrequencyChange><Frequency dt:dt=""r8"">3215244</Frequency><Timestamp dt:dt=""r8"">6586616668942</Timestamp><Current dt:dt=""r8"">0</Current><DateUtc dt:dt=""string"">2018-10-15T17:55:57Z</DateUtc></FrequencyChange></FrequencyChanges></Clock>\n",KW_Experiment5A-22-1,59.944,1.0.0.105,1,-1862543222,Professional,2.0.10.353,2.0.10.353,10/15/2018,10/15/2018 17:55,13:55:58,2.0.10.248,3,2,1,3,,,,,,,,TrainingProc,BlockList,35,2,Distractor2.bmp,2,0,,0,1,272309,400,,0,0,yellow,400,1,400,,horizontal,yellow,Distractor1.bmp,purple,Distractor2.bmp,blue,Distractor2.bmp,cyan,Distractor1.bmp,red,Target2.bmp,lime,Distractor2.bmp,,,,TrialProc,2,TrainingTrialList,1,2,-999999,0,272709,0,2,824,273533,Target2.bmp,red,2,,,,11,4,83
KW_Experiment5A,22,1,"<?xml version=""1.0""?>\n<Clock xmlns:dt=""urn:schemas-microsoft-com:datatypes""><Description dt:dt=""string"">E-Prime Primary Realtime Clock</Description><StartTime><Timestamp dt:dt=""int"">0</Timestamp><DateUtc dt:dt=""string"">2018-10-15T17:55:57Z</DateUtc></StartTime><FrequencyChanges><FrequencyChange><Frequency dt:dt=""r8"">3215244</Frequency><Timestamp dt:dt=""r8"">6586616668942</Timestamp><Current dt:dt=""r8"">0</Current><DateUtc dt:dt=""string"">2018-10-15T17:55:57Z</DateUtc></FrequencyChange></FrequencyChanges></Clock>\n",KW_Experiment5A-22-1,59.944,1.0.0.105,1,-1862543222,Professional,2.0.10.353,2.0.10.353,10/15/2018,10/15/2018 17:55,13:55:58,2.0.10.248,3,2,1,3,,,,,,,,TrainingProc,BlockList,36,2,Distractor1.bmp,1,0,,0,1,274544,601,,0,0,red,600,3,600,1,horizontal,red,Distractor1.bmp,blue,Distractor1.bmp,cyan,Distractor1.bmp,yellow,Distractor2.bmp,purple,Distractor2.bmp,lime,Target2.bmp,,,,TrialProc,,TrainingTrialList,1,2,-999999,1,275145,0,2,532,275677,Target2.bmp,lime,2,,,,6,4,84
KW_Experiment5A,22,1,"<?xml version=""1.0""?>\n<Clock xmlns:dt=""urn:schemas-microsoft-com:datatypes""><Description dt:dt=""string"">E-Prime Primary Realtime Clock</Description><StartTime><Timestamp dt:dt=""int"">0</Timestamp><DateUtc dt:dt=""string"">2018-10-15T17:55:57Z</DateUtc></StartTime><FrequencyChanges><FrequencyChange><Frequency dt:dt=""r8"">3215244</Frequency><Timestamp dt:dt=""r8"">6586616668942</Timestamp><Current dt:dt=""r8"">0</Current><DateUtc dt:dt=""string"">2018-10-15T17:55:57Z</DateUtc></FrequencyChange></FrequencyChanges></Clock>\n",KW_Experiment5A-22-1,59.944,1.0.0.105,1,-1862543222,Professional,2.0.10.353,2.0.10.353,10/15/2018,10/15/2018 17:55,13:55:58,2.0.10.248,3,2,1,3,,,,,,,,TrainingProc,BlockList,37,1,Distractor1.bmp,1,0,,0,1,276696,401,,0,0,cyan,400,1,400,4,vertical,cyan,Distractor2.bmp,lime,Target1.bmp,yellow,Distractor1.bmp,blue,Distractor1.bmp,red,Distractor1.bmp,purple,Distractor1.bmp,,,,TrialProc,,TrainingTrialList,1,1,-999999,1,277097,0,1,588,277685,Target1.bmp,lime,1,,,,2,4,85
KW_Experiment5A,22,1,"<?xml version=""1.0""?>\n<Clock xmlns:dt=""urn:schemas-microsoft-com:datatypes""><Description dt:dt=""string"">E-Prime Primary Realtime Clock</Description><StartTime><Timestamp dt:dt=""int"">0</Timestamp><DateUtc dt:dt=""string"">2018-10-15T17:55:57Z</DateUtc></StartTime><FrequencyChanges><FrequencyChange><Frequency dt:dt=""r8"">3215244</Frequency><Timestamp dt:dt=""r8"">6586616668942</Timestamp><Current dt:dt=""r8"">0</Current><DateUtc dt:dt=""string"">2018-10-15T17:55:57Z</DateUtc></FrequencyChange></FrequencyChanges></Clock>\n",KW_Experiment5A-22-1,59.944,1.0.0.105,1,-1862543222,Professional,2.0.10.353,2.0.10.353,10/15/2018,10/15/2018 17:55,13:55:58,2.0.10.248,3,2,1,3,,,,,,,,TrainingProc,BlockList,38,1,Distractor2.bmp,2,0,,0,1,278698,501,,0,0,blue,500,2,500,,vertical,blue,Distractor2.bmp,cyan,Distractor2.bmp,lime,Distractor2.bmp,yellow,Distractor2.bmp,purple,Distractor2.bmp,red,Target1.bmp,,,,TrialProc,3,TrainingTrialList,1,1,-999999,1,279199,0,1,902,280101,Target1.bmp,red,1,,,,12,4,86
KW_Experiment5A,22,1,"<?xml version=""1.0""?>\n<Clock xmlns:dt=""urn:schemas-microsoft-com:datatypes""><Description dt:dt=""string"">E-Prime Primary Realtime Clock</Description><StartTime><Timestamp dt:dt=""int"">0</Timestamp><DateUtc dt:dt=""string"">2018-10-15T17:55:57Z</DateUtc></StartTime><FrequencyChanges><FrequencyChange><Frequency dt:dt=""r8"">3215244</Frequency><Timestamp dt:dt=""r8"">6586616668942</Timestamp><Current dt:dt=""r8"">0</Current><DateUtc dt:dt=""string"">2018-10-15T17:55:57Z</DateUtc></FrequencyChange></FrequencyChanges></Clock>\n",KW_Experiment5A-22-1,59.944,1.0.0.105,1,-1862543222,Professional,2.0.10.353,2.0.10.353,10/15/2018,10/15/2018 17:55,13:55:58,2.0.10.248,3,2,1,3,,,,,,,,TrainingProc,BlockList,39,2,Distractor1.bmp,1,0,,0,1,281117,500,,0,0,red,500,2,500,1,horizontal,lime,Target2.bmp,red,Distractor1.bmp,purple,Distractor1.bmp,cyan,Distractor1.bmp,yellow,Distractor2.bmp,blue,Distractor1.bmp,,,,TrialProc,,TrainingTrialList,1,2,-999999,0,281617,0,2,436,282053,Target2.bmp,lime,2,,,,1,4,87
KW_Experiment5A,22,1,"<?xml version=""1.0""?>\n<Clock xmlns:dt=""urn:schemas-microsoft-com:datatypes""><Description dt:dt=""string"">E-Prime Primary Realtime Clock</Description><StartTime><Timestamp dt:dt=""int"">0</Timestamp><DateUtc dt:dt=""string"">2018-10-15T17:55:57Z</DateUtc></StartTime><FrequencyChanges><FrequencyChange><Frequency dt:dt=""r8"">3215244</Frequency><Timestamp dt:dt=""r8"">6586616668942</Timestamp><Current dt:dt=""r8"">0</Current><DateUtc dt:dt=""string"">2018-10-15T17:55:57Z</DateUtc></FrequencyChange></FrequencyChanges></Clock>\n",KW_Experiment5A-22-1,59.944,1.0.0.105,1,-1862543222,Professional,2.0.10.353,2.0.10.353,10/15/2018,10/15/2018 17:55,13:55:58,2.0.10.248,3,2,1,3,,,,,,,,TrainingProc,BlockList,40,1,Distractor2.bmp,2,0,,0,1,283069,600,,0,0,red,600,3,600,1,vertical,red,Distractor2.bmp,lime,Target1.bmp,cyan,Distractor2.bmp,purple,Distractor1.bmp,blue,Distractor1.bmp,yellow,Distractor1.bmp,,,,TrialProc,,TrainingTrialList,1,1,-999999,0,283669,0,1,664,284333,Target1.bmp,lime,1,,,,2,4,88
KW_Experiment5A,22,1,"<?xml version=""1.0""?>\n<Clock xmlns:dt=""urn:schemas-microsoft-com:datatypes""><Description dt:dt=""string"">E-Prime Primary Realtime Clock</Description><StartTime><Timestamp dt:dt=""int"">0</Timestamp><DateUtc dt:dt=""string"">2018-10-15T17:55:57Z</DateUtc></StartTime><FrequencyChanges><FrequencyChange><Frequency dt:dt=""r8"">3215244</Frequency><Timestamp dt:dt=""r8"">6586616668942</Timestamp><Current dt:dt=""r8"">0</Current><DateUtc dt:dt=""string"">2018-10-15T17:55:57Z</DateUtc></FrequencyChange></FrequencyChanges></Clock>\n",KW_Experiment5A-22-1,59.944,1.0.0.105,1,-1862543222,Professional,2.0.10.353,2.0.10.353,10/15/2018,10/15/2018 17:55,13:55:58,2.0.10.248,3,2,1,3,,,,,,,,TrainingProc,BlockList,41,2,Distractor2.bmp,2,0,,0,1,285354,601,,0,0,red,600,3,600,1,horizontal,red,Distractor1.bmp,purple,Distractor1.bmp,yellow,Distractor1.bmp,cyan,Distractor2.bmp,lime,Target2.bmp,blue,Distractor2.bmp,,,,TrialProc,,TrainingTrialList,1,2,-999999,1,285955,0,2,490,286445,Target2.bmp,lime,2,,,,5,4,89
KW_Experiment5A,22,1,"<?xml version=""1.0""?>\n<Clock xmlns:dt=""urn:schemas-microsoft-com:datatypes""><Description dt:dt=""string"">E-Prime Primary Realtime Clock</Description><StartTime><Timestamp dt:dt=""int"">0</Timestamp><DateUtc dt:dt=""string"">2018-10-15T17:55:57Z</DateUtc></StartTime><FrequencyChanges><FrequencyChange><Frequency dt:dt=""r8"">3215244</Frequency><Timestamp dt:dt=""r8"">6586616668942</Timestamp><Current dt:dt=""r8"">0</Current><DateUtc dt:dt=""string"">2018-10-15T17:55:57Z</DateUtc></FrequencyChange></FrequencyChanges></Clock>\n",KW_Experiment5A-22-1,59.944,1.0.0.105,1,-1862543222,Professional,2.0.10.353,2.0.10.353,10/15/2018,10/15/2018 17:55,13:55:58,2.0.10.248,3,2,1,3,,,,,,,,TrainingProc,BlockList,42,2,Distractor1.bmp,1,0,,0,1,287456,501,,0,0,lime,500,2,500,,horizontal,lime,Distractor2.bmp,cyan,Distractor2.bmp,red,Target2.bmp,blue,Distractor1.bmp,purple,Distractor1.bmp,yellow,Distractor2.bmp,,,,TrialProc,6,TrainingTrialList,1,2,-999999,1,287957,0,2,528,288485,Target2.bmp,red,2,,,,9,4,90
