ExperimentName,Subject,Session,Clock.Information,DataFile.Basename,Display.RefreshRate,ExperimentVersion,Group,RandomSeed,RuntimeCapabilities,RuntimeVersion,RuntimeVersionExpected,SessionDate,SessionStartDateTimeUtc,SessionTime,StudioVersion,Block,BlockList,BlockList.Cycle,BlockList.Sample,PostTestQ1.RESP,PostTestQ1CJ.RESP,PostTestQ2.RESP,PostTestQ2CJ.RESP,PostTestQ3.RESP,PostTestQ3CJ.RESP,PostTestSlide.RESP,Procedure[Block],Running[Block],Trial,CorrectResponse,Distractor,DistractorList,Fixation.ACC,Fixation.CRESP,Fixation.DurationError,Fixation.OnsetDelay,Fixation.OnsetTime,Fixation.OnsetToOnsetTime,Fixation.RESP,Fixation.RT,Fixation.RTTime,ItemColor,Jitter,JitterList,JitterTime,Lime0List,Orientation,Pos1Color,Pos1Item,Pos2Color,Pos2Item,Pos3Color,Pos3Item,Pos4Color,Pos4Item,Pos5Color,Pos5Item,Pos6Color,Pos6Item,PracticeTrialList,PracticeTrialList.Cycle,PracticeTrialList.Sample,Procedure[Trial],Red0List,Running[Trial],Stimulus.ACC,Stimulus.CRESP,Stimulus.DurationError,Stimulus.OnsetDelay,Stimulus.OnsetTime,Stimulus.OnsetToOnsetTime,Stimulus.RESP,Stimulus.RT,Stimulus.RTTime,Target,TargetColor,TargetList,TestTrialList,TestTrialList.Cycle,TestTrialList.Sample,TrainingTrialList,TrainingTrialList.Cycle,TrainingTrialList.Sample
KW_Experiment5A,4,1,"<?xml version=""1.0""?>\n<Clock xmlns:dt=""urn:schemas-microsoft-com:datatypes""><Description dt:dt=""string"">E-Prime Primary Realtime Clock</Description><StartTime><Timestamp dt:dt=""int"">0</Timestamp><DateUtc dt:dt=""string"">2018-10-08T17:17:53Z</DateUtc></StartTime><FrequencyChanges><FrequencyChange><Frequency dt:dt=""r8"">3215292</Frequency><Timestamp dt:dt=""r8"">3351291963568</Timestamp><Current dt:dt=""r8"">0</Current><DateUtc dt:dt=""string"">2018-10-08T17:17:53Z</DateUtc></FrequencyChange></FrequencyChanges></Clock>\n",KW_Experiment5A-4-1,59.945,1.0.0.105,2,1218120088,Professional,2.0.10.353,2.0.10.353,10/8/2018,10/8/2018 17:17,13:17:53,2.0.10.248,1,1,1,1,,,,,,,,PracticeProc,BlockList,1,2,Distractor2.bmp,2,0,,0,33,120034,400,,0,0,cyan,400,1,400,,horizontal,purple,Distractor2.bmp,blue,Distractor1.bmp,lime,Distractor2.bmp,yellow,Distractor2.bmp,cyan,Distractor2.bmp,red,Target2.bmp,6,1,1,TrialProc,4,PracticeTrialList,1,2,-999999,0,120434,0,2,943,121377,Target2.bmp,red,2,,,,,,
KW_Experiment5A,4,1,"<?xml version=""1.0""?>\n<Clock xmlns:dt=""urn:schemas-microsoft-com:datatypes""><Description dt:dt=""string"">E-Prime Primary Realtime Clock</Description><StartTime><Timestamp dt:dt=""int"">0</Timestamp><DateUtc dt:dt=""string"">2018-10-08T17:17:53Z</DateUtc></StartTime><FrequencyChanges><FrequencyChange><Frequency dt:dt=""r8"">3215292</Frequency><Timestamp dt:dt=""r8"">3351291963568</Timestamp><Current dt:dt=""r8"">0</Current><DateUtc dt:dt=""string"">2018-10-08T17:17:53Z</DateUtc></FrequencyChange></FrequencyChanges></Clock>\n",KW_Experiment5A-4-1,59.945,1.0.0.105,2,1218120088,Professional,2.0.10.353,2.0.10.353,10/8/2018,10/8/2018 17:17,13:17:53,2.0.10.248,1,1,1,1,,,,,,,,PracticeProc,BlockList,2,2,Distractor1.bmp,1,0,,0,1,122403,500,,0,0,yellow,500,2,500,2,horizontal,lime,Target2.bmp,purple,Distractor1.bmp,red,Distractor1.bmp,cyan,Distractor1.bmp,blue,Distractor1.bmp,yellow,Distractor1.bmp,1,1,2,TrialProc,,PracticeTrialList,1,2,-999999,0,122903,0,2,770,123673,Target2.bmp,lime,2,,,,,,
KW_Experiment5A,4,1,"<?xml version=""1.0""?>\n<Clock xmlns:dt=""urn:schemas-microsoft-com:datatypes""><Description dt:dt=""string"">E-Prime Primary Realtime Clock</Description><StartTime><Timestamp dt:dt=""int"">0</Timestamp><DateUtc dt:dt=""string"">2018-10-08T17:17:53Z</DateUtc></StartTime><FrequencyChanges><FrequencyChange><Frequency dt:dt=""r8"">3215292</Frequency><Timestamp dt:dt=""r8"">3351291963568</Timestamp><Current dt:dt=""r8"">0</Current><DateUtc dt:dt=""string"">2018-10-08T17:17:53Z</DateUtc></FrequencyChange></FrequencyChanges></Clock>\n",KW_Experiment5A-4-1,59.945,1.0.0.105,2,1218120088,Professional,2.0.10.353,2.0.10.353,10/8/2018,10/8/2018 17:17,13:17:53,2.0.10.248,1,1,1,1,,,,,,,,PracticeProc,BlockList,3,2,Distractor1.bmp,1,0,,0,1,124688,400,,0,0,cyan,400,1,400,4,horizontal,purple,Distractor1.bmp,cyan,Distractor2.bmp,lime,Target2.bmp,blue,Distractor1.bmp,red,Distractor2.bmp,yellow,Distractor1.bmp,3,1,3,TrialProc,,PracticeTrialList,1,2,-999999,0,125088,0,2,1089,126177,Target2.bmp,lime,2,,,,,,
KW_Experiment5A,4,1,"<?xml version=""1.0""?>\n<Clock xmlns:dt=""urn:schemas-microsoft-com:datatypes""><Description dt:dt=""string"">E-Prime Primary Realtime Clock</Description><StartTime><Timestamp dt:dt=""int"">0</Timestamp><DateUtc dt:dt=""string"">2018-10-08T17:17:53Z</DateUtc></StartTime><FrequencyChanges><FrequencyChange><Frequency dt:dt=""r8"">3215292</Frequency><Timestamp dt:dt=""r8"">3351291963568</Timestamp><Current dt:dt=""r8"">0</Current><DateUtc dt:dt=""string"">2018-10-08T17:17:53Z</DateUtc></FrequencyChange></FrequencyChanges></Clock>\n",KW_Experiment5A-4-1,59.945,1.0.0.105,2,1218120088,Professional,2.0.10.353,2.0.10.353,10/8/2018,10/8/2018 17:17,13:17:53,2.0.10.248,1,1,1,1,,,,,,,,PracticeProc,BlockList,4,1,Distractor1.bmp,1,0,,0,1,127190,401,,0,0,cyan,400,1,400,,vertical,cyan,Distractor1.bmp,red,Target1.bmp,lime,Distractor1.bmp,blue,Distractor1.bmp,purple,Distractor2.bmp,yellow,Distractor1.bmp,2,1,4,TrialProc,4,PracticeTrialList,1,1,-999999,1,127591,0,1,905,128496,Target1.bmp,red,1,,,,,,
KW_Experiment5A,4,1,"<?xml version=""1.0""?>\n<Clock xmlns:dt=""urn:schemas-microsoft-com:datatypes""><Description dt:dt=""string"">E-Prime Primary Realtime Clock</Description><StartTime><Timestamp dt:dt=""int"">0</Timestamp><DateUtc dt:dt=""string"">2018-10-08T17:17:53Z</DateUtc></StartTime><FrequencyChanges><FrequencyChange><Frequency dt:dt=""r8"">3215292</Frequency><Timestamp dt:dt=""r8"">3351291963568</Timestamp><Current dt:dt=""r8"">0</Current><DateUtc dt:dt=""string"">2018-10-08T17:17:53Z</DateUtc></FrequencyChange></FrequencyChanges></Clock>\n",KW_Experiment5A-4-1,59.945,1.0.0.105,2,1218120088,Professional,2.0.10.353,2.0.10.353,10/8/2018,10/8/2018 17:17,13:17:53,2.0.10.248,1,1,1,1,,,,,,,,PracticeProc,BlockList,5,2,Distractor1.bmp,1,0,,0,1,129509,601,,0,0,purple,600,3,600,5,horizontal,blue,Distractor2.bmp,yellow,Distractor2.bmp,cyan,Distractor2.bmp,purple,Distractor2.bmp,lime,Target2.bmp,red,Distractor1.bmp,5,1,5,TrialProc,,PracticeTrialList,1,2,-999999,1,130110,0,2,770,130880,Target2.bmp,lime,2,,,,,,
KW_Experiment5A,4,1,"<?xml version=""1.0""?>\n<Clock xmlns:dt=""urn:schemas-microsoft-com:datatypes""><Description dt:dt=""string"">E-Prime Primary Realtime Clock</Description><StartTime><Timestamp dt:dt=""int"">0</Timestamp><DateUtc dt:dt=""string"">2018-10-08T17:17:53Z</DateUtc></StartTime><FrequencyChanges><FrequencyChange><Frequency dt:dt=""r8"">3215292</Frequency><Timestamp dt:dt=""r8"">3351291963568</Timestamp><Current dt:dt=""r8"">0</Current><DateUtc dt:dt=""string"">2018-10-08T17:17:53Z</DateUtc></FrequencyChange></FrequencyChanges></Clock>\n",KW_Experiment5A-4-1,59.945,1.0.0.105,2,1218120088,Professional,2.0.10.353,2.0.10.353,10/8/2018,10/8/2018 17:17,13:17:53,2.0.10.248,1,1,1,1,,,,,,,,PracticeProc,BlockList,6,2,Distractor2.bmp,2,0,,0,1,131895,400,,0,0,yellow,400,1,400,,horizontal,lime,Distractor2.bmp,cyan,Distractor1.bmp,yellow,Distractor1.bmp,red,Target2.bmp,blue,Distractor2.bmp,purple,Distractor1.bmp,4,1,6,TrialProc,2,PracticeTrialList,1,2,-999999,0,132295,0,2,1065,133360,Target2.bmp,red,2,,,,,,
KW_Experiment5A,4,1,"<?xml version=""1.0""?>\n<Clock xmlns:dt=""urn:schemas-microsoft-com:datatypes""><Description dt:dt=""string"">E-Prime Primary Realtime Clock</Description><StartTime><Timestamp dt:dt=""int"">0</Timestamp><DateUtc dt:dt=""string"">2018-10-08T17:17:53Z</DateUtc></StartTime><FrequencyChanges><FrequencyChange><Frequency dt:dt=""r8"">3215292</Frequency><Timestamp dt:dt=""r8"">3351291963568</Timestamp><Current dt:dt=""r8"">0</Current><DateUtc dt:dt=""string"">2018-10-08T17:17:53Z</DateUtc></FrequencyChange></FrequencyChanges></Clock>\n",KW_Experiment5A-4-1,59.945,1.0.0.105,2,1218120088,Professional,2.0.10.353,2.0.10.353,10/8/2018,10/8/2018 17:17,13:17:53,2.0.10.248,2,2,1,2,,,,,,,,TrainingProc,BlockList,1,1,Distractor2.bmp,2,0,,0,29,141053,500,,0,0,blue,500,2,500,3,vertical,blue,Distractor1.bmp,lime,Target1.bmp,red,Distractor2.bmp,purple,Distractor1.bmp,yellow,Distractor1.bmp,cyan,Distractor2.bmp,,,,TrialProc,,TrainingTrialList,1,1,-999999,0,141553,0,1,831,142384,Target1.bmp,lime,1,,,,2,2,1
KW_Experiment5A,4,1,"<?xml version=""1.0""?>\n<Clock xmlns:dt=""urn:schemas-microsoft-com:datatypes""><Description dt:dt=""string"">E-Prime Primary Realtime Clock</Description><StartTime><Timestamp dt:dt=""int"">0</Timestamp><DateUtc dt:dt=""string"">2018-10-08T17:17:53Z</DateUtc></StartTime><FrequencyChanges><FrequencyChange><Frequency dt:dt=""r8"">3215292</Frequency><Timestamp dt:dt=""r8"">3351291963568</Timestamp><Current dt:dt=""r8"">0</Current><DateUtc dt:dt=""string"">2018-10-08T17:17:53Z</DateUtc></FrequencyChange></FrequencyChanges></Clock>\n",KW_Experiment5A-4-1,59.945,1.0.0.105,2,1218120088,Professional,2.0.10.353,2.0.10.353,10/8/2018,10/8/2018 17:17,13:17:53,2.0.10.248,2,2,1,2,,,,,,,,TrainingProc,BlockList,2,1,Distractor1.bmp,1,0,,0,1,143405,401,,0,0,cyan,400,1,400,,vertical,cyan,Distractor1.bmp,red,Target1.bmp,yellow,Distractor1.bmp,blue,Distractor2.bmp,lime,Distractor2.bmp,purple,Distractor1.bmp,,,,TrialProc,4,TrainingTrialList,1,1,-999999,1,143806,0,1,610,144416,Target1.bmp,red,1,,,,8,2,2
KW_Experiment5A,4,1,"<?xml version=""1.0""?>\n<Clock xmlns:dt=""urn:schemas-microsoft-com:datatypes""><Description dt:dt=""string"">E-Prime Primary Realtime Clock</Description><StartTime><Timestamp dt:dt=""int"">0</Timestamp><DateUtc dt:dt=""string"">2018-10-08T17:17:53Z</DateUtc></StartTime><FrequencyChanges><FrequencyChange><Frequency dt:dt=""r8"">3215292</Frequency><Timestamp dt:dt=""r8"">3351291963568</Timestamp><Current dt:dt=""r8"">0</Current><DateUtc dt:dt=""string"">2018-10-08T17:17:53Z</DateUtc></FrequencyChange></FrequencyChanges></Clock>\n",KW_Experiment5A-4-1,59.945,1.0.0.105,2,1218120088,Professional,2.0.10.353,2.0.10.353,10/8/2018,10/8/2018 17:17,13:17:53,2.0.10.248,2,2,1,2,,,,,,,,TrainingProc,BlockList,3,1,Distractor2.bmp,2,0,,0,1,145440,401,,0,0,yellow,400,1,400,,vertical,yellow,Distractor1.bmp,lime,Distractor1.bmp,red,Target1.bmp,blue,Distractor2.bmp,purple,Distractor1.bmp,cyan,Distractor1.bmp,,,,TrialProc,2,TrainingTrialList,1,1,-999999,1,145841,0,1,799,146640,Target1.bmp,red,1,,,,9,2,3
KW_Experiment5A,4,1,"<?xml version=""1.0""?>\n<Clock xmlns:dt=""urn:schemas-microsoft-com:datatypes""><Description dt:dt=""string"">E-Prime Primary Realtime Clock</Description><StartTime><Timestamp dt:dt=""int"">0</Timestamp><DateUtc dt:dt=""string"">2018-10-08T17:17:53Z</DateUtc></StartTime><FrequencyChanges><FrequencyChange><Frequency dt:dt=""r8"">3215292</Frequency><Timestamp dt:dt=""r8"">3351291963568</Timestamp><Current dt:dt=""r8"">0</Current><DateUtc dt:dt=""string"">2018-10-08T17:17:53Z</DateUtc></FrequencyChange></FrequencyChanges></Clock>\n",KW_Experiment5A-4-1,59.945,1.0.0.105,2,1218120088,Professional,2.0.10.353,2.0.10.353,10/8/2018,10/8/2018 17:17,13:17:53,2.0.10.248,2,2,1,2,,,,,,,,TrainingProc,BlockList,4,2,Distractor1.bmp,1,0,,0,1,147659,400,,0,0,lime,400,1,400,,horizontal,red,Target2.bmp,purple,Distractor1.bmp,cyan,Distractor2.bmp,yellow,Distractor2.bmp,blue,Distractor2.bmp,lime,Distractor1.bmp,,,,TrialProc,6,TrainingTrialList,1,2,-999999,0,148059,0,2,461,148520,Target2.bmp,red,2,,,,7,2,4
KW_Experiment5A,4,1,"<?xml version=""1.0""?>\n<Clock xmlns:dt=""urn:schemas-microsoft-com:datatypes""><Description dt:dt=""string"">E-Prime Primary Realtime Clock</Description><StartTime><Timestamp dt:dt=""int"">0</Timestamp><DateUtc dt:dt=""string"">2018-10-08T17:17:53Z</DateUtc></StartTime><FrequencyChanges><FrequencyChange><Frequency dt:dt=""r8"">3215292</Frequency><Timestamp dt:dt=""r8"">3351291963568</Timestamp><Current dt:dt=""r8"">0</Current><DateUtc dt:dt=""string"">2018-10-08T17:17:53Z</DateUtc></FrequencyChange></FrequencyChanges></Clock>\n",KW_Experiment5A-4-1,59.945,1.0.0.105,2,1218120088,Professional,2.0.10.353,2.0.10.353,10/8/2018,10/8/2018 17:17,13:17:53,2.0.10.248,2,2,1,2,,,,,,,,TrainingProc,BlockList,5,2,Distractor1.bmp,1,0,,0,1,149544,400,,0,0,blue,400,1,400,3,horizontal,blue,Distractor2.bmp,purple,Distractor1.bmp,lime,Target2.bmp,red,Distractor1.bmp,cyan,Distractor2.bmp,yellow,Distractor1.bmp,,,,TrialProc,,TrainingTrialList,1,2,-999999,0,149944,0,2,688,150632,Target2.bmp,lime,2,,,,3,2,5
KW_Experiment5A,4,1,"<?xml version=""1.0""?>\n<Clock xmlns:dt=""urn:schemas-microsoft-com:datatypes""><Description dt:dt=""string"">E-Prime Primary Realtime Clock</Description><StartTime><Timestamp dt:dt=""int"">0</Timestamp><DateUtc dt:dt=""string"">2018-10-08T17:17:53Z</DateUtc></StartTime><FrequencyChanges><FrequencyChange><Frequency dt:dt=""r8"">3215292</Frequency><Timestamp dt:dt=""r8"">3351291963568</Timestamp><Current dt:dt=""r8"">0</Current><DateUtc dt:dt=""string"">2018-10-08T17:17:53Z</DateUtc></FrequencyChange></FrequencyChanges></Clock>\n",KW_Experiment5A-4-1,59.945,1.0.0.105,2,1218120088,Professional,2.0.10.353,2.0.10.353,10/8/2018,10/8/2018 17:17,13:17:53,2.0.10.248,2,2,1,2,,,,,,,,TrainingProc,BlockList,6,1,Distractor1.bmp,1,0,,0,1,151646,601,,0,0,purple,600,3,600,,vertical,red,Target1.bmp,lime,Distractor1.bmp,yellow,Distractor1.bmp,blue,Distractor2.bmp,cyan,Distractor2.bmp,purple,Distractor1.bmp,,,,TrialProc,5,TrainingTrialList,1,1,-999999,1,152247,0,1,625,152872,Target1.bmp,red,1,,,,7,2,6
KW_Experiment5A,4,1,"<?xml version=""1.0""?>\n<Clock xmlns:dt=""urn:schemas-microsoft-com:datatypes""><Description dt:dt=""string"">E-Prime Primary Realtime Clock</Description><StartTime><Timestamp dt:dt=""int"">0</Timestamp><DateUtc dt:dt=""string"">2018-10-08T17:17:53Z</DateUtc></StartTime><FrequencyChanges><FrequencyChange><Frequency dt:dt=""r8"">3215292</Frequency><Timestamp dt:dt=""r8"">3351291963568</Timestamp><Current dt:dt=""r8"">0</Current><DateUtc dt:dt=""string"">2018-10-08T17:17:53Z</DateUtc></FrequencyChange></FrequencyChanges></Clock>\n",KW_Experiment5A-4-1,59.945,1.0.0.105,2,1218120088,Professional,2.0.10.353,2.0.10.353,10/8/2018,10/8/2018 17:17,13:17:53,2.0.10.248,2,2,1,2,,,,,,,,TrainingProc,BlockList,7,2,Distractor1.bmp,1,0,,0,1,153881,601,,0,0,purple,600,3,600,,horizontal,purple,Distractor2.bmp,red,Target2.bmp,cyan,Distractor1.bmp,lime,Distractor1.bmp,yellow,Distractor1.bmp,blue,Distractor2.bmp,,,,TrialProc,5,TrainingTrialList,1,2,-999999,1,154482,0,2,446,154928,Target2.bmp,red,2,,,,8,2,7
KW_Experiment5A,4,1,"<?xml version=""1.0""?>\n<Clock xmlns:dt=""urn:schemas-microsoft-com:datatypes""><Description dt:dt=""string"">E-Prime Primary Realtime Clock</Description><StartTime><Timestamp dt:dt=""int"">0</Timestamp><DateUtc dt:dt=""string"">2018-10-08T17:17:53Z</DateUtc></StartTime><FrequencyChanges><FrequencyChange><Frequency dt:dt=""r8"">3215292</Frequency><Timestamp dt:dt=""r8"">3351291963568</Timestamp><Current dt:dt=""r8"">0</Current><DateUtc dt:dt=""string"">2018-10-08T17:17:53Z</DateUtc></FrequencyChange></FrequencyChanges></Clock>\n",KW_Experiment5A-4-1,59.945,1.0.0.105,2,1218120088,Professional,2.0.10.353,2.0.10.353,10/8/2018,10/8/2018 17:17,13:17:53,2.0.10.248,2,2,1,2,,,,,,,,TrainingProc,BlockList,8,1,Distractor2.bmp,2,0,,0,1,155950,500,,0,0,purple,500,2,500,,vertical,red,Target1.bmp,yellow,Distractor2.bmp,cyan,Distractor2.bmp,lime,Distractor2.bmp,blue,Distractor2.bmp,purple,Distractor2.bmp,,,,TrialProc,5,TrainingTrialList,1,1,-999999,0,156450,0,1,494,156944,Target1.bmp,red,1,,,,7,2,8
KW_Experiment5A,4,1,"<?xml version=""1.0""?>\n<Clock xmlns:dt=""urn:schemas-microsoft-com:datatypes""><Description dt:dt=""string"">E-Prime Primary Realtime Clock</Description><StartTime><Timestamp dt:dt=""int"">0</Timestamp><DateUtc dt:dt=""string"">2018-10-08T17:17:53Z</DateUtc></StartTime><FrequencyChanges><FrequencyChange><Frequency dt:dt=""r8"">3215292</Frequency><Timestamp dt:dt=""r8"">3351291963568</Timestamp><Current dt:dt=""r8"">0</Current><DateUtc dt:dt=""string"">2018-10-08T17:17:53Z</DateUtc></FrequencyChange></FrequencyChanges></Clock>\n",KW_Experiment5A-4-1,59.945,1.0.0.105,2,1218120088,Professional,2.0.10.353,2.0.10.353,10/8/2018,10/8/2018 17:17,13:17:53,2.0.10.248,2,2,1,2,,,,,,,,TrainingProc,BlockList,9,2,Distractor2.bmp,2,0,,0,1,157968,401,,0,0,purple,400,1,400,,horizontal,purple,Distractor1.bmp,lime,Distractor2.bmp,blue,Distractor2.bmp,cyan,Distractor1.bmp,red,Target2.bmp,yellow,Distractor2.bmp,,,,TrialProc,5,TrainingTrialList,0,2,-999999,1,158369,0,1,663,159032,Target2.bmp,red,2,,,,11,2,9
KW_Experiment5A,4,1,"<?xml version=""1.0""?>\n<Clock xmlns:dt=""urn:schemas-microsoft-com:datatypes""><Description dt:dt=""string"">E-Prime Primary Realtime Clock</Description><StartTime><Timestamp dt:dt=""int"">0</Timestamp><DateUtc dt:dt=""string"">2018-10-08T17:17:53Z</DateUtc></StartTime><FrequencyChanges><FrequencyChange><Frequency dt:dt=""r8"">3215292</Frequency><Timestamp dt:dt=""r8"">3351291963568</Timestamp><Current dt:dt=""r8"">0</Current><DateUtc dt:dt=""string"">2018-10-08T17:17:53Z</DateUtc></FrequencyChange></FrequencyChanges></Clock>\n",KW_Experiment5A-4-1,59.945,1.0.0.105,2,1218120088,Professional,2.0.10.353,2.0.10.353,10/8/2018,10/8/2018 17:17,13:17:53,2.0.10.248,2,2,1,2,,,,,,,,TrainingProc,BlockList,10,1,Distractor1.bmp,1,0,,0,1,160054,600,,0,0,blue,600,3,600,,vertical,blue,Distractor2.bmp,lime,Distractor1.bmp,cyan,Distractor1.bmp,red,Target1.bmp,yellow,Distractor1.bmp,purple,Distractor2.bmp,,,,TrialProc,3,TrainingTrialList,1,1,-999999,0,160654,0,1,826,161480,Target1.bmp,red,1,,,,10,2,10
KW_Experiment5A,4,1,"<?xml version=""1.0""?>\n<Clock xmlns:dt=""urn:schemas-microsoft-com:datatypes""><Description dt:dt=""string"">E-Prime Primary Realtime Clock</Description><StartTime><Timestamp dt:dt=""int"">0</Timestamp><DateUtc dt:dt=""string"">2018-10-08T17:17:53Z</DateUtc></StartTime><FrequencyChanges><FrequencyChange><Frequency dt:dt=""r8"">3215292</Frequency><Timestamp dt:dt=""r8"">3351291963568</Timestamp><Current dt:dt=""r8"">0</Current><DateUtc dt:dt=""string"">2018-10-08T17:17:53Z</DateUtc></FrequencyChange></FrequencyChanges></Clock>\n",KW_Experiment5A-4-1,59.945,1.0.0.105,2,1218120088,Professional,2.0.10.353,2.0.10.353,10/8/2018,10/8/2018 17:17,13:17:53,2.0.10.248,2,2,1,2,,,,,,,,TrainingProc,BlockList,11,1,Distractor1.bmp,1,0,,0,1,162489,501,,0,0,blue,500,2,500,3,vertical,blue,Distractor2.bmp,yellow,Distractor1.bmp,purple,Distractor2.bmp,cyan,Distractor2.bmp,lime,Target1.bmp,red,Distractor1.bmp,,,,TrialProc,,TrainingTrialList,1,1,-999999,1,162990,0,1,482,163472,Target1.bmp,lime,1,,,,5,2,11
KW_Experiment5A,4,1,"<?xml version=""1.0""?>\n<Clock xmlns:dt=""urn:schemas-microsoft-com:datatypes""><Description dt:dt=""string"">E-Prime Primary Realtime Clock</Description><StartTime><Timestamp dt:dt=""int"">0</Timestamp><DateUtc dt:dt=""string"">2018-10-08T17:17:53Z</DateUtc></StartTime><FrequencyChanges><FrequencyChange><Frequency dt:dt=""r8"">3215292</Frequency><Timestamp dt:dt=""r8"">3351291963568</Timestamp><Current dt:dt=""r8"">0</Current><DateUtc dt:dt=""string"">2018-10-08T17:17:53Z</DateUtc></FrequencyChange></FrequencyChanges></Clock>\n",KW_Experiment5A-4-1,59.945,1.0.0.105,2,1218120088,Professional,2.0.10.353,2.0.10.353,10/8/2018,10/8/2018 17:17,13:17:53,2.0.10.248,2,2,1,2,,,,,,,,TrainingProc,BlockList,12,2,Distractor1.bmp,1,0,,0,1,164491,500,,0,0,cyan,500,2,500,,horizontal,cyan,Distractor1.bmp,yellow,Distractor1.bmp,purple,Distractor2.bmp,blue,Distractor1.bmp,lime,Distractor1.bmp,red,Target2.bmp,,,,TrialProc,4,TrainingTrialList,1,2,-999999,0,164991,0,2,777,165768,Target2.bmp,red,2,,,,12,2,12
KW_Experiment5A,4,1,"<?xml version=""1.0""?>\n<Clock xmlns:dt=""urn:schemas-microsoft-com:datatypes""><Description dt:dt=""string"">E-Prime Primary Realtime Clock</Description><StartTime><Timestamp dt:dt=""int"">0</Timestamp><DateUtc dt:dt=""string"">2018-10-08T17:17:53Z</DateUtc></StartTime><FrequencyChanges><FrequencyChange><Frequency dt:dt=""r8"">3215292</Frequency><Timestamp dt:dt=""r8"">3351291963568</Timestamp><Current dt:dt=""r8"">0</Current><DateUtc dt:dt=""string"">2018-10-08T17:17:53Z</DateUtc></FrequencyChange></FrequencyChanges></Clock>\n",KW_Experiment5A-4-1,59.945,1.0.0.105,2,1218120088,Professional,2.0.10.353,2.0.10.353,10/8/2018,10/8/2018 17:17,13:17:53,2.0.10.248,2,2,1,2,,,,,,,,TrainingProc,BlockList,13,1,Distractor2.bmp,2,0,,0,1,166793,500,,0,0,red,500,2,500,1,vertical,red,Distractor2.bmp,cyan,Distractor2.bmp,purple,Distractor2.bmp,blue,Distractor2.bmp,yellow,Distractor2.bmp,lime,Target1.bmp,,,,TrialProc,,TrainingTrialList,1,1,-999999,0,167293,0,1,619,167912,Target1.bmp,lime,1,,,,6,2,13
KW_Experiment5A,4,1,"<?xml version=""1.0""?>\n<Clock xmlns:dt=""urn:schemas-microsoft-com:datatypes""><Description dt:dt=""string"">E-Prime Primary Realtime Clock</Description><StartTime><Timestamp dt:dt=""int"">0</Timestamp><DateUtc dt:dt=""string"">2018-10-08T17:17:53Z</DateUtc></StartTime><FrequencyChanges><FrequencyChange><Frequency dt:dt=""r8"">3215292</Frequency><Timestamp dt:dt=""r8"">3351291963568</Timestamp><Current dt:dt=""r8"">0</Current><DateUtc dt:dt=""string"">2018-10-08T17:17:53Z</DateUtc></FrequencyChange></FrequencyChanges></Clock>\n",KW_Experiment5A-4-1,59.945,1.0.0.105,2,1218120088,Professional,2.0.10.353,2.0.10.353,10/8/2018,10/8/2018 17:17,13:17:53,2.0.10.248,2,2,1,2,,,,,,,,TrainingProc,BlockList,14,2,Distractor1.bmp,1,0,,0,1,168928,401,,0,0,purple,400,1,400,,horizontal,purple,Distractor2.bmp,cyan,Distractor2.bmp,red,Target2.bmp,lime,Distractor1.bmp,yellow,Distractor1.bmp,blue,Distractor2.bmp,,,,TrialProc,5,TrainingTrialList,1,2,-999999,1,169329,0,2,614,169943,Target2.bmp,red,2,,,,9,2,14
KW_Experiment5A,4,1,"<?xml version=""1.0""?>\n<Clock xmlns:dt=""urn:schemas-microsoft-com:datatypes""><Description dt:dt=""string"">E-Prime Primary Realtime Clock</Description><StartTime><Timestamp dt:dt=""int"">0</Timestamp><DateUtc dt:dt=""string"">2018-10-08T17:17:53Z</DateUtc></StartTime><FrequencyChanges><FrequencyChange><Frequency dt:dt=""r8"">3215292</Frequency><Timestamp dt:dt=""r8"">3351291963568</Timestamp><Current dt:dt=""r8"">0</Current><DateUtc dt:dt=""string"">2018-10-08T17:17:53Z</DateUtc></FrequencyChange></FrequencyChanges></Clock>\n",KW_Experiment5A-4-1,59.945,1.0.0.105,2,1218120088,Professional,2.0.10.353,2.0.10.353,10/8/2018,10/8/2018 17:17,13:17:53,2.0.10.248,2,2,1,2,,,,,,,,TrainingProc,BlockList,15,1,Distractor1.bmp,1,0,,0,1,170964,400,,0,0,blue,400,1,400,,vertical,blue,Distractor2.bmp,cyan,Distractor1.bmp,lime,Distractor1.bmp,yellow,Distractor1.bmp,red,Target1.bmp,purple,Distractor1.bmp,,,,TrialProc,3,TrainingTrialList,1,1,-999999,0,171364,0,1,483,171847,Target1.bmp,red,1,,,,11,2,15
KW_Experiment5A,4,1,"<?xml version=""1.0""?>\n<Clock xmlns:dt=""urn:schemas-microsoft-com:datatypes""><Description dt:dt=""string"">E-Prime Primary Realtime Clock</Description><StartTime><Timestamp dt:dt=""int"">0</Timestamp><DateUtc dt:dt=""string"">2018-10-08T17:17:53Z</DateUtc></StartTime><FrequencyChanges><FrequencyChange><Frequency dt:dt=""r8"">3215292</Frequency><Timestamp dt:dt=""r8"">3351291963568</Timestamp><Current dt:dt=""r8"">0</Current><DateUtc dt:dt=""string"">2018-10-08T17:17:53Z</DateUtc></FrequencyChange></FrequencyChanges></Clock>\n",KW_Experiment5A-4-1,59.945,1.0.0.105,2,1218120088,Professional,2.0.10.353,2.0.10.353,10/8/2018,10/8/2018 17:17,13:17:53,2.0.10.248,2,2,1,2,,,,,,,,TrainingProc,BlockList,16,2,Distractor1.bmp,1,0,,0,1,172865,601,,0,0,purple,600,3,600,,horizontal,purple,Distractor2.bmp,blue,Distractor1.bmp,cyan,Distractor2.bmp,yellow,Distractor2.bmp,red,Target2.bmp,lime,Distractor1.bmp,,,,TrialProc,5,TrainingTrialList,0,2,-999999,1,173466,0,1,389,173855,Target2.bmp,red,2,,,,11,2,16
KW_Experiment5A,4,1,"<?xml version=""1.0""?>\n<Clock xmlns:dt=""urn:schemas-microsoft-com:datatypes""><Description dt:dt=""string"">E-Prime Primary Realtime Clock</Description><StartTime><Timestamp dt:dt=""int"">0</Timestamp><DateUtc dt:dt=""string"">2018-10-08T17:17:53Z</DateUtc></StartTime><FrequencyChanges><FrequencyChange><Frequency dt:dt=""r8"">3215292</Frequency><Timestamp dt:dt=""r8"">3351291963568</Timestamp><Current dt:dt=""r8"">0</Current><DateUtc dt:dt=""string"">2018-10-08T17:17:53Z</DateUtc></FrequencyChange></FrequencyChanges></Clock>\n",KW_Experiment5A-4-1,59.945,1.0.0.105,2,1218120088,Professional,2.0.10.353,2.0.10.353,10/8/2018,10/8/2018 17:17,13:17:53,2.0.10.248,2,2,1,2,,,,,,,,TrainingProc,BlockList,17,1,Distractor2.bmp,2,0,,0,1,174867,501,,0,0,blue,500,2,500,,vertical,blue,Distractor1.bmp,yellow,Distractor2.bmp,lime,Distractor1.bmp,red,Target1.bmp,cyan,Distractor2.bmp,purple,Distractor1.bmp,,,,TrialProc,3,TrainingTrialList,1,1,-999999,1,175368,0,1,927,176295,Target1.bmp,red,1,,,,10,2,17
KW_Experiment5A,4,1,"<?xml version=""1.0""?>\n<Clock xmlns:dt=""urn:schemas-microsoft-com:datatypes""><Description dt:dt=""string"">E-Prime Primary Realtime Clock</Description><StartTime><Timestamp dt:dt=""int"">0</Timestamp><DateUtc dt:dt=""string"">2018-10-08T17:17:53Z</DateUtc></StartTime><FrequencyChanges><FrequencyChange><Frequency dt:dt=""r8"">3215292</Frequency><Timestamp dt:dt=""r8"">3351291963568</Timestamp><Current dt:dt=""r8"">0</Current><DateUtc dt:dt=""string"">2018-10-08T17:17:53Z</DateUtc></FrequencyChange></FrequencyChanges></Clock>\n",KW_Experiment5A-4-1,59.945,1.0.0.105,2,1218120088,Professional,2.0.10.353,2.0.10.353,10/8/2018,10/8/2018 17:17,13:17:53,2.0.10.248,2,2,1,2,,,,,,,,TrainingProc,BlockList,18,2,Distractor1.bmp,1,0,,0,1,177319,401,,0,0,red,400,1,400,1,horizontal,red,Distractor2.bmp,blue,Distractor1.bmp,purple,Distractor1.bmp,lime,Target2.bmp,yellow,Distractor1.bmp,cyan,Distractor1.bmp,,,,TrialProc,,TrainingTrialList,1,2,-999999,1,177720,0,2,567,178287,Target2.bmp,lime,2,,,,4,2,18
KW_Experiment5A,4,1,"<?xml version=""1.0""?>\n<Clock xmlns:dt=""urn:schemas-microsoft-com:datatypes""><Description dt:dt=""string"">E-Prime Primary Realtime Clock</Description><StartTime><Timestamp dt:dt=""int"">0</Timestamp><DateUtc dt:dt=""string"">2018-10-08T17:17:53Z</DateUtc></StartTime><FrequencyChanges><FrequencyChange><Frequency dt:dt=""r8"">3215292</Frequency><Timestamp dt:dt=""r8"">3351291963568</Timestamp><Current dt:dt=""r8"">0</Current><DateUtc dt:dt=""string"">2018-10-08T17:17:53Z</DateUtc></FrequencyChange></FrequencyChanges></Clock>\n",KW_Experiment5A-4-1,59.945,1.0.0.105,2,1218120088,Professional,2.0.10.353,2.0.10.353,10/8/2018,10/8/2018 17:17,13:17:53,2.0.10.248,2,2,1,2,,,,,,,,TrainingProc,BlockList,19,1,Distractor1.bmp,1,0,,0,0,179304,501,,0,0,red,500,2,500,1,vertical,lime,Target1.bmp,red,Distractor1.bmp,blue,Distractor1.bmp,purple,Distractor1.bmp,yellow,Distractor1.bmp,cyan,Distractor1.bmp,,,,TrialProc,,TrainingTrialList,1,1,-999999,1,179805,0,1,554,180359,Target1.bmp,lime,1,,,,1,2,19
KW_Experiment5A,4,1,"<?xml version=""1.0""?>\n<Clock xmlns:dt=""urn:schemas-microsoft-com:datatypes""><Description dt:dt=""string"">E-Prime Primary Realtime Clock</Description><StartTime><Timestamp dt:dt=""int"">0</Timestamp><DateUtc dt:dt=""string"">2018-10-08T17:17:53Z</DateUtc></StartTime><FrequencyChanges><FrequencyChange><Frequency dt:dt=""r8"">3215292</Frequency><Timestamp dt:dt=""r8"">3351291963568</Timestamp><Current dt:dt=""r8"">0</Current><DateUtc dt:dt=""string"">2018-10-08T17:17:53Z</DateUtc></FrequencyChange></FrequencyChanges></Clock>\n",KW_Experiment5A-4-1,59.945,1.0.0.105,2,1218120088,Professional,2.0.10.353,2.0.10.353,10/8/2018,10/8/2018 17:17,13:17:53,2.0.10.248,2,2,1,2,,,,,,,,TrainingProc,BlockList,20,1,Distractor2.bmp,2,0,,0,1,181373,500,,0,0,cyan,500,2,500,,vertical,cyan,Distractor2.bmp,purple,Distractor1.bmp,yellow,Distractor1.bmp,blue,Distractor2.bmp,lime,Distractor1.bmp,red,Target1.bmp,,,,TrialProc,4,TrainingTrialList,1,1,-999999,0,181873,0,1,494,182367,Target1.bmp,red,1,,,,12,2,20
KW_Experiment5A,4,1,"<?xml version=""1.0""?>\n<Clock xmlns:dt=""urn:schemas-microsoft-com:datatypes""><Description dt:dt=""string"">E-Prime Primary Realtime Clock</Description><StartTime><Timestamp dt:dt=""int"">0</Timestamp><DateUtc dt:dt=""string"">2018-10-08T17:17:53Z</DateUtc></StartTime><FrequencyChanges><FrequencyChange><Frequency dt:dt=""r8"">3215292</Frequency><Timestamp dt:dt=""r8"">3351291963568</Timestamp><Current dt:dt=""r8"">0</Current><DateUtc dt:dt=""string"">2018-10-08T17:17:53Z</DateUtc></FrequencyChange></FrequencyChanges></Clock>\n",KW_Experiment5A-4-1,59.945,1.0.0.105,2,1218120088,Professional,2.0.10.353,2.0.10.353,10/8/2018,10/8/2018 17:17,13:17:53,2.0.10.248,2,2,1,2,,,,,,,,TrainingProc,BlockList,21,1,Distractor2.bmp,2,0,,1,0,183391,401,,0,0,lime,400,1,400,,vertical,lime,Distractor2.bmp,yellow,Distractor1.bmp,blue,Distractor2.bmp,cyan,Distractor1.bmp,purple,Distractor1.bmp,red,Target1.bmp,,,,TrialProc,6,TrainingTrialList,1,1,-999999,1,183792,0,1,655,184447,Target1.bmp,red,1,,,,12,2,21
KW_Experiment5A,4,1,"<?xml version=""1.0""?>\n<Clock xmlns:dt=""urn:schemas-microsoft-com:datatypes""><Description dt:dt=""string"">E-Prime Primary Realtime Clock</Description><StartTime><Timestamp dt:dt=""int"">0</Timestamp><DateUtc dt:dt=""string"">2018-10-08T17:17:53Z</DateUtc></StartTime><FrequencyChanges><FrequencyChange><Frequency dt:dt=""r8"">3215292</Frequency><Timestamp dt:dt=""r8"">3351291963568</Timestamp><Current dt:dt=""r8"">0</Current><DateUtc dt:dt=""string"">2018-10-08T17:17:53Z</DateUtc></FrequencyChange></FrequencyChanges></Clock>\n",KW_Experiment5A-4-1,59.945,1.0.0.105,2,1218120088,Professional,2.0.10.353,2.0.10.353,10/8/2018,10/8/2018 17:17,13:17:53,2.0.10.248,2,2,1,2,,,,,,,,TrainingProc,BlockList,22,2,Distractor1.bmp,1,0,,0,1,185460,500,,0,0,blue,500,2,500,,horizontal,blue,Distractor1.bmp,lime,Distractor1.bmp,red,Target2.bmp,purple,Distractor1.bmp,cyan,Distractor1.bmp,yellow,Distractor1.bmp,,,,TrialProc,3,TrainingTrialList,1,2,-999999,0,185960,0,2,495,186455,Target2.bmp,red,2,,,,9,2,22
KW_Experiment5A,4,1,"<?xml version=""1.0""?>\n<Clock xmlns:dt=""urn:schemas-microsoft-com:datatypes""><Description dt:dt=""string"">E-Prime Primary Realtime Clock</Description><StartTime><Timestamp dt:dt=""int"">0</Timestamp><DateUtc dt:dt=""string"">2018-10-08T17:17:53Z</DateUtc></StartTime><FrequencyChanges><FrequencyChange><Frequency dt:dt=""r8"">3215292</Frequency><Timestamp dt:dt=""r8"">3351291963568</Timestamp><Current dt:dt=""r8"">0</Current><DateUtc dt:dt=""string"">2018-10-08T17:17:53Z</DateUtc></FrequencyChange></FrequencyChanges></Clock>\n",KW_Experiment5A-4-1,59.945,1.0.0.105,2,1218120088,Professional,2.0.10.353,2.0.10.353,10/8/2018,10/8/2018 17:17,13:17:53,2.0.10.248,2,2,1,2,,,,,,,,TrainingProc,BlockList,23,2,Distractor1.bmp,1,0,,0,1,187479,400,,0,0,cyan,400,1,400,,horizontal,cyan,Distractor1.bmp,lime,Distractor1.bmp,blue,Distractor2.bmp,red,Target2.bmp,yellow,Distractor1.bmp,purple,Distractor2.bmp,,,,TrialProc,4,TrainingTrialList,1,2,-999999,0,187879,0,2,632,188511,Target2.bmp,red,2,,,,10,2,23
KW_Experiment5A,4,1,"<?xml version=""1.0""?>\n<Clock xmlns:dt=""urn:schemas-microsoft-com:datatypes""><Description dt:dt=""string"">E-Prime Primary Realtime Clock</Description><StartTime><Timestamp dt:dt=""int"">0</Timestamp><DateUtc dt:dt=""string"">2018-10-08T17:17:53Z</DateUtc></StartTime><FrequencyChanges><FrequencyChange><Frequency dt:dt=""r8"">3215292</Frequency><Timestamp dt:dt=""r8"">3351291963568</Timestamp><Current dt:dt=""r8"">0</Current><DateUtc dt:dt=""string"">2018-10-08T17:17:53Z</DateUtc></FrequencyChange></FrequencyChanges></Clock>\n",KW_Experiment5A-4-1,59.945,1.0.0.105,2,1218120088,Professional,2.0.10.353,2.0.10.353,10/8/2018,10/8/2018 17:17,13:17:53,2.0.10.248,2,2,1,2,,,,,,,,TrainingProc,BlockList,24,1,Distractor2.bmp,2,0,,0,1,189530,601,,0,0,purple,600,3,600,,vertical,purple,Distractor2.bmp,red,Target1.bmp,yellow,Distractor2.bmp,blue,Distractor2.bmp,lime,Distractor2.bmp,cyan,Distractor1.bmp,,,,TrialProc,5,TrainingTrialList,1,1,-999999,1,190131,0,1,564,190695,Target1.bmp,red,1,,,,8,2,24
KW_Experiment5A,4,1,"<?xml version=""1.0""?>\n<Clock xmlns:dt=""urn:schemas-microsoft-com:datatypes""><Description dt:dt=""string"">E-Prime Primary Realtime Clock</Description><StartTime><Timestamp dt:dt=""int"">0</Timestamp><DateUtc dt:dt=""string"">2018-10-08T17:17:53Z</DateUtc></StartTime><FrequencyChanges><FrequencyChange><Frequency dt:dt=""r8"">3215292</Frequency><Timestamp dt:dt=""r8"">3351291963568</Timestamp><Current dt:dt=""r8"">0</Current><DateUtc dt:dt=""string"">2018-10-08T17:17:53Z</DateUtc></FrequencyChange></FrequencyChanges></Clock>\n",KW_Experiment5A-4-1,59.945,1.0.0.105,2,1218120088,Professional,2.0.10.353,2.0.10.353,10/8/2018,10/8/2018 17:17,13:17:53,2.0.10.248,2,2,1,2,,,,,,,,TrainingProc,BlockList,25,1,Distractor2.bmp,2,0,,0,1,191716,500,,0,0,cyan,500,2,500,4,vertical,cyan,Distractor1.bmp,purple,Distractor2.bmp,blue,Distractor1.bmp,yellow,Distractor1.bmp,lime,Target1.bmp,red,Distractor2.bmp,,,,TrialProc,,TrainingTrialList,1,1,-999999,0,192216,0,1,599,192815,Target1.bmp,lime,1,,,,5,3,25
KW_Experiment5A,4,1,"<?xml version=""1.0""?>\n<Clock xmlns:dt=""urn:schemas-microsoft-com:datatypes""><Description dt:dt=""string"">E-Prime Primary Realtime Clock</Description><StartTime><Timestamp dt:dt=""int"">0</Timestamp><DateUtc dt:dt=""string"">2018-10-08T17:17:53Z</DateUtc></StartTime><FrequencyChanges><FrequencyChange><Frequency dt:dt=""r8"">3215292</Frequency><Timestamp dt:dt=""r8"">3351291963568</Timestamp><Current dt:dt=""r8"">0</Current><DateUtc dt:dt=""string"">2018-10-08T17:17:53Z</DateUtc></FrequencyChange></FrequencyChanges></Clock>\n",KW_Experiment5A-4-1,59.945,1.0.0.105,2,1218120088,Professional,2.0.10.353,2.0.10.353,10/8/2018,10/8/2018 17:17,13:17:53,2.0.10.248,2,2,1,2,,,,,,,,TrainingProc,BlockList,26,1,Distractor1.bmp,1,0,,0,1,193834,501,,0,0,purple,500,2,500,5,vertical,purple,Distractor2.bmp,cyan,Distractor1.bmp,lime,Target1.bmp,red,Distractor1.bmp,blue,Distractor1.bmp,yellow,Distractor1.bmp,,,,TrialProc,,TrainingTrialList,0,1,-999999,1,194335,0,2,680,195015,Target1.bmp,lime,1,,,,3,3,26
KW_Experiment5A,4,1,"<?xml version=""1.0""?>\n<Clock xmlns:dt=""urn:schemas-microsoft-com:datatypes""><Description dt:dt=""string"">E-Prime Primary Realtime Clock</Description><StartTime><Timestamp dt:dt=""int"">0</Timestamp><DateUtc dt:dt=""string"">2018-10-08T17:17:53Z</DateUtc></StartTime><FrequencyChanges><FrequencyChange><Frequency dt:dt=""r8"">3215292</Frequency><Timestamp dt:dt=""r8"">3351291963568</Timestamp><Current dt:dt=""r8"">0</Current><DateUtc dt:dt=""string"">2018-10-08T17:17:53Z</DateUtc></FrequencyChange></FrequencyChanges></Clock>\n",KW_Experiment5A-4-1,59.945,1.0.0.105,2,1218120088,Professional,2.0.10.353,2.0.10.353,10/8/2018,10/8/2018 17:17,13:17:53,2.0.10.248,2,2,1,2,,,,,,,,TrainingProc,BlockList,27,2,Distractor2.bmp,2,0,,0,1,196036,601,,0,0,purple,600,3,600,,horizontal,purple,Distractor2.bmp,yellow,Distractor2.bmp,cyan,Distractor2.bmp,blue,Distractor1.bmp,lime,Distractor1.bmp,red,Target2.bmp,,,,TrialProc,5,TrainingTrialList,1,2,-999999,1,196637,0,2,618,197255,Target2.bmp,red,2,,,,12,3,27
KW_Experiment5A,4,1,"<?xml version=""1.0""?>\n<Clock xmlns:dt=""urn:schemas-microsoft-com:datatypes""><Description dt:dt=""string"">E-Prime Primary Realtime Clock</Description><StartTime><Timestamp dt:dt=""int"">0</Timestamp><DateUtc dt:dt=""string"">2018-10-08T17:17:53Z</DateUtc></StartTime><FrequencyChanges><FrequencyChange><Frequency dt:dt=""r8"">3215292</Frequency><Timestamp dt:dt=""r8"">3351291963568</Timestamp><Current dt:dt=""r8"">0</Current><DateUtc dt:dt=""string"">2018-10-08T17:17:53Z</DateUtc></FrequencyChange></FrequencyChanges></Clock>\n",KW_Experiment5A-4-1,59.945,1.0.0.105,2,1218120088,Professional,2.0.10.353,2.0.10.353,10/8/2018,10/8/2018 17:17,13:17:53,2.0.10.248,2,2,1,2,,,,,,,,TrainingProc,BlockList,28,2,Distractor2.bmp,2,0,,0,1,198272,600,,0,0,purple,600,3,600,5,horizontal,lime,Target2.bmp,purple,Distractor2.bmp,red,Distractor1.bmp,cyan,Distractor2.bmp,yellow,Distractor2.bmp,blue,Distractor2.bmp,,,,TrialProc,,TrainingTrialList,1,2,-999999,0,198872,0,2,463,199335,Target2.bmp,lime,2,,,,1,3,28
KW_Experiment5A,4,1,"<?xml version=""1.0""?>\n<Clock xmlns:dt=""urn:schemas-microsoft-com:datatypes""><Description dt:dt=""string"">E-Prime Primary Realtime Clock</Description><StartTime><Timestamp dt:dt=""int"">0</Timestamp><DateUtc dt:dt=""string"">2018-10-08T17:17:53Z</DateUtc></StartTime><FrequencyChanges><FrequencyChange><Frequency dt:dt=""r8"">3215292</Frequency><Timestamp dt:dt=""r8"">3351291963568</Timestamp><Current dt:dt=""r8"">0</Current><DateUtc dt:dt=""string"">2018-10-08T17:17:53Z</DateUtc></FrequencyChange></FrequencyChanges></Clock>\n",KW_Experiment5A-4-1,59.945,1.0.0.105,2,1218120088,Professional,2.0.10.353,2.0.10.353,10/8/2018,10/8/2018 17:17,13:17:53,2.0.10.248,2,2,1,2,,,,,,,,TrainingProc,BlockList,29,1,Distractor2.bmp,2,0,,0,1,200357,600,,0,0,cyan,600,3,600,,vertical,cyan,Distractor1.bmp,lime,Distractor2.bmp,blue,Distractor1.bmp,red,Target1.bmp,yellow,Distractor2.bmp,purple,Distractor1.bmp,,,,TrialProc,4,TrainingTrialList,1,1,-999999,0,200957,0,1,674,201631,Target1.bmp,red,1,,,,10,3,29
KW_Experiment5A,4,1,"<?xml version=""1.0""?>\n<Clock xmlns:dt=""urn:schemas-microsoft-com:datatypes""><Description dt:dt=""string"">E-Prime Primary Realtime Clock</Description><StartTime><Timestamp dt:dt=""int"">0</Timestamp><DateUtc dt:dt=""string"">2018-10-08T17:17:53Z</DateUtc></StartTime><FrequencyChanges><FrequencyChange><Frequency dt:dt=""r8"">3215292</Frequency><Timestamp dt:dt=""r8"">3351291963568</Timestamp><Current dt:dt=""r8"">0</Current><DateUtc dt:dt=""string"">2018-10-08T17:17:53Z</DateUtc></FrequencyChange></FrequencyChanges></Clock>\n",KW_Experiment5A-4-1,59.945,1.0.0.105,2,1218120088,Professional,2.0.10.353,2.0.10.353,10/8/2018,10/8/2018 17:17,13:17:53,2.0.10.248,2,2,1,2,,,,,,,,TrainingProc,BlockList,30,2,Distractor1.bmp,1,0,,0,1,202642,401,,0,0,purple,400,1,400,,horizontal,red,Target2.bmp,yellow,Distractor1.bmp,blue,Distractor1.bmp,lime,Distractor2.bmp,cyan,Distractor2.bmp,purple,Distractor1.bmp,,,,TrialProc,5,TrainingTrialList,1,2,-999999,1,203043,0,2,524,203567,Target2.bmp,red,2,,,,7,3,30
KW_Experiment5A,4,1,"<?xml version=""1.0""?>\n<Clock xmlns:dt=""urn:schemas-microsoft-com:datatypes""><Description dt:dt=""string"">E-Prime Primary Realtime Clock</Description><StartTime><Timestamp dt:dt=""int"">0</Timestamp><DateUtc dt:dt=""string"">2018-10-08T17:17:53Z</DateUtc></StartTime><FrequencyChanges><FrequencyChange><Frequency dt:dt=""r8"">3215292</Frequency><Timestamp dt:dt=""r8"">3351291963568</Timestamp><Current dt:dt=""r8"">0</Current><DateUtc dt:dt=""string"">2018-10-08T17:17:53Z</DateUtc></FrequencyChange></FrequencyChanges></Clock>\n",KW_Experiment5A-4-1,59.945,1.0.0.105,2,1218120088,Professional,2.0.10.353,2.0.10.353,10/8/2018,10/8/2018 17:17,13:17:53,2.0.10.248,2,2,1,2,,,,,,,,TrainingProc,BlockList,31,2,Distractor2.bmp,2,0,,0,1,204577,401,,0,0,blue,400,1,400,,horizontal,blue,Distractor2.bmp,red,Target2.bmp,cyan,Distractor2.bmp,lime,Distractor2.bmp,yellow,Distractor1.bmp,purple,Distractor2.bmp,,,,TrialProc,3,TrainingTrialList,1,2,-999999,1,204978,0,2,421,205399,Target2.bmp,red,2,,,,8,3,31
KW_Experiment5A,4,1,"<?xml version=""1.0""?>\n<Clock xmlns:dt=""urn:schemas-microsoft-com:datatypes""><Description dt:dt=""string"">E-Prime Primary Realtime Clock</Description><StartTime><Timestamp dt:dt=""int"">0</Timestamp><DateUtc dt:dt=""string"">2018-10-08T17:17:53Z</DateUtc></StartTime><FrequencyChanges><FrequencyChange><Frequency dt:dt=""r8"">3215292</Frequency><Timestamp dt:dt=""r8"">3351291963568</Timestamp><Current dt:dt=""r8"">0</Current><DateUtc dt:dt=""string"">2018-10-08T17:17:53Z</DateUtc></FrequencyChange></FrequencyChanges></Clock>\n",KW_Experiment5A-4-1,59.945,1.0.0.105,2,1218120088,Professional,2.0.10.353,2.0.10.353,10/8/2018,10/8/2018 17:17,13:17:53,2.0.10.248,2,2,1,2,,,,,,,,TrainingProc,BlockList,32,2,Distractor2.bmp,2,0,,0,1,206412,401,,0,0,cyan,400,1,400,,horizontal,cyan,Distractor1.bmp,purple,Distractor1.bmp,blue,Distractor1.bmp,yellow,Distractor1.bmp,red,Target2.bmp,lime,Distractor2.bmp,,,,TrialProc,4,TrainingTrialList,1,2,-999999,1,206813,0,2,474,207287,Target2.bmp,red,2,,,,11,3,32
KW_Experiment5A,4,1,"<?xml version=""1.0""?>\n<Clock xmlns:dt=""urn:schemas-microsoft-com:datatypes""><Description dt:dt=""string"">E-Prime Primary Realtime Clock</Description><StartTime><Timestamp dt:dt=""int"">0</Timestamp><DateUtc dt:dt=""string"">2018-10-08T17:17:53Z</DateUtc></StartTime><FrequencyChanges><FrequencyChange><Frequency dt:dt=""r8"">3215292</Frequency><Timestamp dt:dt=""r8"">3351291963568</Timestamp><Current dt:dt=""r8"">0</Current><DateUtc dt:dt=""string"">2018-10-08T17:17:53Z</DateUtc></FrequencyChange></FrequencyChanges></Clock>\n",KW_Experiment5A-4-1,59.945,1.0.0.105,2,1218120088,Professional,2.0.10.353,2.0.10.353,10/8/2018,10/8/2018 17:17,13:17:53,2.0.10.248,2,2,1,2,,,,,,,,TrainingProc,BlockList,33,1,Distractor1.bmp,1,0,,1,0,208297,501,,0,0,cyan,500,2,500,,vertical,cyan,Distractor1.bmp,yellow,Distractor2.bmp,lime,Distractor1.bmp,purple,Distractor1.bmp,red,Target1.bmp,blue,Distractor1.bmp,,,,TrialProc,4,TrainingTrialList,1,1,-999999,1,208798,0,1,505,209303,Target1.bmp,red,1,,,,11,3,33
KW_Experiment5A,4,1,"<?xml version=""1.0""?>\n<Clock xmlns:dt=""urn:schemas-microsoft-com:datatypes""><Description dt:dt=""string"">E-Prime Primary Realtime Clock</Description><StartTime><Timestamp dt:dt=""int"">0</Timestamp><DateUtc dt:dt=""string"">2018-10-08T17:17:53Z</DateUtc></StartTime><FrequencyChanges><FrequencyChange><Frequency dt:dt=""r8"">3215292</Frequency><Timestamp dt:dt=""r8"">3351291963568</Timestamp><Current dt:dt=""r8"">0</Current><DateUtc dt:dt=""string"">2018-10-08T17:17:53Z</DateUtc></FrequencyChange></FrequencyChanges></Clock>\n",KW_Experiment5A-4-1,59.945,1.0.0.105,2,1218120088,Professional,2.0.10.353,2.0.10.353,10/8/2018,10/8/2018 17:17,13:17:53,2.0.10.248,2,2,1,2,,,,,,,,TrainingProc,BlockList,34,2,Distractor1.bmp,1,0,,0,1,210316,601,,0,0,lime,600,3,600,,horizontal,lime,Distractor1.bmp,yellow,Distractor1.bmp,blue,Distractor2.bmp,purple,Distractor2.bmp,cyan,Distractor1.bmp,red,Target2.bmp,,,,TrialProc,6,TrainingTrialList,1,2,-999999,1,210917,0,2,473,211390,Target2.bmp,red,2,,,,12,3,34
KW_Experiment5A,4,1,"<?xml version=""1.0""?>\n<Clock xmlns:dt=""urn:schemas-microsoft-com:datatypes""><Description dt:dt=""string"">E-Prime Primary Realtime Clock</Description><StartTime><Timestamp dt:dt=""int"">0</Timestamp><DateUtc dt:dt=""string"">2018-10-08T17:17:53Z</DateUtc></StartTime><FrequencyChanges><FrequencyChange><Frequency dt:dt=""r8"">3215292</Frequency><Timestamp dt:dt=""r8"">3351291963568</Timestamp><Current dt:dt=""r8"">0</Current><DateUtc dt:dt=""string"">2018-10-08T17:17:53Z</DateUtc></FrequencyChange></FrequencyChanges></Clock>\n",KW_Experiment5A-4-1,59.945,1.0.0.105,2,1218120088,Professional,2.0.10.353,2.0.10.353,10/8/2018,10/8/2018 17:17,13:17:53,2.0.10.248,2,2,1,2,,,,,,,,TrainingProc,BlockList,35,1,Distractor1.bmp,1,0,,0,1,212401,501,,0,0,blue,500,2,500,,vertical,blue,Distractor2.bmp,purple,Distractor2.bmp,lime,Distractor2.bmp,red,Target1.bmp,yellow,Distractor1.bmp,cyan,Distractor1.bmp,,,,TrialProc,3,TrainingTrialList,1,1,-999999,1,212902,0,1,608,213510,Target1.bmp,red,1,,,,10,3,35
KW_Experiment5A,4,1,"<?xml version=""1.0""?>\n<Clock xmlns:dt=""urn:schemas-microsoft-com:datatypes""><Description dt:dt=""string"">E-Prime Primary Realtime Clock</Description><StartTime><Timestamp dt:dt=""int"">0</Timestamp><DateUtc dt:dt=""string"">2018-10-08T17:17:53Z</DateUtc></StartTime><FrequencyChanges><FrequencyChange><Frequency dt:dt=""r8"">3215292</Frequency><Timestamp dt:dt=""r8"">3351291963568</Timestamp><Current dt:dt=""r8"">0</Current><DateUtc dt:dt=""string"">2018-10-08T17:17:53Z</DateUtc></FrequencyChange></FrequencyChanges></Clock>\n",KW_Experiment5A-4-1,59.945,1.0.0.105,2,1218120088,Professional,2.0.10.353,2.0.10.353,10/8/2018,10/8/2018 17:17,13:17:53,2.0.10.248,2,2,1,2,,,,,,,,TrainingProc,BlockList,36,2,Distractor1.bmp,1,0,,0,1,214520,400,,0,0,yellow,400,1,400,,horizontal,yellow,Distractor1.bmp,red,Target2.bmp,blue,Distractor1.bmp,purple,Distractor1.bmp,cyan,Distractor1.bmp,lime,Distractor2.bmp,,,,TrialProc,2,TrainingTrialList,1,2,-999999,0,214920,0,2,422,215342,Target2.bmp,red,2,,,,8,3,36
KW_Experiment5A,4,1,"<?xml version=""1.0""?>\n<Clock xmlns:dt=""urn:schemas-microsoft-com:datatypes""><Description dt:dt=""string"">E-Prime Primary Realtime Clock</Description><StartTime><Timestamp dt:dt=""int"">0</Timestamp><DateUtc dt:dt=""string"">2018-10-08T17:17:53Z</DateUtc></StartTime><FrequencyChanges><FrequencyChange><Frequency dt:dt=""r8"">3215292</Frequency><Timestamp dt:dt=""r8"">3351291963568</Timestamp><Current dt:dt=""r8"">0</Current><DateUtc dt:dt=""string"">2018-10-08T17:17:53Z</DateUtc></FrequencyChange></FrequencyChanges></Clock>\n",KW_Experiment5A-4-1,59.945,1.0.0.105,2,1218120088,Professional,2.0.10.353,2.0.10.353,10/8/2018,10/8/2018 17:17,13:17:53,2.0.10.248,2,2,1,2,,,,,,,,TrainingProc,BlockList,37,2,Distractor2.bmp,2,0,,0,1,216355,500,,0,0,cyan,500,2,500,4,horizontal,cyan,Distractor2.bmp,lime,Target2.bmp,red,Distractor2.bmp,purple,Distractor1.bmp,yellow,Distractor1.bmp,blue,Distractor1.bmp,,,,TrialProc,,TrainingTrialList,1,2,-999999,0,216855,0,2,471,217326,Target2.bmp,lime,2,,,,2,3,37
KW_Experiment5A,4,1,"<?xml version=""1.0""?>\n<Clock xmlns:dt=""urn:schemas-microsoft-com:datatypes""><Description dt:dt=""string"">E-Prime Primary Realtime Clock</Description><StartTime><Timestamp dt:dt=""int"">0</Timestamp><DateUtc dt:dt=""string"">2018-10-08T17:17:53Z</DateUtc></StartTime><FrequencyChanges><FrequencyChange><Frequency dt:dt=""r8"">3215292</Frequency><Timestamp dt:dt=""r8"">3351291963568</Timestamp><Current dt:dt=""r8"">0</Current><DateUtc dt:dt=""string"">2018-10-08T17:17:53Z</DateUtc></FrequencyChange></FrequencyChanges></Clock>\n",KW_Experiment5A-4-1,59.945,1.0.0.105,2,1218120088,Professional,2.0.10.353,2.0.10.353,10/8/2018,10/8/2018 17:17,13:17:53,2.0.10.248,2,2,1,2,,,,,,,,TrainingProc,BlockList,38,2,Distractor1.bmp,1,0,,0,1,218340,400,,0,0,blue,400,1,400,,horizontal,blue,Distractor1.bmp,cyan,Distractor1.bmp,lime,Distractor2.bmp,yellow,Distractor2.bmp,purple,Distractor2.bmp,red,Target2.bmp,,,,TrialProc,3,TrainingTrialList,1,2,-999999,0,218740,0,2,530,219270,Target2.bmp,red,2,,,,12,3,38
KW_Experiment5A,4,1,"<?xml version=""1.0""?>\n<Clock xmlns:dt=""urn:schemas-microsoft-com:datatypes""><Description dt:dt=""string"">E-Prime Primary Realtime Clock</Description><StartTime><Timestamp dt:dt=""int"">0</Timestamp><DateUtc dt:dt=""string"">2018-10-08T17:17:53Z</DateUtc></StartTime><FrequencyChanges><FrequencyChange><Frequency dt:dt=""r8"">3215292</Frequency><Timestamp dt:dt=""r8"">3351291963568</Timestamp><Current dt:dt=""r8"">0</Current><DateUtc dt:dt=""string"">2018-10-08T17:17:53Z</DateUtc></FrequencyChange></FrequencyChanges></Clock>\n",KW_Experiment5A-4-1,59.945,1.0.0.105,2,1218120088,Professional,2.0.10.353,2.0.10.353,10/8/2018,10/8/2018 17:17,13:17:53,2.0.10.248,2,2,1,2,,,,,,,,TrainingProc,BlockList,39,2,Distractor2.bmp,2,0,,0,1,220292,600,,0,0,yellow,600,3,600,,horizontal,yellow,Distractor1.bmp,red,Target2.bmp,purple,Distractor2.bmp,lime,Distractor1.bmp,blue,Distractor1.bmp,cyan,Distractor1.bmp,,,,TrialProc,2,TrainingTrialList,1,2,-999999,0,220892,0,2,506,221398,Target2.bmp,red,2,,,,8,3,39
KW_Experiment5A,4,1,"<?xml version=""1.0""?>\n<Clock xmlns:dt=""urn:schemas-microsoft-com:datatypes""><Description dt:dt=""string"">E-Prime Primary Realtime Clock</Description><StartTime><Timestamp dt:dt=""int"">0</Timestamp><DateUtc dt:dt=""string"">2018-10-08T17:17:53Z</DateUtc></StartTime><FrequencyChanges><FrequencyChange><Frequency dt:dt=""r8"">3215292</Frequency><Timestamp dt:dt=""r8"">3351291963568</Timestamp><Current dt:dt=""r8"">0</Current><DateUtc dt:dt=""string"">2018-10-08T17:17:53Z</DateUtc></FrequencyChange></FrequencyChanges></Clock>\n",KW_Experiment5A-4-1,59.945,1.0.0.105,2,1218120088,Professional,2.0.10.353,2.0.10.353,10/8/2018,10/8/2018 17:17,13:17:53,2.0.10.248,2,2,1,2,,,,,,,,TrainingProc,BlockList,40,2,Distractor2.bmp,2,0,,0,1,222410,501,,0,0,blue,500,2,500,,horizontal,red,Target2.bmp,cyan,Distractor2.bmp,lime,Distractor1.bmp,purple,Distractor2.bmp,yellow,Distractor1.bmp,blue,Distractor1.bmp,,,,TrialProc,3,TrainingTrialList,1,2,-999999,1,222911,0,2,447,223358,Target2.bmp,red,2,,,,7,3,40
KW_Experiment5A,4,1,"<?xml version=""1.0""?>\n<Clock xmlns:dt=""urn:schemas-microsoft-com:datatypes""><Description dt:dt=""string"">E-Prime Primary Realtime Clock</Description><StartTime><Timestamp dt:dt=""int"">0</Timestamp><DateUtc dt:dt=""string"">2018-10-08T17:17:53Z</DateUtc></StartTime><FrequencyChanges><FrequencyChange><Frequency dt:dt=""r8"">3215292</Frequency><Timestamp dt:dt=""r8"">3351291963568</Timestamp><Current dt:dt=""r8"">0</Current><DateUtc dt:dt=""string"">2018-10-08T17:17:53Z</DateUtc></FrequencyChange></FrequencyChanges></Clock>\n",KW_Experiment5A-4-1,59.945,1.0.0.105,2,1218120088,Professional,2.0.10.353,2.0.10.353,10/8/2018,10/8/2018 17:17,13:17:53,2.0.10.248,2,2,1,2,,,,,,,,TrainingProc,BlockList,41,2,Distractor2.bmp,2,0,,0,1,224379,500,,0,0,red,500,2,500,1,horizontal,red,Distractor2.bmp,yellow,Distractor1.bmp,blue,Distractor1.bmp,purple,Distractor2.bmp,cyan,Distractor1.bmp,lime,Target2.bmp,,,,TrialProc,,TrainingTrialList,1,2,-999999,0,224879,0,2,463,225342,Target2.bmp,lime,2,,,,6,3,41
KW_Experiment5A,4,1,"<?xml version=""1.0""?>\n<Clock xmlns:dt=""urn:schemas-microsoft-com:datatypes""><Description dt:dt=""string"">E-Prime Primary Realtime Clock</Description><StartTime><Timestamp dt:dt=""int"">0</Timestamp><DateUtc dt:dt=""string"">2018-10-08T17:17:53Z</DateUtc></StartTime><FrequencyChanges><FrequencyChange><Frequency dt:dt=""r8"">3215292</Frequency><Timestamp dt:dt=""r8"">3351291963568</Timestamp><Current dt:dt=""r8"">0</Current><DateUtc dt:dt=""string"">2018-10-08T17:17:53Z</DateUtc></FrequencyChange></FrequencyChanges></Clock>\n",KW_Experiment5A-4-1,59.945,1.0.0.105,2,1218120088,Professional,2.0.10.353,2.0.10.353,10/8/2018,10/8/2018 17:17,13:17:53,2.0.10.248,2,2,1,2,,,,,,,,TrainingProc,BlockList,42,2,Distractor1.bmp,1,0,,0,1,226364,500,,0,0,yellow,500,2,500,,horizontal,yellow,Distractor2.bmp,purple,Distractor1.bmp,blue,Distractor1.bmp,cyan,Distractor1.bmp,red,Target2.bmp,lime,Distractor1.bmp,,,,TrialProc,2,TrainingTrialList,1,2,-999999,0,226864,0,2,566,227430,Target2.bmp,red,2,,,,11,3,42
KW_Experiment5A,4,1,"<?xml version=""1.0""?>\n<Clock xmlns:dt=""urn:schemas-microsoft-com:datatypes""><Description dt:dt=""string"">E-Prime Primary Realtime Clock</Description><StartTime><Timestamp dt:dt=""int"">0</Timestamp><DateUtc dt:dt=""string"">2018-10-08T17:17:53Z</DateUtc></StartTime><FrequencyChanges><FrequencyChange><Frequency dt:dt=""r8"">3215292</Frequency><Timestamp dt:dt=""r8"">3351291963568</Timestamp><Current dt:dt=""r8"">0</Current><DateUtc dt:dt=""string"">2018-10-08T17:17:53Z</DateUtc></FrequencyChange></FrequencyChanges></Clock>\n",KW_Experiment5A-4-1,59.945,1.0.0.105,2,1218120088,Professional,2.0.10.353,2.0.10.353,10/8/2018,10/8/2018 17:17,13:17:53,2.0.10.248,2,2,1,2,,,,,,,,TrainingProc,BlockList,43,1,Distractor2.bmp,2,0,,0,1,228449,501,,0,0,cyan,500,2,500,,vertical,cyan,Distractor2.bmp,lime,Distractor1.bmp,red,Target1.bmp,yellow,Distractor2.bmp,purple,Distractor2.bmp,blue,Distractor1.bmp,,,,TrialProc,4,TrainingTrialList,1,1,-999999,1,228950,0,1,664,229614,Target1.bmp,red,1,,,,9,3,43
KW_Experiment5A,4,1,"<?xml version=""1.0""?>\n<Clock xmlns:dt=""urn:schemas-microsoft-com:datatypes""><Description dt:dt=""string"">E-Prime Primary Realtime Clock</Description><StartTime><Timestamp dt:dt=""int"">0</Timestamp><DateUtc dt:dt=""string"">2018-10-08T17:17:53Z</DateUtc></StartTime><FrequencyChanges><FrequencyChange><Frequency dt:dt=""r8"">3215292</Frequency><Timestamp dt:dt=""r8"">3351291963568</Timestamp><Current dt:dt=""r8"">0</Current><DateUtc dt:dt=""string"">2018-10-08T17:17:53Z</DateUtc></FrequencyChange></FrequencyChanges></Clock>\n",KW_Experiment5A-4-1,59.945,1.0.0.105,2,1218120088,Professional,2.0.10.353,2.0.10.353,10/8/2018,10/8/2018 17:17,13:17:53,2.0.10.248,2,2,1,2,,,,,,,,TrainingProc,BlockList,44,1,Distractor1.bmp,1,0,,0,1,230634,501,,0,0,lime,500,2,500,,vertical,lime,Distractor1.bmp,yellow,Distractor1.bmp,red,Target1.bmp,blue,Distractor1.bmp,purple,Distractor1.bmp,cyan,Distractor1.bmp,,,,TrialProc,6,TrainingTrialList,1,1,-999999,1,231135,0,1,495,231630,Target1.bmp,red,1,,,,9,3,44
KW_Experiment5A,4,1,"<?xml version=""1.0""?>\n<Clock xmlns:dt=""urn:schemas-microsoft-com:datatypes""><Description dt:dt=""string"">E-Prime Primary Realtime Clock</Description><StartTime><Timestamp dt:dt=""int"">0</Timestamp><DateUtc dt:dt=""string"">2018-10-08T17:17:53Z</DateUtc></StartTime><FrequencyChanges><FrequencyChange><Frequency dt:dt=""r8"">3215292</Frequency><Timestamp dt:dt=""r8"">3351291963568</Timestamp><Current dt:dt=""r8"">0</Current><DateUtc dt:dt=""string"">2018-10-08T17:17:53Z</DateUtc></FrequencyChange></FrequencyChanges></Clock>\n",KW_Experiment5A-4-1,59.945,1.0.0.105,2,1218120088,Professional,2.0.10.353,2.0.10.353,10/8/2018,10/8/2018 17:17,13:17:53,2.0.10.248,2,2,1,2,,,,,,,,TrainingProc,BlockList,45,2,Distractor1.bmp,1,0,,0,1,232653,400,,0,0,cyan,400,1,400,,horizontal,red,Target2.bmp,blue,Distractor1.bmp,purple,Distractor1.bmp,yellow,Distractor1.bmp,lime,Distractor2.bmp,cyan,Distractor1.bmp,,,,TrialProc,4,TrainingTrialList,1,2,-999999,0,233053,0,2,473,233526,Target2.bmp,red,2,,,,7,3,45
KW_Experiment5A,4,1,"<?xml version=""1.0""?>\n<Clock xmlns:dt=""urn:schemas-microsoft-com:datatypes""><Description dt:dt=""string"">E-Prime Primary Realtime Clock</Description><StartTime><Timestamp dt:dt=""int"">0</Timestamp><DateUtc dt:dt=""string"">2018-10-08T17:17:53Z</DateUtc></StartTime><FrequencyChanges><FrequencyChange><Frequency dt:dt=""r8"">3215292</Frequency><Timestamp dt:dt=""r8"">3351291963568</Timestamp><Current dt:dt=""r8"">0</Current><DateUtc dt:dt=""string"">2018-10-08T17:17:53Z</DateUtc></FrequencyChange></FrequencyChanges></Clock>\n",KW_Experiment5A-4-1,59.945,1.0.0.105,2,1218120088,Professional,2.0.10.353,2.0.10.353,10/8/2018,10/8/2018 17:17,13:17:53,2.0.10.248,2,2,1,2,,,,,,,,TrainingProc,BlockList,46,2,Distractor1.bmp,1,0,,0,1,234538,500,,0,0,cyan,500,2,500,4,horizontal,cyan,Distractor1.bmp,yellow,Distractor2.bmp,blue,Distractor2.bmp,lime,Target2.bmp,purple,Distractor1.bmp,red,Distractor1.bmp,,,,TrialProc,,TrainingTrialList,1,2,-999999,0,235038,0,2,936,235974,Target2.bmp,lime,2,,,,4,3,46
KW_Experiment5A,4,1,"<?xml version=""1.0""?>\n<Clock xmlns:dt=""urn:schemas-microsoft-com:datatypes""><Description dt:dt=""string"">E-Prime Primary Realtime Clock</Description><StartTime><Timestamp dt:dt=""int"">0</Timestamp><DateUtc dt:dt=""string"">2018-10-08T17:17:53Z</DateUtc></StartTime><FrequencyChanges><FrequencyChange><Frequency dt:dt=""r8"">3215292</Frequency><Timestamp dt:dt=""r8"">3351291963568</Timestamp><Current dt:dt=""r8"">0</Current><DateUtc dt:dt=""string"">2018-10-08T17:17:53Z</DateUtc></FrequencyChange></FrequencyChanges></Clock>\n",KW_Experiment5A-4-1,59.945,1.0.0.105,2,1218120088,Professional,2.0.10.353,2.0.10.353,10/8/2018,10/8/2018 17:17,13:17:53,2.0.10.248,2,2,1,2,,,,,,,,TrainingProc,BlockList,47,2,Distractor2.bmp,2,0,,0,1,236990,401,,0,0,purple,400,1,400,,horizontal,purple,Distractor2.bmp,cyan,Distractor2.bmp,lime,Distractor1.bmp,red,Target2.bmp,yellow,Distractor2.bmp,blue,Distractor1.bmp,,,,TrialProc,5,TrainingTrialList,1,2,-999999,1,237391,0,2,575,237966,Target2.bmp,red,2,,,,10,3,47
KW_Experiment5A,4,1,"<?xml version=""1.0""?>\n<Clock xmlns:dt=""urn:schemas-microsoft-com:datatypes""><Description dt:dt=""string"">E-Prime Primary Realtime Clock</Description><StartTime><Timestamp dt:dt=""int"">0</Timestamp><DateUtc dt:dt=""string"">2018-10-08T17:17:53Z</DateUtc></StartTime><FrequencyChanges><FrequencyChange><Frequency dt:dt=""r8"">3215292</Frequency><Timestamp dt:dt=""r8"">3351291963568</Timestamp><Current dt:dt=""r8"">0</Current><DateUtc dt:dt=""string"">2018-10-08T17:17:53Z</DateUtc></FrequencyChange></FrequencyChanges></Clock>\n",KW_Experiment5A-4-1,59.945,1.0.0.105,2,1218120088,Professional,2.0.10.353,2.0.10.353,10/8/2018,10/8/2018 17:17,13:17:53,2.0.10.248,2,2,1,2,,,,,,,,TrainingProc,BlockList,48,2,Distractor1.bmp,1,0,,0,1,238975,401,,0,0,purple,400,1,400,,horizontal,purple,Distractor1.bmp,blue,Distractor1.bmp,red,Target2.bmp,lime,Distractor1.bmp,cyan,Distractor1.bmp,yellow,Distractor1.bmp,,,,TrialProc,5,TrainingTrialList,1,2,-999999,1,239376,0,2,590,239966,Target2.bmp,red,2,,,,9,3,48
KW_Experiment5A,4,1,"<?xml version=""1.0""?>\n<Clock xmlns:dt=""urn:schemas-microsoft-com:datatypes""><Description dt:dt=""string"">E-Prime Primary Realtime Clock</Description><StartTime><Timestamp dt:dt=""int"">0</Timestamp><DateUtc dt:dt=""string"">2018-10-08T17:17:53Z</DateUtc></StartTime><FrequencyChanges><FrequencyChange><Frequency dt:dt=""r8"">3215292</Frequency><Timestamp dt:dt=""r8"">3351291963568</Timestamp><Current dt:dt=""r8"">0</Current><DateUtc dt:dt=""string"">2018-10-08T17:17:53Z</DateUtc></FrequencyChange></FrequencyChanges></Clock>\n",KW_Experiment5A-4-1,59.945,1.0.0.105,2,1218120088,Professional,2.0.10.353,2.0.10.353,10/8/2018,10/8/2018 17:17,13:17:53,2.0.10.248,3,2,1,3,,,,,,,,TrainingProc,BlockList,1,2,Distractor2.bmp,2,0,,0,19,246849,601,,0,0,lime,600,3,600,,horizontal,lime,Distractor2.bmp,blue,Distractor2.bmp,yellow,Distractor1.bmp,red,Target2.bmp,purple,Distractor2.bmp,cyan,Distractor1.bmp,,,,TrialProc,6,TrainingTrialList,1,2,-999999,1,247450,0,2,556,248006,Target2.bmp,red,2,,,,10,4,49
KW_Experiment5A,4,1,"<?xml version=""1.0""?>\n<Clock xmlns:dt=""urn:schemas-microsoft-com:datatypes""><Description dt:dt=""string"">E-Prime Primary Realtime Clock</Description><StartTime><Timestamp dt:dt=""int"">0</Timestamp><DateUtc dt:dt=""string"">2018-10-08T17:17:53Z</DateUtc></StartTime><FrequencyChanges><FrequencyChange><Frequency dt:dt=""r8"">3215292</Frequency><Timestamp dt:dt=""r8"">3351291963568</Timestamp><Current dt:dt=""r8"">0</Current><DateUtc dt:dt=""string"">2018-10-08T17:17:53Z</DateUtc></FrequencyChange></FrequencyChanges></Clock>\n",KW_Experiment5A-4-1,59.945,1.0.0.105,2,1218120088,Professional,2.0.10.353,2.0.10.353,10/8/2018,10/8/2018 17:17,13:17:53,2.0.10.248,3,2,1,3,,,,,,,,TrainingProc,BlockList,2,2,Distractor2.bmp,2,0,,0,1,249018,600,,0,0,lime,600,3,600,,horizontal,lime,Distractor2.bmp,yellow,Distractor2.bmp,purple,Distractor2.bmp,red,Target2.bmp,blue,Distractor2.bmp,cyan,Distractor2.bmp,,,,TrialProc,6,TrainingTrialList,1,2,-999999,0,249618,0,2,444,250062,Target2.bmp,red,2,,,,10,4,50
KW_Experiment5A,4,1,"<?xml version=""1.0""?>\n<Clock xmlns:dt=""urn:schemas-microsoft-com:datatypes""><Description dt:dt=""string"">E-Prime Primary Realtime Clock</Description><StartTime><Timestamp dt:dt=""int"">0</Timestamp><DateUtc dt:dt=""string"">2018-10-08T17:17:53Z</DateUtc></StartTime><FrequencyChanges><FrequencyChange><Frequency dt:dt=""r8"">3215292</Frequency><Timestamp dt:dt=""r8"">3351291963568</Timestamp><Current dt:dt=""r8"">0</Current><DateUtc dt:dt=""string"">2018-10-08T17:17:53Z</DateUtc></FrequencyChange></FrequencyChanges></Clock>\n",KW_Experiment5A-4-1,59.945,1.0.0.105,2,1218120088,Professional,2.0.10.353,2.0.10.353,10/8/2018,10/8/2018 17:17,13:17:53,2.0.10.248,3,2,1,3,,,,,,,,TrainingProc,BlockList,3,2,Distractor1.bmp,1,0,,0,1,251086,401,,0,0,yellow,400,1,400,,horizontal,yellow,Distractor1.bmp,purple,Distractor1.bmp,lime,Distractor1.bmp,cyan,Distractor2.bmp,blue,Distractor1.bmp,red,Target2.bmp,,,,TrialProc,2,TrainingTrialList,1,2,-999999,1,251487,0,2,566,252053,Target2.bmp,red,2,,,,12,4,51
KW_Experiment5A,4,1,"<?xml version=""1.0""?>\n<Clock xmlns:dt=""urn:schemas-microsoft-com:datatypes""><Description dt:dt=""string"">E-Prime Primary Realtime Clock</Description><StartTime><Timestamp dt:dt=""int"">0</Timestamp><DateUtc dt:dt=""string"">2018-10-08T17:17:53Z</DateUtc></StartTime><FrequencyChanges><FrequencyChange><Frequency dt:dt=""r8"">3215292</Frequency><Timestamp dt:dt=""r8"">3351291963568</Timestamp><Current dt:dt=""r8"">0</Current><DateUtc dt:dt=""string"">2018-10-08T17:17:53Z</DateUtc></FrequencyChange></FrequencyChanges></Clock>\n",KW_Experiment5A-4-1,59.945,1.0.0.105,2,1218120088,Professional,2.0.10.353,2.0.10.353,10/8/2018,10/8/2018 17:17,13:17:53,2.0.10.248,3,2,1,3,,,,,,,,TrainingProc,BlockList,4,2,Distractor1.bmp,1,0,,1,0,253071,401,,0,0,purple,400,1,400,5,horizontal,purple,Distractor1.bmp,red,Distractor1.bmp,cyan,Distractor2.bmp,blue,Distractor2.bmp,yellow,Distractor2.bmp,lime,Target2.bmp,,,,TrialProc,,TrainingTrialList,1,2,-999999,1,253472,0,2,373,253845,Target2.bmp,lime,2,,,,6,4,52
KW_Experiment5A,4,1,"<?xml version=""1.0""?>\n<Clock xmlns:dt=""urn:schemas-microsoft-com:datatypes""><Description dt:dt=""string"">E-Prime Primary Realtime Clock</Description><StartTime><Timestamp dt:dt=""int"">0</Timestamp><DateUtc dt:dt=""string"">2018-10-08T17:17:53Z</DateUtc></StartTime><FrequencyChanges><FrequencyChange><Frequency dt:dt=""r8"">3215292</Frequency><Timestamp dt:dt=""r8"">3351291963568</Timestamp><Current dt:dt=""r8"">0</Current><DateUtc dt:dt=""string"">2018-10-08T17:17:53Z</DateUtc></FrequencyChange></FrequencyChanges></Clock>\n",KW_Experiment5A-4-1,59.945,1.0.0.105,2,1218120088,Professional,2.0.10.353,2.0.10.353,10/8/2018,10/8/2018 17:17,13:17:53,2.0.10.248,3,2,1,3,,,,,,,,TrainingProc,BlockList,5,2,Distractor2.bmp,2,0,,0,0,254856,401,,0,0,cyan,400,1,400,,horizontal,cyan,Distractor1.bmp,red,Target2.bmp,purple,Distractor2.bmp,lime,Distractor1.bmp,yellow,Distractor1.bmp,blue,Distractor1.bmp,,,,TrialProc,4,TrainingTrialList,1,2,-999999,1,255257,0,2,476,255733,Target2.bmp,red,2,,,,8,4,53
KW_Experiment5A,4,1,"<?xml version=""1.0""?>\n<Clock xmlns:dt=""urn:schemas-microsoft-com:datatypes""><Description dt:dt=""string"">E-Prime Primary Realtime Clock</Description><StartTime><Timestamp dt:dt=""int"">0</Timestamp><DateUtc dt:dt=""string"">2018-10-08T17:17:53Z</DateUtc></StartTime><FrequencyChanges><FrequencyChange><Frequency dt:dt=""r8"">3215292</Frequency><Timestamp dt:dt=""r8"">3351291963568</Timestamp><Current dt:dt=""r8"">0</Current><DateUtc dt:dt=""string"">2018-10-08T17:17:53Z</DateUtc></FrequencyChange></FrequencyChanges></Clock>\n",KW_Experiment5A-4-1,59.945,1.0.0.105,2,1218120088,Professional,2.0.10.353,2.0.10.353,10/8/2018,10/8/2018 17:17,13:17:53,2.0.10.248,3,2,1,3,,,,,,,,TrainingProc,BlockList,6,1,Distractor1.bmp,1,0,,0,1,256758,401,,0,0,purple,400,1,400,,vertical,purple,Distractor2.bmp,red,Target1.bmp,blue,Distractor1.bmp,cyan,Distractor2.bmp,lime,Distractor1.bmp,yellow,Distractor2.bmp,,,,TrialProc,5,TrainingTrialList,0,1,-999999,1,257159,0,2,518,257677,Target1.bmp,red,1,,,,8,4,54
KW_Experiment5A,4,1,"<?xml version=""1.0""?>\n<Clock xmlns:dt=""urn:schemas-microsoft-com:datatypes""><Description dt:dt=""string"">E-Prime Primary Realtime Clock</Description><StartTime><Timestamp dt:dt=""int"">0</Timestamp><DateUtc dt:dt=""string"">2018-10-08T17:17:53Z</DateUtc></StartTime><FrequencyChanges><FrequencyChange><Frequency dt:dt=""r8"">3215292</Frequency><Timestamp dt:dt=""r8"">3351291963568</Timestamp><Current dt:dt=""r8"">0</Current><DateUtc dt:dt=""string"">2018-10-08T17:17:53Z</DateUtc></FrequencyChange></FrequencyChanges></Clock>\n",KW_Experiment5A-4-1,59.945,1.0.0.105,2,1218120088,Professional,2.0.10.353,2.0.10.353,10/8/2018,10/8/2018 17:17,13:17:53,2.0.10.248,3,2,1,3,,,,,,,,TrainingProc,BlockList,7,2,Distractor2.bmp,2,0,,0,1,258693,601,,0,0,yellow,600,3,600,,horizontal,yellow,Distractor1.bmp,lime,Distractor1.bmp,red,Target2.bmp,purple,Distractor2.bmp,blue,Distractor1.bmp,cyan,Distractor2.bmp,,,,TrialProc,2,TrainingTrialList,1,2,-999999,1,259294,0,2,479,259773,Target2.bmp,red,2,,,,9,4,55
KW_Experiment5A,4,1,"<?xml version=""1.0""?>\n<Clock xmlns:dt=""urn:schemas-microsoft-com:datatypes""><Description dt:dt=""string"">E-Prime Primary Realtime Clock</Description><StartTime><Timestamp dt:dt=""int"">0</Timestamp><DateUtc dt:dt=""string"">2018-10-08T17:17:53Z</DateUtc></StartTime><FrequencyChanges><FrequencyChange><Frequency dt:dt=""r8"">3215292</Frequency><Timestamp dt:dt=""r8"">3351291963568</Timestamp><Current dt:dt=""r8"">0</Current><DateUtc dt:dt=""string"">2018-10-08T17:17:53Z</DateUtc></FrequencyChange></FrequencyChanges></Clock>\n",KW_Experiment5A-4-1,59.945,1.0.0.105,2,1218120088,Professional,2.0.10.353,2.0.10.353,10/8/2018,10/8/2018 17:17,13:17:53,2.0.10.248,3,2,1,3,,,,,,,,TrainingProc,BlockList,8,1,Distractor1.bmp,1,0,,0,1,260795,401,,0,0,cyan,400,1,400,,vertical,cyan,Distractor1.bmp,yellow,Distractor2.bmp,purple,Distractor2.bmp,lime,Distractor2.bmp,red,Target1.bmp,blue,Distractor1.bmp,,,,TrialProc,4,TrainingTrialList,1,1,-999999,1,261196,0,1,521,261717,Target1.bmp,red,1,,,,11,4,56
KW_Experiment5A,4,1,"<?xml version=""1.0""?>\n<Clock xmlns:dt=""urn:schemas-microsoft-com:datatypes""><Description dt:dt=""string"">E-Prime Primary Realtime Clock</Description><StartTime><Timestamp dt:dt=""int"">0</Timestamp><DateUtc dt:dt=""string"">2018-10-08T17:17:53Z</DateUtc></StartTime><FrequencyChanges><FrequencyChange><Frequency dt:dt=""r8"">3215292</Frequency><Timestamp dt:dt=""r8"">3351291963568</Timestamp><Current dt:dt=""r8"">0</Current><DateUtc dt:dt=""string"">2018-10-08T17:17:53Z</DateUtc></FrequencyChange></FrequencyChanges></Clock>\n",KW_Experiment5A-4-1,59.945,1.0.0.105,2,1218120088,Professional,2.0.10.353,2.0.10.353,10/8/2018,10/8/2018 17:17,13:17:53,2.0.10.248,3,2,1,3,,,,,,,,TrainingProc,BlockList,9,1,Distractor1.bmp,1,0,,0,1,262730,501,,0,0,cyan,500,2,500,,vertical,cyan,Distractor1.bmp,lime,Distractor2.bmp,yellow,Distractor1.bmp,purple,Distractor1.bmp,blue,Distractor2.bmp,red,Target1.bmp,,,,TrialProc,4,TrainingTrialList,1,1,-999999,1,263231,0,1,758,263989,Target1.bmp,red,1,,,,12,4,57
KW_Experiment5A,4,1,"<?xml version=""1.0""?>\n<Clock xmlns:dt=""urn:schemas-microsoft-com:datatypes""><Description dt:dt=""string"">E-Prime Primary Realtime Clock</Description><StartTime><Timestamp dt:dt=""int"">0</Timestamp><DateUtc dt:dt=""string"">2018-10-08T17:17:53Z</DateUtc></StartTime><FrequencyChanges><FrequencyChange><Frequency dt:dt=""r8"">3215292</Frequency><Timestamp dt:dt=""r8"">3351291963568</Timestamp><Current dt:dt=""r8"">0</Current><DateUtc dt:dt=""string"">2018-10-08T17:17:53Z</DateUtc></FrequencyChange></FrequencyChanges></Clock>\n",KW_Experiment5A-4-1,59.945,1.0.0.105,2,1218120088,Professional,2.0.10.353,2.0.10.353,10/8/2018,10/8/2018 17:17,13:17:53,2.0.10.248,3,2,1,3,,,,,,,,TrainingProc,BlockList,10,2,Distractor2.bmp,2,0,,0,1,264999,600,,0,0,blue,600,3,600,3,horizontal,lime,Target2.bmp,blue,Distractor2.bmp,cyan,Distractor2.bmp,purple,Distractor2.bmp,yellow,Distractor2.bmp,red,Distractor1.bmp,,,,TrialProc,,TrainingTrialList,1,2,-999999,0,265599,0,2,502,266101,Target2.bmp,lime,2,,,,1,4,58
KW_Experiment5A,4,1,"<?xml version=""1.0""?>\n<Clock xmlns:dt=""urn:schemas-microsoft-com:datatypes""><Description dt:dt=""string"">E-Prime Primary Realtime Clock</Description><StartTime><Timestamp dt:dt=""int"">0</Timestamp><DateUtc dt:dt=""string"">2018-10-08T17:17:53Z</DateUtc></StartTime><FrequencyChanges><FrequencyChange><Frequency dt:dt=""r8"">3215292</Frequency><Timestamp dt:dt=""r8"">3351291963568</Timestamp><Current dt:dt=""r8"">0</Current><DateUtc dt:dt=""string"">2018-10-08T17:17:53Z</DateUtc></FrequencyChange></FrequencyChanges></Clock>\n",KW_Experiment5A-4-1,59.945,1.0.0.105,2,1218120088,Professional,2.0.10.353,2.0.10.353,10/8/2018,10/8/2018 17:17,13:17:53,2.0.10.248,3,2,1,3,,,,,,,,TrainingProc,BlockList,11,1,Distractor1.bmp,1,0,,0,1,267118,400,,0,0,red,400,1,400,1,vertical,red,Distractor1.bmp,purple,Distractor2.bmp,yellow,Distractor2.bmp,lime,Target1.bmp,cyan,Distractor1.bmp,blue,Distractor2.bmp,,,,TrialProc,,TrainingTrialList,1,1,-999999,0,267518,0,1,903,268421,Target1.bmp,lime,1,,,,4,4,59
KW_Experiment5A,4,1,"<?xml version=""1.0""?>\n<Clock xmlns:dt=""urn:schemas-microsoft-com:datatypes""><Description dt:dt=""string"">E-Prime Primary Realtime Clock</Description><StartTime><Timestamp dt:dt=""int"">0</Timestamp><DateUtc dt:dt=""string"">2018-10-08T17:17:53Z</DateUtc></StartTime><FrequencyChanges><FrequencyChange><Frequency dt:dt=""r8"">3215292</Frequency><Timestamp dt:dt=""r8"">3351291963568</Timestamp><Current dt:dt=""r8"">0</Current><DateUtc dt:dt=""string"">2018-10-08T17:17:53Z</DateUtc></FrequencyChange></FrequencyChanges></Clock>\n",KW_Experiment5A-4-1,59.945,1.0.0.105,2,1218120088,Professional,2.0.10.353,2.0.10.353,10/8/2018,10/8/2018 17:17,13:17:53,2.0.10.248,3,2,1,3,,,,,,,,TrainingProc,BlockList,12,2,Distractor2.bmp,2,0,,0,1,269436,501,,0,0,lime,500,2,500,,horizontal,lime,Distractor2.bmp,yellow,Distractor1.bmp,purple,Distractor2.bmp,cyan,Distractor2.bmp,red,Target2.bmp,blue,Distractor2.bmp,,,,TrialProc,6,TrainingTrialList,1,2,-999999,1,269937,0,2,492,270429,Target2.bmp,red,2,,,,11,4,60
KW_Experiment5A,4,1,"<?xml version=""1.0""?>\n<Clock xmlns:dt=""urn:schemas-microsoft-com:datatypes""><Description dt:dt=""string"">E-Prime Primary Realtime Clock</Description><StartTime><Timestamp dt:dt=""int"">0</Timestamp><DateUtc dt:dt=""string"">2018-10-08T17:17:53Z</DateUtc></StartTime><FrequencyChanges><FrequencyChange><Frequency dt:dt=""r8"">3215292</Frequency><Timestamp dt:dt=""r8"">3351291963568</Timestamp><Current dt:dt=""r8"">0</Current><DateUtc dt:dt=""string"">2018-10-08T17:17:53Z</DateUtc></FrequencyChange></FrequencyChanges></Clock>\n",KW_Experiment5A-4-1,59.945,1.0.0.105,2,1218120088,Professional,2.0.10.353,2.0.10.353,10/8/2018,10/8/2018 17:17,13:17:53,2.0.10.248,3,2,1,3,,,,,,,,TrainingProc,BlockList,13,1,Distractor1.bmp,1,0,,0,1,271438,601,,0,0,cyan,600,3,600,,vertical,cyan,Distractor1.bmp,lime,Distractor1.bmp,yellow,Distractor1.bmp,purple,Distractor1.bmp,blue,Distractor1.bmp,red,Target1.bmp,,,,TrialProc,4,TrainingTrialList,1,1,-999999,1,272039,0,1,654,272693,Target1.bmp,red,1,,,,12,4,61
KW_Experiment5A,4,1,"<?xml version=""1.0""?>\n<Clock xmlns:dt=""urn:schemas-microsoft-com:datatypes""><Description dt:dt=""string"">E-Prime Primary Realtime Clock</Description><StartTime><Timestamp dt:dt=""int"">0</Timestamp><DateUtc dt:dt=""string"">2018-10-08T17:17:53Z</DateUtc></StartTime><FrequencyChanges><FrequencyChange><Frequency dt:dt=""r8"">3215292</Frequency><Timestamp dt:dt=""r8"">3351291963568</Timestamp><Current dt:dt=""r8"">0</Current><DateUtc dt:dt=""string"">2018-10-08T17:17:53Z</DateUtc></FrequencyChange></FrequencyChanges></Clock>\n",KW_Experiment5A-4-1,59.945,1.0.0.105,2,1218120088,Professional,2.0.10.353,2.0.10.353,10/8/2018,10/8/2018 17:17,13:17:53,2.0.10.248,3,2,1,3,,,,,,,,TrainingProc,BlockList,14,2,Distractor2.bmp,2,0,,0,1,273707,600,,0,0,red,600,3,600,1,horizontal,red,Distractor2.bmp,cyan,Distractor1.bmp,blue,Distractor1.bmp,purple,Distractor1.bmp,lime,Target2.bmp,yellow,Distractor2.bmp,,,,TrialProc,,TrainingTrialList,1,2,-999999,0,274307,0,2,602,274909,Target2.bmp,lime,2,,,,5,4,62
KW_Experiment5A,4,1,"<?xml version=""1.0""?>\n<Clock xmlns:dt=""urn:schemas-microsoft-com:datatypes""><Description dt:dt=""string"">E-Prime Primary Realtime Clock</Description><StartTime><Timestamp dt:dt=""int"">0</Timestamp><DateUtc dt:dt=""string"">2018-10-08T17:17:53Z</DateUtc></StartTime><FrequencyChanges><FrequencyChange><Frequency dt:dt=""r8"">3215292</Frequency><Timestamp dt:dt=""r8"">3351291963568</Timestamp><Current dt:dt=""r8"">0</Current><DateUtc dt:dt=""string"">2018-10-08T17:17:53Z</DateUtc></FrequencyChange></FrequencyChanges></Clock>\n",KW_Experiment5A-4-1,59.945,1.0.0.105,2,1218120088,Professional,2.0.10.353,2.0.10.353,10/8/2018,10/8/2018 17:17,13:17:53,2.0.10.248,3,2,1,3,,,,,,,,TrainingProc,BlockList,15,1,Distractor1.bmp,1,0,,0,1,275926,600,,0,0,lime,600,3,600,,vertical,red,Target1.bmp,blue,Distractor1.bmp,purple,Distractor1.bmp,yellow,Distractor1.bmp,cyan,Distractor2.bmp,lime,Distractor1.bmp,,,,TrialProc,6,TrainingTrialList,0,1,-999999,0,276526,0,2,519,277045,Target1.bmp,red,1,,,,7,4,63
KW_Experiment5A,4,1,"<?xml version=""1.0""?>\n<Clock xmlns:dt=""urn:schemas-microsoft-com:datatypes""><Description dt:dt=""string"">E-Prime Primary Realtime Clock</Description><StartTime><Timestamp dt:dt=""int"">0</Timestamp><DateUtc dt:dt=""string"">2018-10-08T17:17:53Z</DateUtc></StartTime><FrequencyChanges><FrequencyChange><Frequency dt:dt=""r8"">3215292</Frequency><Timestamp dt:dt=""r8"">3351291963568</Timestamp><Current dt:dt=""r8"">0</Current><DateUtc dt:dt=""string"">2018-10-08T17:17:53Z</DateUtc></FrequencyChange></FrequencyChanges></Clock>\n",KW_Experiment5A-4-1,59.945,1.0.0.105,2,1218120088,Professional,2.0.10.353,2.0.10.353,10/8/2018,10/8/2018 17:17,13:17:53,2.0.10.248,3,2,1,3,,,,,,,,TrainingProc,BlockList,16,2,Distractor2.bmp,2,0,,0,1,278061,400,,0,0,yellow,400,1,400,,horizontal,red,Target2.bmp,purple,Distractor2.bmp,blue,Distractor1.bmp,cyan,Distractor1.bmp,lime,Distractor2.bmp,yellow,Distractor1.bmp,,,,TrialProc,2,TrainingTrialList,1,2,-999999,0,278461,0,2,472,278933,Target2.bmp,red,2,,,,7,4,64
KW_Experiment5A,4,1,"<?xml version=""1.0""?>\n<Clock xmlns:dt=""urn:schemas-microsoft-com:datatypes""><Description dt:dt=""string"">E-Prime Primary Realtime Clock</Description><StartTime><Timestamp dt:dt=""int"">0</Timestamp><DateUtc dt:dt=""string"">2018-10-08T17:17:53Z</DateUtc></StartTime><FrequencyChanges><FrequencyChange><Frequency dt:dt=""r8"">3215292</Frequency><Timestamp dt:dt=""r8"">3351291963568</Timestamp><Current dt:dt=""r8"">0</Current><DateUtc dt:dt=""string"">2018-10-08T17:17:53Z</DateUtc></FrequencyChange></FrequencyChanges></Clock>\n",KW_Experiment5A-4-1,59.945,1.0.0.105,2,1218120088,Professional,2.0.10.353,2.0.10.353,10/8/2018,10/8/2018 17:17,13:17:53,2.0.10.248,3,2,1,3,,,,,,,,TrainingProc,BlockList,17,2,Distractor2.bmp,2,0,,0,1,279946,500,,0,0,cyan,500,2,500,,horizontal,cyan,Distractor1.bmp,purple,Distractor2.bmp,blue,Distractor2.bmp,lime,Distractor2.bmp,red,Target2.bmp,yellow,Distractor2.bmp,,,,TrialProc,4,TrainingTrialList,1,2,-999999,0,280446,0,2,455,280901,Target2.bmp,red,2,,,,11,4,65
KW_Experiment5A,4,1,"<?xml version=""1.0""?>\n<Clock xmlns:dt=""urn:schemas-microsoft-com:datatypes""><Description dt:dt=""string"">E-Prime Primary Realtime Clock</Description><StartTime><Timestamp dt:dt=""int"">0</Timestamp><DateUtc dt:dt=""string"">2018-10-08T17:17:53Z</DateUtc></StartTime><FrequencyChanges><FrequencyChange><Frequency dt:dt=""r8"">3215292</Frequency><Timestamp dt:dt=""r8"">3351291963568</Timestamp><Current dt:dt=""r8"">0</Current><DateUtc dt:dt=""string"">2018-10-08T17:17:53Z</DateUtc></FrequencyChange></FrequencyChanges></Clock>\n",KW_Experiment5A-4-1,59.945,1.0.0.105,2,1218120088,Professional,2.0.10.353,2.0.10.353,10/8/2018,10/8/2018 17:17,13:17:53,2.0.10.248,3,2,1,3,,,,,,,,TrainingProc,BlockList,18,1,Distractor1.bmp,1,0,,0,1,281914,501,,0,0,lime,500,2,500,,vertical,lime,Distractor2.bmp,purple,Distractor2.bmp,blue,Distractor1.bmp,red,Target1.bmp,cyan,Distractor1.bmp,yellow,Distractor1.bmp,,,,TrialProc,6,TrainingTrialList,1,1,-999999,1,282415,0,1,694,283109,Target1.bmp,red,1,,,,10,4,66
KW_Experiment5A,4,1,"<?xml version=""1.0""?>\n<Clock xmlns:dt=""urn:schemas-microsoft-com:datatypes""><Description dt:dt=""string"">E-Prime Primary Realtime Clock</Description><StartTime><Timestamp dt:dt=""int"">0</Timestamp><DateUtc dt:dt=""string"">2018-10-08T17:17:53Z</DateUtc></StartTime><FrequencyChanges><FrequencyChange><Frequency dt:dt=""r8"">3215292</Frequency><Timestamp dt:dt=""r8"">3351291963568</Timestamp><Current dt:dt=""r8"">0</Current><DateUtc dt:dt=""string"">2018-10-08T17:17:53Z</DateUtc></FrequencyChange></FrequencyChanges></Clock>\n",KW_Experiment5A-4-1,59.945,1.0.0.105,2,1218120088,Professional,2.0.10.353,2.0.10.353,10/8/2018,10/8/2018 17:17,13:17:53,2.0.10.248,3,2,1,3,,,,,,,,TrainingProc,BlockList,19,1,Distractor2.bmp,2,0,,0,1,284133,601,,0,0,red,600,3,600,1,vertical,red,Distractor1.bmp,lime,Target1.bmp,blue,Distractor2.bmp,cyan,Distractor1.bmp,yellow,Distractor1.bmp,purple,Distractor1.bmp,,,,TrialProc,,TrainingTrialList,1,1,-999999,1,284734,0,1,575,285309,Target1.bmp,lime,1,,,,2,4,67
KW_Experiment5A,4,1,"<?xml version=""1.0""?>\n<Clock xmlns:dt=""urn:schemas-microsoft-com:datatypes""><Description dt:dt=""string"">E-Prime Primary Realtime Clock</Description><StartTime><Timestamp dt:dt=""int"">0</Timestamp><DateUtc dt:dt=""string"">2018-10-08T17:17:53Z</DateUtc></StartTime><FrequencyChanges><FrequencyChange><Frequency dt:dt=""r8"">3215292</Frequency><Timestamp dt:dt=""r8"">3351291963568</Timestamp><Current dt:dt=""r8"">0</Current><DateUtc dt:dt=""string"">2018-10-08T17:17:53Z</DateUtc></FrequencyChange></FrequencyChanges></Clock>\n",KW_Experiment5A-4-1,59.945,1.0.0.105,2,1218120088,Professional,2.0.10.353,2.0.10.353,10/8/2018,10/8/2018 17:17,13:17:53,2.0.10.248,3,2,1,3,,,,,,,,TrainingProc,BlockList,20,2,Distractor2.bmp,2,0,,0,1,286318,601,,0,0,lime,600,3,600,,horizontal,lime,Distractor1.bmp,cyan,Distractor1.bmp,red,Target2.bmp,yellow,Distractor2.bmp,blue,Distractor1.bmp,purple,Distractor2.bmp,,,,TrialProc,6,TrainingTrialList,1,2,-999999,1,286919,0,2,614,287533,Target2.bmp,red,2,,,,9,4,68
KW_Experiment5A,4,1,"<?xml version=""1.0""?>\n<Clock xmlns:dt=""urn:schemas-microsoft-com:datatypes""><Description dt:dt=""string"">E-Prime Primary Realtime Clock</Description><StartTime><Timestamp dt:dt=""int"">0</Timestamp><DateUtc dt:dt=""string"">2018-10-08T17:17:53Z</DateUtc></StartTime><FrequencyChanges><FrequencyChange><Frequency dt:dt=""r8"">3215292</Frequency><Timestamp dt:dt=""r8"">3351291963568</Timestamp><Current dt:dt=""r8"">0</Current><DateUtc dt:dt=""string"">2018-10-08T17:17:53Z</DateUtc></FrequencyChange></FrequencyChanges></Clock>\n",KW_Experiment5A-4-1,59.945,1.0.0.105,2,1218120088,Professional,2.0.10.353,2.0.10.353,10/8/2018,10/8/2018 17:17,13:17:53,2.0.10.248,3,2,1,3,,,,,,,,TrainingProc,BlockList,21,2,Distractor1.bmp,1,0,,0,1,288554,600,,0,0,blue,600,3,600,,horizontal,blue,Distractor2.bmp,yellow,Distractor2.bmp,red,Target2.bmp,lime,Distractor1.bmp,purple,Distractor1.bmp,cyan,Distractor1.bmp,,,,TrialProc,3,TrainingTrialList,1,2,-999999,0,289154,0,2,435,289589,Target2.bmp,red,2,,,,9,4,69
KW_Experiment5A,4,1,"<?xml version=""1.0""?>\n<Clock xmlns:dt=""urn:schemas-microsoft-com:datatypes""><Description dt:dt=""string"">E-Prime Primary Realtime Clock</Description><StartTime><Timestamp dt:dt=""int"">0</Timestamp><DateUtc dt:dt=""string"">2018-10-08T17:17:53Z</DateUtc></StartTime><FrequencyChanges><FrequencyChange><Frequency dt:dt=""r8"">3215292</Frequency><Timestamp dt:dt=""r8"">3351291963568</Timestamp><Current dt:dt=""r8"">0</Current><DateUtc dt:dt=""string"">2018-10-08T17:17:53Z</DateUtc></FrequencyChange></FrequencyChanges></Clock>\n",KW_Experiment5A-4-1,59.945,1.0.0.105,2,1218120088,Professional,2.0.10.353,2.0.10.353,10/8/2018,10/8/2018 17:17,13:17:53,2.0.10.248,3,2,1,3,,,,,,,,TrainingProc,BlockList,22,1,Distractor2.bmp,2,0,,0,1,290606,500,,0,0,blue,500,2,500,,vertical,red,Target1.bmp,cyan,Distractor2.bmp,purple,Distractor1.bmp,lime,Distractor2.bmp,yellow,Distractor1.bmp,blue,Distractor1.bmp,,,,TrialProc,3,TrainingTrialList,1,1,-999999,0,291106,0,1,482,291588,Target1.bmp,red,1,,,,7,4,70
KW_Experiment5A,4,1,"<?xml version=""1.0""?>\n<Clock xmlns:dt=""urn:schemas-microsoft-com:datatypes""><Description dt:dt=""string"">E-Prime Primary Realtime Clock</Description><StartTime><Timestamp dt:dt=""int"">0</Timestamp><DateUtc dt:dt=""string"">2018-10-08T17:17:53Z</DateUtc></StartTime><FrequencyChanges><FrequencyChange><Frequency dt:dt=""r8"">3215292</Frequency><Timestamp dt:dt=""r8"">3351291963568</Timestamp><Current dt:dt=""r8"">0</Current><DateUtc dt:dt=""string"">2018-10-08T17:17:53Z</DateUtc></FrequencyChange></FrequencyChanges></Clock>\n",KW_Experiment5A-4-1,59.945,1.0.0.105,2,1218120088,Professional,2.0.10.353,2.0.10.353,10/8/2018,10/8/2018 17:17,13:17:53,2.0.10.248,3,2,1,3,,,,,,,,TrainingProc,BlockList,23,2,Distractor1.bmp,1,0,,0,1,292607,401,,0,0,yellow,400,1,400,,horizontal,yellow,Distractor1.bmp,red,Target2.bmp,blue,Distractor1.bmp,purple,Distractor1.bmp,lime,Distractor2.bmp,cyan,Distractor2.bmp,,,,TrialProc,2,TrainingTrialList,1,2,-999999,1,293008,0,2,436,293444,Target2.bmp,red,2,,,,8,4,71
KW_Experiment5A,4,1,"<?xml version=""1.0""?>\n<Clock xmlns:dt=""urn:schemas-microsoft-com:datatypes""><Description dt:dt=""string"">E-Prime Primary Realtime Clock</Description><StartTime><Timestamp dt:dt=""int"">0</Timestamp><DateUtc dt:dt=""string"">2018-10-08T17:17:53Z</DateUtc></StartTime><FrequencyChanges><FrequencyChange><Frequency dt:dt=""r8"">3215292</Frequency><Timestamp dt:dt=""r8"">3351291963568</Timestamp><Current dt:dt=""r8"">0</Current><DateUtc dt:dt=""string"">2018-10-08T17:17:53Z</DateUtc></FrequencyChange></FrequencyChanges></Clock>\n",KW_Experiment5A-4-1,59.945,1.0.0.105,2,1218120088,Professional,2.0.10.353,2.0.10.353,10/8/2018,10/8/2018 17:17,13:17:53,2.0.10.248,3,2,1,3,,,,,,,,TrainingProc,BlockList,24,2,Distractor2.bmp,2,0,,0,1,294459,400,,0,0,purple,400,1,400,5,horizontal,purple,Distractor1.bmp,yellow,Distractor1.bmp,lime,Target2.bmp,cyan,Distractor2.bmp,red,Distractor1.bmp,blue,Distractor2.bmp,,,,TrialProc,,TrainingTrialList,1,2,-999999,0,294859,0,2,601,295460,Target2.bmp,lime,2,,,,3,4,72
KW_Experiment5A,4,1,"<?xml version=""1.0""?>\n<Clock xmlns:dt=""urn:schemas-microsoft-com:datatypes""><Description dt:dt=""string"">E-Prime Primary Realtime Clock</Description><StartTime><Timestamp dt:dt=""int"">0</Timestamp><DateUtc dt:dt=""string"">2018-10-08T17:17:53Z</DateUtc></StartTime><FrequencyChanges><FrequencyChange><Frequency dt:dt=""r8"">3215292</Frequency><Timestamp dt:dt=""r8"">3351291963568</Timestamp><Current dt:dt=""r8"">0</Current><DateUtc dt:dt=""string"">2018-10-08T17:17:53Z</DateUtc></FrequencyChange></FrequencyChanges></Clock>\n",KW_Experiment5A-4-1,59.945,1.0.0.105,2,1218120088,Professional,2.0.10.353,2.0.10.353,10/8/2018,10/8/2018 17:17,13:17:53,2.0.10.248,3,2,1,3,,,,,,,,TrainingProc,BlockList,25,2,Distractor2.bmp,2,0,,0,1,296478,500,,0,0,yellow,500,2,500,,horizontal,red,Target2.bmp,purple,Distractor2.bmp,blue,Distractor2.bmp,cyan,Distractor2.bmp,lime,Distractor2.bmp,yellow,Distractor2.bmp,,,,TrialProc,2,TrainingTrialList,1,2,-999999,0,296978,0,2,530,297508,Target2.bmp,red,2,,,,7,5,73
KW_Experiment5A,4,1,"<?xml version=""1.0""?>\n<Clock xmlns:dt=""urn:schemas-microsoft-com:datatypes""><Description dt:dt=""string"">E-Prime Primary Realtime Clock</Description><StartTime><Timestamp dt:dt=""int"">0</Timestamp><DateUtc dt:dt=""string"">2018-10-08T17:17:53Z</DateUtc></StartTime><FrequencyChanges><FrequencyChange><Frequency dt:dt=""r8"">3215292</Frequency><Timestamp dt:dt=""r8"">3351291963568</Timestamp><Current dt:dt=""r8"">0</Current><DateUtc dt:dt=""string"">2018-10-08T17:17:53Z</DateUtc></FrequencyChange></FrequencyChanges></Clock>\n",KW_Experiment5A-4-1,59.945,1.0.0.105,2,1218120088,Professional,2.0.10.353,2.0.10.353,10/8/2018,10/8/2018 17:17,13:17:53,2.0.10.248,3,2,1,3,,,,,,,,TrainingProc,BlockList,26,2,Distractor1.bmp,1,0,,0,0,298529,501,,0,0,cyan,500,2,500,,horizontal,cyan,Distractor1.bmp,purple,Distractor1.bmp,yellow,Distractor2.bmp,lime,Distractor1.bmp,red,Target2.bmp,blue,Distractor1.bmp,,,,TrialProc,4,TrainingTrialList,1,2,-999999,1,299030,0,2,494,299524,Target2.bmp,red,2,,,,11,5,74
KW_Experiment5A,4,1,"<?xml version=""1.0""?>\n<Clock xmlns:dt=""urn:schemas-microsoft-com:datatypes""><Description dt:dt=""string"">E-Prime Primary Realtime Clock</Description><StartTime><Timestamp dt:dt=""int"">0</Timestamp><DateUtc dt:dt=""string"">2018-10-08T17:17:53Z</DateUtc></StartTime><FrequencyChanges><FrequencyChange><Frequency dt:dt=""r8"">3215292</Frequency><Timestamp dt:dt=""r8"">3351291963568</Timestamp><Current dt:dt=""r8"">0</Current><DateUtc dt:dt=""string"">2018-10-08T17:17:53Z</DateUtc></FrequencyChange></FrequencyChanges></Clock>\n",KW_Experiment5A-4-1,59.945,1.0.0.105,2,1218120088,Professional,2.0.10.353,2.0.10.353,10/8/2018,10/8/2018 17:17,13:17:53,2.0.10.248,3,2,1,3,,,,,,,,TrainingProc,BlockList,27,1,Distractor2.bmp,2,0,,0,1,300548,400,,0,0,cyan,400,1,400,4,vertical,cyan,Distractor2.bmp,yellow,Distractor1.bmp,blue,Distractor1.bmp,red,Distractor2.bmp,purple,Distractor2.bmp,lime,Target1.bmp,,,,TrialProc,,TrainingTrialList,1,1,-999999,0,300948,0,1,624,301572,Target1.bmp,lime,1,,,,6,5,75
KW_Experiment5A,4,1,"<?xml version=""1.0""?>\n<Clock xmlns:dt=""urn:schemas-microsoft-com:datatypes""><Description dt:dt=""string"">E-Prime Primary Realtime Clock</Description><StartTime><Timestamp dt:dt=""int"">0</Timestamp><DateUtc dt:dt=""string"">2018-10-08T17:17:53Z</DateUtc></StartTime><FrequencyChanges><FrequencyChange><Frequency dt:dt=""r8"">3215292</Frequency><Timestamp dt:dt=""r8"">3351291963568</Timestamp><Current dt:dt=""r8"">0</Current><DateUtc dt:dt=""string"">2018-10-08T17:17:53Z</DateUtc></FrequencyChange></FrequencyChanges></Clock>\n",KW_Experiment5A-4-1,59.945,1.0.0.105,2,1218120088,Professional,2.0.10.353,2.0.10.353,10/8/2018,10/8/2018 17:17,13:17:53,2.0.10.248,3,2,1,3,,,,,,,,TrainingProc,BlockList,28,2,Distractor1.bmp,1,0,,0,1,302583,501,,0,0,blue,500,2,500,,horizontal,blue,Distractor1.bmp,yellow,Distractor1.bmp,lime,Distractor2.bmp,purple,Distractor2.bmp,red,Target2.bmp,cyan,Distractor1.bmp,,,,TrialProc,3,TrainingTrialList,1,2,-999999,1,303084,0,2,736,303820,Target2.bmp,red,2,,,,11,5,76
KW_Experiment5A,4,1,"<?xml version=""1.0""?>\n<Clock xmlns:dt=""urn:schemas-microsoft-com:datatypes""><Description dt:dt=""string"">E-Prime Primary Realtime Clock</Description><StartTime><Timestamp dt:dt=""int"">0</Timestamp><DateUtc dt:dt=""string"">2018-10-08T17:17:53Z</DateUtc></StartTime><FrequencyChanges><FrequencyChange><Frequency dt:dt=""r8"">3215292</Frequency><Timestamp dt:dt=""r8"">3351291963568</Timestamp><Current dt:dt=""r8"">0</Current><DateUtc dt:dt=""string"">2018-10-08T17:17:53Z</DateUtc></FrequencyChange></FrequencyChanges></Clock>\n",KW_Experiment5A-4-1,59.945,1.0.0.105,2,1218120088,Professional,2.0.10.353,2.0.10.353,10/8/2018,10/8/2018 17:17,13:17:53,2.0.10.248,3,2,1,3,,,,,,,,TrainingProc,BlockList,29,2,Distractor2.bmp,2,0,,0,1,304835,401,,0,0,purple,400,1,400,,horizontal,purple,Distractor2.bmp,cyan,Distractor1.bmp,blue,Distractor2.bmp,red,Target2.bmp,yellow,Distractor2.bmp,lime,Distractor2.bmp,,,,TrialProc,5,TrainingTrialList,1,2,-999999,1,305236,0,2,488,305724,Target2.bmp,red,2,,,,10,5,77
KW_Experiment5A,4,1,"<?xml version=""1.0""?>\n<Clock xmlns:dt=""urn:schemas-microsoft-com:datatypes""><Description dt:dt=""string"">E-Prime Primary Realtime Clock</Description><StartTime><Timestamp dt:dt=""int"">0</Timestamp><DateUtc dt:dt=""string"">2018-10-08T17:17:53Z</DateUtc></StartTime><FrequencyChanges><FrequencyChange><Frequency dt:dt=""r8"">3215292</Frequency><Timestamp dt:dt=""r8"">3351291963568</Timestamp><Current dt:dt=""r8"">0</Current><DateUtc dt:dt=""string"">2018-10-08T17:17:53Z</DateUtc></FrequencyChange></FrequencyChanges></Clock>\n",KW_Experiment5A-4-1,59.945,1.0.0.105,2,1218120088,Professional,2.0.10.353,2.0.10.353,10/8/2018,10/8/2018 17:17,13:17:53,2.0.10.248,3,2,1,3,,,,,,,,TrainingProc,BlockList,30,1,Distractor2.bmp,2,0,,0,1,306737,500,,0,0,red,500,2,500,1,vertical,red,Distractor2.bmp,blue,Distractor1.bmp,cyan,Distractor2.bmp,lime,Target1.bmp,purple,Distractor2.bmp,yellow,Distractor2.bmp,,,,TrialProc,,TrainingTrialList,1,1,-999999,0,307237,0,1,583,307820,Target1.bmp,lime,1,,,,4,5,78
KW_Experiment5A,4,1,"<?xml version=""1.0""?>\n<Clock xmlns:dt=""urn:schemas-microsoft-com:datatypes""><Description dt:dt=""string"">E-Prime Primary Realtime Clock</Description><StartTime><Timestamp dt:dt=""int"">0</Timestamp><DateUtc dt:dt=""string"">2018-10-08T17:17:53Z</DateUtc></StartTime><FrequencyChanges><FrequencyChange><Frequency dt:dt=""r8"">3215292</Frequency><Timestamp dt:dt=""r8"">3351291963568</Timestamp><Current dt:dt=""r8"">0</Current><DateUtc dt:dt=""string"">2018-10-08T17:17:53Z</DateUtc></FrequencyChange></FrequencyChanges></Clock>\n",KW_Experiment5A-4-1,59.945,1.0.0.105,2,1218120088,Professional,2.0.10.353,2.0.10.353,10/8/2018,10/8/2018 17:17,13:17:53,2.0.10.248,3,2,1,3,,,,,,,,TrainingProc,BlockList,31,1,Distractor1.bmp,1,0,,0,1,308839,600,,0,0,blue,600,3,600,,vertical,blue,Distractor1.bmp,red,Target1.bmp,lime,Distractor1.bmp,yellow,Distractor2.bmp,purple,Distractor2.bmp,cyan,Distractor2.bmp,,,,TrialProc,3,TrainingTrialList,1,1,-999999,0,309439,0,1,557,309996,Target1.bmp,red,1,,,,8,5,79
KW_Experiment5A,4,1,"<?xml version=""1.0""?>\n<Clock xmlns:dt=""urn:schemas-microsoft-com:datatypes""><Description dt:dt=""string"">E-Prime Primary Realtime Clock</Description><StartTime><Timestamp dt:dt=""int"">0</Timestamp><DateUtc dt:dt=""string"">2018-10-08T17:17:53Z</DateUtc></StartTime><FrequencyChanges><FrequencyChange><Frequency dt:dt=""r8"">3215292</Frequency><Timestamp dt:dt=""r8"">3351291963568</Timestamp><Current dt:dt=""r8"">0</Current><DateUtc dt:dt=""string"">2018-10-08T17:17:53Z</DateUtc></FrequencyChange></FrequencyChanges></Clock>\n",KW_Experiment5A-4-1,59.945,1.0.0.105,2,1218120088,Professional,2.0.10.353,2.0.10.353,10/8/2018,10/8/2018 17:17,13:17:53,2.0.10.248,3,2,1,3,,,,,,,,TrainingProc,BlockList,32,1,Distractor1.bmp,1,0,,1,1,311007,601,,0,0,purple,600,3,600,,vertical,purple,Distractor1.bmp,blue,Distractor2.bmp,lime,Distractor1.bmp,yellow,Distractor2.bmp,cyan,Distractor1.bmp,red,Target1.bmp,,,,TrialProc,5,TrainingTrialList,1,1,-999999,1,311608,0,1,524,312132,Target1.bmp,red,1,,,,12,5,80
KW_Experiment5A,4,1,"<?xml version=""1.0""?>\n<Clock xmlns:dt=""urn:schemas-microsoft-com:datatypes""><Description dt:dt=""string"">E-Prime Primary Realtime Clock</Description><StartTime><Timestamp dt:dt=""int"">0</Timestamp><DateUtc dt:dt=""string"">2018-10-08T17:17:53Z</DateUtc></StartTime><FrequencyChanges><FrequencyChange><Frequency dt:dt=""r8"">3215292</Frequency><Timestamp dt:dt=""r8"">3351291963568</Timestamp><Current dt:dt=""r8"">0</Current><DateUtc dt:dt=""string"">2018-10-08T17:17:53Z</DateUtc></FrequencyChange></FrequencyChanges></Clock>\n",KW_Experiment5A-4-1,59.945,1.0.0.105,2,1218120088,Professional,2.0.10.353,2.0.10.353,10/8/2018,10/8/2018 17:17,13:17:53,2.0.10.248,3,2,1,3,,,,,,,,TrainingProc,BlockList,33,2,Distractor1.bmp,1,0,,0,1,313143,600,,0,0,cyan,600,3,600,4,horizontal,lime,Target2.bmp,cyan,Distractor1.bmp,red,Distractor2.bmp,yellow,Distractor1.bmp,blue,Distractor1.bmp,purple,Distractor1.bmp,,,,TrialProc,,TrainingTrialList,1,2,-999999,0,313743,0,2,501,314244,Target2.bmp,lime,2,,,,1,5,81
KW_Experiment5A,4,1,"<?xml version=""1.0""?>\n<Clock xmlns:dt=""urn:schemas-microsoft-com:datatypes""><Description dt:dt=""string"">E-Prime Primary Realtime Clock</Description><StartTime><Timestamp dt:dt=""int"">0</Timestamp><DateUtc dt:dt=""string"">2018-10-08T17:17:53Z</DateUtc></StartTime><FrequencyChanges><FrequencyChange><Frequency dt:dt=""r8"">3215292</Frequency><Timestamp dt:dt=""r8"">3351291963568</Timestamp><Current dt:dt=""r8"">0</Current><DateUtc dt:dt=""string"">2018-10-08T17:17:53Z</DateUtc></FrequencyChange></FrequencyChanges></Clock>\n",KW_Experiment5A-4-1,59.945,1.0.0.105,2,1218120088,Professional,2.0.10.353,2.0.10.353,10/8/2018,10/8/2018 17:17,13:17:53,2.0.10.248,3,2,1,3,,,,,,,,TrainingProc,BlockList,34,1,Distractor2.bmp,2,0,,0,1,315261,501,,0,0,lime,500,2,500,,vertical,lime,Distractor1.bmp,red,Target1.bmp,purple,Distractor2.bmp,yellow,Distractor2.bmp,blue,Distractor2.bmp,cyan,Distractor2.bmp,,,,TrialProc,6,TrainingTrialList,1,1,-999999,1,315762,0,1,634,316396,Target1.bmp,red,1,,,,8,5,82
KW_Experiment5A,4,1,"<?xml version=""1.0""?>\n<Clock xmlns:dt=""urn:schemas-microsoft-com:datatypes""><Description dt:dt=""string"">E-Prime Primary Realtime Clock</Description><StartTime><Timestamp dt:dt=""int"">0</Timestamp><DateUtc dt:dt=""string"">2018-10-08T17:17:53Z</DateUtc></StartTime><FrequencyChanges><FrequencyChange><Frequency dt:dt=""r8"">3215292</Frequency><Timestamp dt:dt=""r8"">3351291963568</Timestamp><Current dt:dt=""r8"">0</Current><DateUtc dt:dt=""string"">2018-10-08T17:17:53Z</DateUtc></FrequencyChange></FrequencyChanges></Clock>\n",KW_Experiment5A-4-1,59.945,1.0.0.105,2,1218120088,Professional,2.0.10.353,2.0.10.353,10/8/2018,10/8/2018 17:17,13:17:53,2.0.10.248,3,2,1,3,,,,,,,,TrainingProc,BlockList,35,1,Distractor2.bmp,2,0,,0,1,317413,501,,0,0,lime,500,2,500,,vertical,lime,Distractor1.bmp,yellow,Distractor1.bmp,red,Target1.bmp,blue,Distractor2.bmp,cyan,Distractor2.bmp,purple,Distractor1.bmp,,,,TrialProc,6,TrainingTrialList,1,1,-999999,1,317914,0,1,610,318524,Target1.bmp,red,1,,,,9,5,83
KW_Experiment5A,4,1,"<?xml version=""1.0""?>\n<Clock xmlns:dt=""urn:schemas-microsoft-com:datatypes""><Description dt:dt=""string"">E-Prime Primary Realtime Clock</Description><StartTime><Timestamp dt:dt=""int"">0</Timestamp><DateUtc dt:dt=""string"">2018-10-08T17:17:53Z</DateUtc></StartTime><FrequencyChanges><FrequencyChange><Frequency dt:dt=""r8"">3215292</Frequency><Timestamp dt:dt=""r8"">3351291963568</Timestamp><Current dt:dt=""r8"">0</Current><DateUtc dt:dt=""string"">2018-10-08T17:17:53Z</DateUtc></FrequencyChange></FrequencyChanges></Clock>\n",KW_Experiment5A-4-1,59.945,1.0.0.105,2,1218120088,Professional,2.0.10.353,2.0.10.353,10/8/2018,10/8/2018 17:17,13:17:53,2.0.10.248,3,2,1,3,,,,,,,,TrainingProc,BlockList,36,2,Distractor1.bmp,1,0,,0,1,319549,600,,0,0,blue,600,3,600,,horizontal,red,Target2.bmp,cyan,Distractor1.bmp,yellow,Distractor1.bmp,purple,Distractor2.bmp,lime,Distractor1.bmp,blue,Distractor1.bmp,,,,TrialProc,3,TrainingTrialList,1,2,-999999,0,320149,0,2,479,320628,Target2.bmp,red,2,,,,7,5,84
KW_Experiment5A,4,1,"<?xml version=""1.0""?>\n<Clock xmlns:dt=""urn:schemas-microsoft-com:datatypes""><Description dt:dt=""string"">E-Prime Primary Realtime Clock</Description><StartTime><Timestamp dt:dt=""int"">0</Timestamp><DateUtc dt:dt=""string"">2018-10-08T17:17:53Z</DateUtc></StartTime><FrequencyChanges><FrequencyChange><Frequency dt:dt=""r8"">3215292</Frequency><Timestamp dt:dt=""r8"">3351291963568</Timestamp><Current dt:dt=""r8"">0</Current><DateUtc dt:dt=""string"">2018-10-08T17:17:53Z</DateUtc></FrequencyChange></FrequencyChanges></Clock>\n",KW_Experiment5A-4-1,59.945,1.0.0.105,2,1218120088,Professional,2.0.10.353,2.0.10.353,10/8/2018,10/8/2018 17:17,13:17:53,2.0.10.248,3,2,1,3,,,,,,,,TrainingProc,BlockList,37,2,Distractor2.bmp,2,0,,1,0,321650,401,,0,0,cyan,400,1,400,,horizontal,cyan,Distractor2.bmp,lime,Distractor2.bmp,yellow,Distractor1.bmp,red,Target2.bmp,blue,Distractor2.bmp,purple,Distractor1.bmp,,,,TrialProc,4,TrainingTrialList,1,2,-999999,1,322051,0,2,585,322636,Target2.bmp,red,2,,,,10,5,85
KW_Experiment5A,4,1,"<?xml version=""1.0""?>\n<Clock xmlns:dt=""urn:schemas-microsoft-com:datatypes""><Description dt:dt=""string"">E-Prime Primary Realtime Clock</Description><StartTime><Timestamp dt:dt=""int"">0</Timestamp><DateUtc dt:dt=""string"">2018-10-08T17:17:53Z</DateUtc></StartTime><FrequencyChanges><FrequencyChange><Frequency dt:dt=""r8"">3215292</Frequency><Timestamp dt:dt=""r8"">3351291963568</Timestamp><Current dt:dt=""r8"">0</Current><DateUtc dt:dt=""string"">2018-10-08T17:17:53Z</DateUtc></FrequencyChange></FrequencyChanges></Clock>\n",KW_Experiment5A-4-1,59.945,1.0.0.105,2,1218120088,Professional,2.0.10.353,2.0.10.353,10/8/2018,10/8/2018 17:17,13:17:53,2.0.10.248,3,2,1,3,,,,,,,,TrainingProc,BlockList,38,1,Distractor1.bmp,1,0,,0,1,323652,601,,0,0,blue,600,3,600,3,vertical,blue,Distractor2.bmp,cyan,Distractor1.bmp,purple,Distractor1.bmp,red,Distractor2.bmp,lime,Target1.bmp,yellow,Distractor1.bmp,,,,TrialProc,,TrainingTrialList,1,1,-999999,1,324253,0,1,719,324972,Target1.bmp,lime,1,,,,5,5,86
KW_Experiment5A,4,1,"<?xml version=""1.0""?>\n<Clock xmlns:dt=""urn:schemas-microsoft-com:datatypes""><Description dt:dt=""string"">E-Prime Primary Realtime Clock</Description><StartTime><Timestamp dt:dt=""int"">0</Timestamp><DateUtc dt:dt=""string"">2018-10-08T17:17:53Z</DateUtc></StartTime><FrequencyChanges><FrequencyChange><Frequency dt:dt=""r8"">3215292</Frequency><Timestamp dt:dt=""r8"">3351291963568</Timestamp><Current dt:dt=""r8"">0</Current><DateUtc dt:dt=""string"">2018-10-08T17:17:53Z</DateUtc></FrequencyChange></FrequencyChanges></Clock>\n",KW_Experiment5A-4-1,59.945,1.0.0.105,2,1218120088,Professional,2.0.10.353,2.0.10.353,10/8/2018,10/8/2018 17:17,13:17:53,2.0.10.248,3,2,1,3,,,,,,,,TrainingProc,BlockList,39,2,Distractor2.bmp,2,0,,0,1,325988,500,,0,0,blue,500,2,500,,horizontal,blue,Distractor2.bmp,red,Target2.bmp,lime,Distractor2.bmp,cyan,Distractor1.bmp,yellow,Distractor1.bmp,purple,Distractor1.bmp,,,,TrialProc,3,TrainingTrialList,1,2,-999999,0,326488,0,2,500,326988,Target2.bmp,red,2,,,,8,5,87
KW_Experiment5A,4,1,"<?xml version=""1.0""?>\n<Clock xmlns:dt=""urn:schemas-microsoft-com:datatypes""><Description dt:dt=""string"">E-Prime Primary Realtime Clock</Description><StartTime><Timestamp dt:dt=""int"">0</Timestamp><DateUtc dt:dt=""string"">2018-10-08T17:17:53Z</DateUtc></StartTime><FrequencyChanges><FrequencyChange><Frequency dt:dt=""r8"">3215292</Frequency><Timestamp dt:dt=""r8"">3351291963568</Timestamp><Current dt:dt=""r8"">0</Current><DateUtc dt:dt=""string"">2018-10-08T17:17:53Z</DateUtc></FrequencyChange></FrequencyChanges></Clock>\n",KW_Experiment5A-4-1,59.945,1.0.0.105,2,1218120088,Professional,2.0.10.353,2.0.10.353,10/8/2018,10/8/2018 17:17,13:17:53,2.0.10.248,3,2,1,3,,,,,,,,TrainingProc,BlockList,40,2,Distractor1.bmp,1,0,,0,1,328006,601,,0,0,blue,600,3,600,,horizontal,blue,Distractor1.bmp,cyan,Distractor2.bmp,lime,Distractor1.bmp,purple,Distractor1.bmp,yellow,Distractor2.bmp,red,Target2.bmp,,,,TrialProc,3,TrainingTrialList,1,2,-999999,1,328607,0,2,405,329012,Target2.bmp,red,2,,,,12,5,88
KW_Experiment5A,4,1,"<?xml version=""1.0""?>\n<Clock xmlns:dt=""urn:schemas-microsoft-com:datatypes""><Description dt:dt=""string"">E-Prime Primary Realtime Clock</Description><StartTime><Timestamp dt:dt=""int"">0</Timestamp><DateUtc dt:dt=""string"">2018-10-08T17:17:53Z</DateUtc></StartTime><FrequencyChanges><FrequencyChange><Frequency dt:dt=""r8"">3215292</Frequency><Timestamp dt:dt=""r8"">3351291963568</Timestamp><Current dt:dt=""r8"">0</Current><DateUtc dt:dt=""string"">2018-10-08T17:17:53Z</DateUtc></FrequencyChange></FrequencyChanges></Clock>\n",KW_Experiment5A-4-1,59.945,1.0.0.105,2,1218120088,Professional,2.0.10.353,2.0.10.353,10/8/2018,10/8/2018 17:17,13:17:53,2.0.10.248,3,2,1,3,,,,,,,,TrainingProc,BlockList,41,1,Distractor2.bmp,2,0,,0,1,330025,600,,0,0,red,600,3,600,1,vertical,red,Distractor1.bmp,lime,Target1.bmp,blue,Distractor2.bmp,purple,Distractor2.bmp,yellow,Distractor1.bmp,cyan,Distractor1.bmp,,,,TrialProc,,TrainingTrialList,1,1,-999999,0,330625,0,1,771,331396,Target1.bmp,lime,1,,,,2,5,89
KW_Experiment5A,4,1,"<?xml version=""1.0""?>\n<Clock xmlns:dt=""urn:schemas-microsoft-com:datatypes""><Description dt:dt=""string"">E-Prime Primary Realtime Clock</Description><StartTime><Timestamp dt:dt=""int"">0</Timestamp><DateUtc dt:dt=""string"">2018-10-08T17:17:53Z</DateUtc></StartTime><FrequencyChanges><FrequencyChange><Frequency dt:dt=""r8"">3215292</Frequency><Timestamp dt:dt=""r8"">3351291963568</Timestamp><Current dt:dt=""r8"">0</Current><DateUtc dt:dt=""string"">2018-10-08T17:17:53Z</DateUtc></FrequencyChange></FrequencyChanges></Clock>\n",KW_Experiment5A-4-1,59.945,1.0.0.105,2,1218120088,Professional,2.0.10.353,2.0.10.353,10/8/2018,10/8/2018 17:17,13:17:53,2.0.10.248,3,2,1,3,,,,,,,,TrainingProc,BlockList,42,2,Distractor2.bmp,2,0,,0,1,332410,401,,0,0,blue,400,1,400,,horizontal,blue,Distractor2.bmp,lime,Distractor1.bmp,yellow,Distractor1.bmp,purple,Distractor2.bmp,cyan,Distractor1.bmp,red,Target2.bmp,,,,TrialProc,3,TrainingTrialList,1,2,-999999,1,332811,0,2,568,333379,Target2.bmp,red,2,,,,12,5,90
