ExperimentName,Subject,Session,Clock.Information,DataFile.Basename,Display.RefreshRate,ExperimentVersion,Group,RandomSeed,RuntimeCapabilities,RuntimeVersion,RuntimeVersionExpected,SessionDate,SessionStartDateTimeUtc,SessionTime,StudioVersion,Block,BlockList,BlockList.Cycle,BlockList.Sample,PostTestQ1.RESP,PostTestQ1CJ.RESP,PostTestQ2.RESP,PostTestQ2CJ.RESP,PostTestQ3.RESP,PostTestQ3CJ.RESP,PostTestSlide.RESP,Procedure[Block],Running[Block],Trial,CorrectResponse,Distractor,DistractorList,Fixation.ACC,Fixation.CRESP,Fixation.DurationError,Fixation.OnsetDelay,Fixation.OnsetTime,Fixation.OnsetToOnsetTime,Fixation.RESP,Fixation.RT,Fixation.RTTime,ItemColor,Jitter,JitterList,JitterTime,Lime0List,Orientation,Pos1Color,Pos1Item,Pos2Color,Pos2Item,Pos3Color,Pos3Item,Pos4Color,Pos4Item,Pos5Color,Pos5Item,Pos6Color,Pos6Item,PracticeTrialList,PracticeTrialList.Cycle,PracticeTrialList.Sample,Procedure[Trial],Red0List,Running[Trial],Stimulus.ACC,Stimulus.CRESP,Stimulus.DurationError,Stimulus.OnsetDelay,Stimulus.OnsetTime,Stimulus.OnsetToOnsetTime,Stimulus.RESP,Stimulus.RT,Stimulus.RTTime,Target,TargetColor,TargetList,TestTrialList,TestTrialList.Cycle,TestTrialList.Sample,TrainingTrialList,TrainingTrialList.Cycle,TrainingTrialList.Sample
KW_Experiment5A,1,1,"<?xml version=""1.0""?>\n<Clock xmlns:dt=""urn:schemas-microsoft-com:datatypes""><Description dt:dt=""string"">E-Prime Primary Realtime Clock</Description><StartTime><Timestamp dt:dt=""int"">0</Timestamp><DateUtc dt:dt=""string"">2018-09-04T13:52:14Z</DateUtc></StartTime><FrequencyChanges><FrequencyChange><Frequency dt:dt=""r8"">3215253</Frequency><Timestamp dt:dt=""r8"">2945820180772</Timestamp><Current dt:dt=""r8"">0</Current><DateUtc dt:dt=""string"">2018-09-04T13:52:14Z</DateUtc></FrequencyChange></FrequencyChanges></Clock>\n",KW_Experiment5A-1-1,59.946,1.0.0.105,1,-526731972,Professional,2.0.10.353,2.0.10.353,9/4/2018,9/4/2018 13:52,9:52:14,2.0.10.248,1,1,1,1,,,,,,,,PracticeProc,BlockList,1,1,Distractor1.bmp,1,0,,0,50,18421,401,,0,0,lime,400,1,400,,vertical,blue,Distractor1.bmp,cyan,Distractor1.bmp,purple,Distractor2.bmp,yellow,Distractor1.bmp,lime,Distractor1.bmp,red,Target1.bmp,6,1,1,TrialProc,6,PracticeTrialList,1,1,-999999,1,18822,0,1,637,19459,Target1.bmp,red,1,,,,,,
KW_Experiment5A,1,1,"<?xml version=""1.0""?>\n<Clock xmlns:dt=""urn:schemas-microsoft-com:datatypes""><Description dt:dt=""string"">E-Prime Primary Realtime Clock</Description><StartTime><Timestamp dt:dt=""int"">0</Timestamp><DateUtc dt:dt=""string"">2018-09-04T13:52:14Z</DateUtc></StartTime><FrequencyChanges><FrequencyChange><Frequency dt:dt=""r8"">3215253</Frequency><Timestamp dt:dt=""r8"">2945820180772</Timestamp><Current dt:dt=""r8"">0</Current><DateUtc dt:dt=""string"">2018-09-04T13:52:14Z</DateUtc></FrequencyChange></FrequencyChanges></Clock>\n",KW_Experiment5A-1-1,59.946,1.0.0.105,1,-526731972,Professional,2.0.10.353,2.0.10.353,9/4/2018,9/4/2018 13:52,9:52:14,2.0.10.248,1,1,1,1,,,,,,,,PracticeProc,BlockList,2,1,Distractor1.bmp,1,0,,0,1,20473,501,,0,0,cyan,500,2,500,4,vertical,red,Distractor2.bmp,purple,Distractor1.bmp,blue,Distractor2.bmp,cyan,Distractor1.bmp,lime,Target1.bmp,yellow,Distractor1.bmp,5,1,2,TrialProc,,PracticeTrialList,1,1,-999999,1,20974,0,1,493,21467,Target1.bmp,lime,1,,,,,,
KW_Experiment5A,1,1,"<?xml version=""1.0""?>\n<Clock xmlns:dt=""urn:schemas-microsoft-com:datatypes""><Description dt:dt=""string"">E-Prime Primary Realtime Clock</Description><StartTime><Timestamp dt:dt=""int"">0</Timestamp><DateUtc dt:dt=""string"">2018-09-04T13:52:14Z</DateUtc></StartTime><FrequencyChanges><FrequencyChange><Frequency dt:dt=""r8"">3215253</Frequency><Timestamp dt:dt=""r8"">2945820180772</Timestamp><Current dt:dt=""r8"">0</Current><DateUtc dt:dt=""string"">2018-09-04T13:52:14Z</DateUtc></FrequencyChange></FrequencyChanges></Clock>\n",KW_Experiment5A-1-1,59.946,1.0.0.105,1,-526731972,Professional,2.0.10.353,2.0.10.353,9/4/2018,9/4/2018 13:52,9:52:14,2.0.10.248,1,1,1,1,,,,,,,,PracticeProc,BlockList,3,1,Distractor1.bmp,1,0,,0,1,22492,400,,0,0,yellow,400,1,400,,vertical,cyan,Distractor2.bmp,blue,Distractor2.bmp,yellow,Distractor2.bmp,red,Target1.bmp,purple,Distractor1.bmp,lime,Distractor1.bmp,4,1,3,TrialProc,2,PracticeTrialList,1,1,-999999,0,22892,0,1,751,23643,Target1.bmp,red,1,,,,,,
KW_Experiment5A,1,1,"<?xml version=""1.0""?>\n<Clock xmlns:dt=""urn:schemas-microsoft-com:datatypes""><Description dt:dt=""string"">E-Prime Primary Realtime Clock</Description><StartTime><Timestamp dt:dt=""int"">0</Timestamp><DateUtc dt:dt=""string"">2018-09-04T13:52:14Z</DateUtc></StartTime><FrequencyChanges><FrequencyChange><Frequency dt:dt=""r8"">3215253</Frequency><Timestamp dt:dt=""r8"">2945820180772</Timestamp><Current dt:dt=""r8"">0</Current><DateUtc dt:dt=""string"">2018-09-04T13:52:14Z</DateUtc></FrequencyChange></FrequencyChanges></Clock>\n",KW_Experiment5A-1-1,59.946,1.0.0.105,1,-526731972,Professional,2.0.10.353,2.0.10.353,9/4/2018,9/4/2018 13:52,9:52:14,2.0.10.248,1,1,1,1,,,,,,,,PracticeProc,BlockList,4,1,Distractor2.bmp,2,0,,0,1,24660,401,,0,0,cyan,400,1,400,4,vertical,lime,Target1.bmp,yellow,Distractor2.bmp,blue,Distractor2.bmp,purple,Distractor2.bmp,red,Distractor1.bmp,cyan,Distractor1.bmp,1,1,4,TrialProc,,PracticeTrialList,1,1,-999999,1,25061,0,1,550,25611,Target1.bmp,lime,1,,,,,,
KW_Experiment5A,1,1,"<?xml version=""1.0""?>\n<Clock xmlns:dt=""urn:schemas-microsoft-com:datatypes""><Description dt:dt=""string"">E-Prime Primary Realtime Clock</Description><StartTime><Timestamp dt:dt=""int"">0</Timestamp><DateUtc dt:dt=""string"">2018-09-04T13:52:14Z</DateUtc></StartTime><FrequencyChanges><FrequencyChange><Frequency dt:dt=""r8"">3215253</Frequency><Timestamp dt:dt=""r8"">2945820180772</Timestamp><Current dt:dt=""r8"">0</Current><DateUtc dt:dt=""string"">2018-09-04T13:52:14Z</DateUtc></FrequencyChange></FrequencyChanges></Clock>\n",KW_Experiment5A-1-1,59.946,1.0.0.105,1,-526731972,Professional,2.0.10.353,2.0.10.353,9/4/2018,9/4/2018 13:52,9:52:14,2.0.10.248,1,1,1,1,,,,,,,,PracticeProc,BlockList,5,1,Distractor1.bmp,1,0,,0,1,26629,600,,0,0,purple,600,3,600,,vertical,purple,Distractor1.bmp,red,Target1.bmp,yellow,Distractor1.bmp,blue,Distractor1.bmp,lime,Distractor2.bmp,cyan,Distractor1.bmp,2,1,5,TrialProc,5,PracticeTrialList,1,1,-999999,0,27229,0,1,486,27715,Target1.bmp,red,1,,,,,,
KW_Experiment5A,1,1,"<?xml version=""1.0""?>\n<Clock xmlns:dt=""urn:schemas-microsoft-com:datatypes""><Description dt:dt=""string"">E-Prime Primary Realtime Clock</Description><StartTime><Timestamp dt:dt=""int"">0</Timestamp><DateUtc dt:dt=""string"">2018-09-04T13:52:14Z</DateUtc></StartTime><FrequencyChanges><FrequencyChange><Frequency dt:dt=""r8"">3215253</Frequency><Timestamp dt:dt=""r8"">2945820180772</Timestamp><Current dt:dt=""r8"">0</Current><DateUtc dt:dt=""string"">2018-09-04T13:52:14Z</DateUtc></FrequencyChange></FrequencyChanges></Clock>\n",KW_Experiment5A-1-1,59.946,1.0.0.105,1,-526731972,Professional,2.0.10.353,2.0.10.353,9/4/2018,9/4/2018 13:52,9:52:14,2.0.10.248,1,1,1,1,,,,,,,,PracticeProc,BlockList,6,1,Distractor1.bmp,1,0,,0,1,28731,600,,0,0,purple,600,3,600,5,vertical,cyan,Distractor2.bmp,purple,Distractor1.bmp,lime,Target1.bmp,red,Distractor1.bmp,blue,Distractor1.bmp,yellow,Distractor1.bmp,3,1,6,TrialProc,,PracticeTrialList,1,1,-999999,0,29331,0,1,480,29811,Target1.bmp,lime,1,,,,,,
KW_Experiment5A,1,1,"<?xml version=""1.0""?>\n<Clock xmlns:dt=""urn:schemas-microsoft-com:datatypes""><Description dt:dt=""string"">E-Prime Primary Realtime Clock</Description><StartTime><Timestamp dt:dt=""int"">0</Timestamp><DateUtc dt:dt=""string"">2018-09-04T13:52:14Z</DateUtc></StartTime><FrequencyChanges><FrequencyChange><Frequency dt:dt=""r8"">3215253</Frequency><Timestamp dt:dt=""r8"">2945820180772</Timestamp><Current dt:dt=""r8"">0</Current><DateUtc dt:dt=""string"">2018-09-04T13:52:14Z</DateUtc></FrequencyChange></FrequencyChanges></Clock>\n",KW_Experiment5A-1-1,59.946,1.0.0.105,1,-526731972,Professional,2.0.10.353,2.0.10.353,9/4/2018,9/4/2018 13:52,9:52:14,2.0.10.248,2,2,1,2,,,,,,,,TrainingProc,BlockList,1,2,Distractor2.bmp,2,0,,0,46,36321,601,,0,0,cyan,600,3,600,,horizontal,cyan,Distractor2.bmp,blue,Distractor1.bmp,lime,Distractor1.bmp,yellow,Distractor1.bmp,purple,Distractor1.bmp,red,Target2.bmp,,,,TrialProc,4,TrainingTrialList,1,2,-999999,1,36922,0,2,505,37427,Target2.bmp,red,2,,,,12,1,1
KW_Experiment5A,1,1,"<?xml version=""1.0""?>\n<Clock xmlns:dt=""urn:schemas-microsoft-com:datatypes""><Description dt:dt=""string"">E-Prime Primary Realtime Clock</Description><StartTime><Timestamp dt:dt=""int"">0</Timestamp><DateUtc dt:dt=""string"">2018-09-04T13:52:14Z</DateUtc></StartTime><FrequencyChanges><FrequencyChange><Frequency dt:dt=""r8"">3215253</Frequency><Timestamp dt:dt=""r8"">2945820180772</Timestamp><Current dt:dt=""r8"">0</Current><DateUtc dt:dt=""string"">2018-09-04T13:52:14Z</DateUtc></FrequencyChange></FrequencyChanges></Clock>\n",KW_Experiment5A-1-1,59.946,1.0.0.105,1,-526731972,Professional,2.0.10.353,2.0.10.353,9/4/2018,9/4/2018 13:52,9:52:14,2.0.10.248,2,2,1,2,,,,,,,,TrainingProc,BlockList,2,1,Distractor2.bmp,2,0,,0,1,38440,600,,0,0,red,600,3,600,1,vertical,red,Distractor1.bmp,lime,Target1.bmp,blue,Distractor2.bmp,purple,Distractor1.bmp,cyan,Distractor1.bmp,yellow,Distractor2.bmp,,,,TrialProc,,TrainingTrialList,1,1,-999999,0,39040,0,1,475,39515,Target1.bmp,lime,1,,,,2,1,2
KW_Experiment5A,1,1,"<?xml version=""1.0""?>\n<Clock xmlns:dt=""urn:schemas-microsoft-com:datatypes""><Description dt:dt=""string"">E-Prime Primary Realtime Clock</Description><StartTime><Timestamp dt:dt=""int"">0</Timestamp><DateUtc dt:dt=""string"">2018-09-04T13:52:14Z</DateUtc></StartTime><FrequencyChanges><FrequencyChange><Frequency dt:dt=""r8"">3215253</Frequency><Timestamp dt:dt=""r8"">2945820180772</Timestamp><Current dt:dt=""r8"">0</Current><DateUtc dt:dt=""string"">2018-09-04T13:52:14Z</DateUtc></FrequencyChange></FrequencyChanges></Clock>\n",KW_Experiment5A-1-1,59.946,1.0.0.105,1,-526731972,Professional,2.0.10.353,2.0.10.353,9/4/2018,9/4/2018 13:52,9:52:14,2.0.10.248,2,2,1,2,,,,,,,,TrainingProc,BlockList,3,2,Distractor2.bmp,2,0,,0,1,40525,500,,0,0,cyan,500,2,500,4,horizontal,cyan,Distractor2.bmp,blue,Distractor2.bmp,red,Distractor1.bmp,yellow,Distractor2.bmp,lime,Target2.bmp,purple,Distractor2.bmp,,,,TrialProc,,TrainingTrialList,1,2,-999999,0,41025,0,2,450,41475,Target2.bmp,lime,2,,,,5,1,3
KW_Experiment5A,1,1,"<?xml version=""1.0""?>\n<Clock xmlns:dt=""urn:schemas-microsoft-com:datatypes""><Description dt:dt=""string"">E-Prime Primary Realtime Clock</Description><StartTime><Timestamp dt:dt=""int"">0</Timestamp><DateUtc dt:dt=""string"">2018-09-04T13:52:14Z</DateUtc></StartTime><FrequencyChanges><FrequencyChange><Frequency dt:dt=""r8"">3215253</Frequency><Timestamp dt:dt=""r8"">2945820180772</Timestamp><Current dt:dt=""r8"">0</Current><DateUtc dt:dt=""string"">2018-09-04T13:52:14Z</DateUtc></FrequencyChange></FrequencyChanges></Clock>\n",KW_Experiment5A-1-1,59.946,1.0.0.105,1,-526731972,Professional,2.0.10.353,2.0.10.353,9/4/2018,9/4/2018 13:52,9:52:14,2.0.10.248,2,2,1,2,,,,,,,,TrainingProc,BlockList,4,2,Distractor2.bmp,2,0,,1,0,42493,501,,0,0,purple,500,2,500,5,horizontal,lime,Target2.bmp,purple,Distractor2.bmp,red,Distractor2.bmp,cyan,Distractor2.bmp,blue,Distractor1.bmp,yellow,Distractor2.bmp,,,,TrialProc,,TrainingTrialList,1,2,-999999,1,42994,0,2,425,43419,Target2.bmp,lime,2,,,,1,1,4
KW_Experiment5A,1,1,"<?xml version=""1.0""?>\n<Clock xmlns:dt=""urn:schemas-microsoft-com:datatypes""><Description dt:dt=""string"">E-Prime Primary Realtime Clock</Description><StartTime><Timestamp dt:dt=""int"">0</Timestamp><DateUtc dt:dt=""string"">2018-09-04T13:52:14Z</DateUtc></StartTime><FrequencyChanges><FrequencyChange><Frequency dt:dt=""r8"">3215253</Frequency><Timestamp dt:dt=""r8"">2945820180772</Timestamp><Current dt:dt=""r8"">0</Current><DateUtc dt:dt=""string"">2018-09-04T13:52:14Z</DateUtc></FrequencyChange></FrequencyChanges></Clock>\n",KW_Experiment5A-1-1,59.946,1.0.0.105,1,-526731972,Professional,2.0.10.353,2.0.10.353,9/4/2018,9/4/2018 13:52,9:52:14,2.0.10.248,2,2,1,2,,,,,,,,TrainingProc,BlockList,5,2,Distractor2.bmp,2,0,,0,1,44429,500,,0,0,yellow,500,2,500,,horizontal,red,Target2.bmp,blue,Distractor2.bmp,purple,Distractor2.bmp,cyan,Distractor2.bmp,lime,Distractor1.bmp,yellow,Distractor2.bmp,,,,TrialProc,2,TrainingTrialList,1,2,-999999,0,44929,0,2,434,45363,Target2.bmp,red,2,,,,7,1,5
KW_Experiment5A,1,1,"<?xml version=""1.0""?>\n<Clock xmlns:dt=""urn:schemas-microsoft-com:datatypes""><Description dt:dt=""string"">E-Prime Primary Realtime Clock</Description><StartTime><Timestamp dt:dt=""int"">0</Timestamp><DateUtc dt:dt=""string"">2018-09-04T13:52:14Z</DateUtc></StartTime><FrequencyChanges><FrequencyChange><Frequency dt:dt=""r8"">3215253</Frequency><Timestamp dt:dt=""r8"">2945820180772</Timestamp><Current dt:dt=""r8"">0</Current><DateUtc dt:dt=""string"">2018-09-04T13:52:14Z</DateUtc></FrequencyChange></FrequencyChanges></Clock>\n",KW_Experiment5A-1-1,59.946,1.0.0.105,1,-526731972,Professional,2.0.10.353,2.0.10.353,9/4/2018,9/4/2018 13:52,9:52:14,2.0.10.248,2,2,1,2,,,,,,,,TrainingProc,BlockList,6,2,Distractor2.bmp,2,0,,0,1,46380,501,,0,0,cyan,500,2,500,4,horizontal,cyan,Distractor2.bmp,red,Distractor1.bmp,yellow,Distractor1.bmp,blue,Distractor1.bmp,purple,Distractor2.bmp,lime,Target2.bmp,,,,TrialProc,,TrainingTrialList,1,2,-999999,1,46881,0,2,506,47387,Target2.bmp,lime,2,,,,6,1,6
KW_Experiment5A,1,1,"<?xml version=""1.0""?>\n<Clock xmlns:dt=""urn:schemas-microsoft-com:datatypes""><Description dt:dt=""string"">E-Prime Primary Realtime Clock</Description><StartTime><Timestamp dt:dt=""int"">0</Timestamp><DateUtc dt:dt=""string"">2018-09-04T13:52:14Z</DateUtc></StartTime><FrequencyChanges><FrequencyChange><Frequency dt:dt=""r8"">3215253</Frequency><Timestamp dt:dt=""r8"">2945820180772</Timestamp><Current dt:dt=""r8"">0</Current><DateUtc dt:dt=""string"">2018-09-04T13:52:14Z</DateUtc></FrequencyChange></FrequencyChanges></Clock>\n",KW_Experiment5A-1-1,59.946,1.0.0.105,1,-526731972,Professional,2.0.10.353,2.0.10.353,9/4/2018,9/4/2018 13:52,9:52:14,2.0.10.248,2,2,1,2,,,,,,,,TrainingProc,BlockList,7,2,Distractor1.bmp,1,0,,0,1,48399,500,,0,0,yellow,500,2,500,,horizontal,yellow,Distractor2.bmp,purple,Distractor2.bmp,red,Target2.bmp,blue,Distractor1.bmp,lime,Distractor2.bmp,cyan,Distractor2.bmp,,,,TrialProc,2,TrainingTrialList,1,2,-999999,0,48899,0,2,448,49347,Target2.bmp,red,2,,,,9,1,7
KW_Experiment5A,1,1,"<?xml version=""1.0""?>\n<Clock xmlns:dt=""urn:schemas-microsoft-com:datatypes""><Description dt:dt=""string"">E-Prime Primary Realtime Clock</Description><StartTime><Timestamp dt:dt=""int"">0</Timestamp><DateUtc dt:dt=""string"">2018-09-04T13:52:14Z</DateUtc></StartTime><FrequencyChanges><FrequencyChange><Frequency dt:dt=""r8"">3215253</Frequency><Timestamp dt:dt=""r8"">2945820180772</Timestamp><Current dt:dt=""r8"">0</Current><DateUtc dt:dt=""string"">2018-09-04T13:52:14Z</DateUtc></FrequencyChange></FrequencyChanges></Clock>\n",KW_Experiment5A-1-1,59.946,1.0.0.105,1,-526731972,Professional,2.0.10.353,2.0.10.353,9/4/2018,9/4/2018 13:52,9:52:14,2.0.10.248,2,2,1,2,,,,,,,,TrainingProc,BlockList,8,1,Distractor2.bmp,2,0,,0,1,50367,401,,0,0,blue,400,1,400,3,vertical,blue,Distractor1.bmp,red,Distractor2.bmp,lime,Target1.bmp,cyan,Distractor2.bmp,purple,Distractor2.bmp,yellow,Distractor1.bmp,,,,TrialProc,,TrainingTrialList,1,1,-999999,1,50768,0,1,403,51171,Target1.bmp,lime,1,,,,3,1,8
KW_Experiment5A,1,1,"<?xml version=""1.0""?>\n<Clock xmlns:dt=""urn:schemas-microsoft-com:datatypes""><Description dt:dt=""string"">E-Prime Primary Realtime Clock</Description><StartTime><Timestamp dt:dt=""int"">0</Timestamp><DateUtc dt:dt=""string"">2018-09-04T13:52:14Z</DateUtc></StartTime><FrequencyChanges><FrequencyChange><Frequency dt:dt=""r8"">3215253</Frequency><Timestamp dt:dt=""r8"">2945820180772</Timestamp><Current dt:dt=""r8"">0</Current><DateUtc dt:dt=""string"">2018-09-04T13:52:14Z</DateUtc></FrequencyChange></FrequencyChanges></Clock>\n",KW_Experiment5A-1-1,59.946,1.0.0.105,1,-526731972,Professional,2.0.10.353,2.0.10.353,9/4/2018,9/4/2018 13:52,9:52:14,2.0.10.248,2,2,1,2,,,,,,,,TrainingProc,BlockList,9,2,Distractor2.bmp,2,0,,0,1,52186,400,,0,0,purple,400,1,400,5,horizontal,purple,Distractor1.bmp,red,Distractor1.bmp,lime,Target2.bmp,cyan,Distractor2.bmp,blue,Distractor1.bmp,yellow,Distractor2.bmp,,,,TrialProc,,TrainingTrialList,1,2,-999999,0,52586,0,2,352,52938,Target2.bmp,lime,2,,,,3,1,9
KW_Experiment5A,1,1,"<?xml version=""1.0""?>\n<Clock xmlns:dt=""urn:schemas-microsoft-com:datatypes""><Description dt:dt=""string"">E-Prime Primary Realtime Clock</Description><StartTime><Timestamp dt:dt=""int"">0</Timestamp><DateUtc dt:dt=""string"">2018-09-04T13:52:14Z</DateUtc></StartTime><FrequencyChanges><FrequencyChange><Frequency dt:dt=""r8"">3215253</Frequency><Timestamp dt:dt=""r8"">2945820180772</Timestamp><Current dt:dt=""r8"">0</Current><DateUtc dt:dt=""string"">2018-09-04T13:52:14Z</DateUtc></FrequencyChange></FrequencyChanges></Clock>\n",KW_Experiment5A-1-1,59.946,1.0.0.105,1,-526731972,Professional,2.0.10.353,2.0.10.353,9/4/2018,9/4/2018 13:52,9:52:14,2.0.10.248,2,2,1,2,,,,,,,,TrainingProc,BlockList,10,2,Distractor1.bmp,1,0,,0,1,53954,601,,0,0,red,600,3,600,1,horizontal,red,Distractor1.bmp,yellow,Distractor1.bmp,cyan,Distractor1.bmp,blue,Distractor2.bmp,purple,Distractor1.bmp,lime,Target2.bmp,,,,TrialProc,,TrainingTrialList,0,2,-999999,1,54555,0,1,383,54938,Target2.bmp,lime,2,,,,6,1,10
KW_Experiment5A,1,1,"<?xml version=""1.0""?>\n<Clock xmlns:dt=""urn:schemas-microsoft-com:datatypes""><Description dt:dt=""string"">E-Prime Primary Realtime Clock</Description><StartTime><Timestamp dt:dt=""int"">0</Timestamp><DateUtc dt:dt=""string"">2018-09-04T13:52:14Z</DateUtc></StartTime><FrequencyChanges><FrequencyChange><Frequency dt:dt=""r8"">3215253</Frequency><Timestamp dt:dt=""r8"">2945820180772</Timestamp><Current dt:dt=""r8"">0</Current><DateUtc dt:dt=""string"">2018-09-04T13:52:14Z</DateUtc></FrequencyChange></FrequencyChanges></Clock>\n",KW_Experiment5A-1-1,59.946,1.0.0.105,1,-526731972,Professional,2.0.10.353,2.0.10.353,9/4/2018,9/4/2018 13:52,9:52:14,2.0.10.248,2,2,1,2,,,,,,,,TrainingProc,BlockList,11,2,Distractor1.bmp,1,0,,0,1,55956,600,,0,0,yellow,600,3,600,2,horizontal,yellow,Distractor1.bmp,red,Distractor1.bmp,blue,Distractor2.bmp,purple,Distractor1.bmp,lime,Target2.bmp,cyan,Distractor1.bmp,,,,TrialProc,,TrainingTrialList,1,2,-999999,0,56556,0,2,430,56986,Target2.bmp,lime,2,,,,5,1,11
KW_Experiment5A,1,1,"<?xml version=""1.0""?>\n<Clock xmlns:dt=""urn:schemas-microsoft-com:datatypes""><Description dt:dt=""string"">E-Prime Primary Realtime Clock</Description><StartTime><Timestamp dt:dt=""int"">0</Timestamp><DateUtc dt:dt=""string"">2018-09-04T13:52:14Z</DateUtc></StartTime><FrequencyChanges><FrequencyChange><Frequency dt:dt=""r8"">3215253</Frequency><Timestamp dt:dt=""r8"">2945820180772</Timestamp><Current dt:dt=""r8"">0</Current><DateUtc dt:dt=""string"">2018-09-04T13:52:14Z</DateUtc></FrequencyChange></FrequencyChanges></Clock>\n",KW_Experiment5A-1-1,59.946,1.0.0.105,1,-526731972,Professional,2.0.10.353,2.0.10.353,9/4/2018,9/4/2018 13:52,9:52:14,2.0.10.248,2,2,1,2,,,,,,,,TrainingProc,BlockList,12,1,Distractor2.bmp,2,0,,0,1,58008,400,,0,0,red,400,1,400,1,vertical,red,Distractor2.bmp,cyan,Distractor2.bmp,yellow,Distractor1.bmp,purple,Distractor2.bmp,blue,Distractor1.bmp,lime,Target1.bmp,,,,TrialProc,,TrainingTrialList,1,1,-999999,0,58408,0,1,410,58818,Target1.bmp,lime,1,,,,6,1,12
KW_Experiment5A,1,1,"<?xml version=""1.0""?>\n<Clock xmlns:dt=""urn:schemas-microsoft-com:datatypes""><Description dt:dt=""string"">E-Prime Primary Realtime Clock</Description><StartTime><Timestamp dt:dt=""int"">0</Timestamp><DateUtc dt:dt=""string"">2018-09-04T13:52:14Z</DateUtc></StartTime><FrequencyChanges><FrequencyChange><Frequency dt:dt=""r8"">3215253</Frequency><Timestamp dt:dt=""r8"">2945820180772</Timestamp><Current dt:dt=""r8"">0</Current><DateUtc dt:dt=""string"">2018-09-04T13:52:14Z</DateUtc></FrequencyChange></FrequencyChanges></Clock>\n",KW_Experiment5A-1-1,59.946,1.0.0.105,1,-526731972,Professional,2.0.10.353,2.0.10.353,9/4/2018,9/4/2018 13:52,9:52:14,2.0.10.248,2,2,1,2,,,,,,,,TrainingProc,BlockList,13,1,Distractor1.bmp,1,0,,0,1,59843,600,,0,0,yellow,600,3,600,,vertical,yellow,Distractor2.bmp,cyan,Distractor2.bmp,purple,Distractor1.bmp,red,Target1.bmp,blue,Distractor1.bmp,lime,Distractor2.bmp,,,,TrialProc,2,TrainingTrialList,0,1,-999999,0,60443,0,2,455,60898,Target1.bmp,red,1,,,,10,1,13
KW_Experiment5A,1,1,"<?xml version=""1.0""?>\n<Clock xmlns:dt=""urn:schemas-microsoft-com:datatypes""><Description dt:dt=""string"">E-Prime Primary Realtime Clock</Description><StartTime><Timestamp dt:dt=""int"">0</Timestamp><DateUtc dt:dt=""string"">2018-09-04T13:52:14Z</DateUtc></StartTime><FrequencyChanges><FrequencyChange><Frequency dt:dt=""r8"">3215253</Frequency><Timestamp dt:dt=""r8"">2945820180772</Timestamp><Current dt:dt=""r8"">0</Current><DateUtc dt:dt=""string"">2018-09-04T13:52:14Z</DateUtc></FrequencyChange></FrequencyChanges></Clock>\n",KW_Experiment5A-1-1,59.946,1.0.0.105,1,-526731972,Professional,2.0.10.353,2.0.10.353,9/4/2018,9/4/2018 13:52,9:52:14,2.0.10.248,2,2,1,2,,,,,,,,TrainingProc,BlockList,14,1,Distractor2.bmp,2,0,,0,1,61911,401,,0,0,cyan,400,1,400,,vertical,cyan,Distractor1.bmp,red,Target1.bmp,blue,Distractor2.bmp,yellow,Distractor1.bmp,lime,Distractor1.bmp,purple,Distractor2.bmp,,,,TrialProc,4,TrainingTrialList,1,1,-999999,1,62312,0,1,474,62786,Target1.bmp,red,1,,,,8,1,14
KW_Experiment5A,1,1,"<?xml version=""1.0""?>\n<Clock xmlns:dt=""urn:schemas-microsoft-com:datatypes""><Description dt:dt=""string"">E-Prime Primary Realtime Clock</Description><StartTime><Timestamp dt:dt=""int"">0</Timestamp><DateUtc dt:dt=""string"">2018-09-04T13:52:14Z</DateUtc></StartTime><FrequencyChanges><FrequencyChange><Frequency dt:dt=""r8"">3215253</Frequency><Timestamp dt:dt=""r8"">2945820180772</Timestamp><Current dt:dt=""r8"">0</Current><DateUtc dt:dt=""string"">2018-09-04T13:52:14Z</DateUtc></FrequencyChange></FrequencyChanges></Clock>\n",KW_Experiment5A-1-1,59.946,1.0.0.105,1,-526731972,Professional,2.0.10.353,2.0.10.353,9/4/2018,9/4/2018 13:52,9:52:14,2.0.10.248,2,2,1,2,,,,,,,,TrainingProc,BlockList,15,1,Distractor2.bmp,2,0,,0,1,63796,601,,0,0,lime,600,3,600,,vertical,lime,Distractor1.bmp,purple,Distractor1.bmp,cyan,Distractor2.bmp,blue,Distractor2.bmp,red,Target1.bmp,yellow,Distractor2.bmp,,,,TrialProc,6,TrainingTrialList,1,1,-999999,1,64397,0,1,413,64810,Target1.bmp,red,1,,,,11,1,15
KW_Experiment5A,1,1,"<?xml version=""1.0""?>\n<Clock xmlns:dt=""urn:schemas-microsoft-com:datatypes""><Description dt:dt=""string"">E-Prime Primary Realtime Clock</Description><StartTime><Timestamp dt:dt=""int"">0</Timestamp><DateUtc dt:dt=""string"">2018-09-04T13:52:14Z</DateUtc></StartTime><FrequencyChanges><FrequencyChange><Frequency dt:dt=""r8"">3215253</Frequency><Timestamp dt:dt=""r8"">2945820180772</Timestamp><Current dt:dt=""r8"">0</Current><DateUtc dt:dt=""string"">2018-09-04T13:52:14Z</DateUtc></FrequencyChange></FrequencyChanges></Clock>\n",KW_Experiment5A-1-1,59.946,1.0.0.105,1,-526731972,Professional,2.0.10.353,2.0.10.353,9/4/2018,9/4/2018 13:52,9:52:14,2.0.10.248,2,2,1,2,,,,,,,,TrainingProc,BlockList,16,2,Distractor2.bmp,2,0,,0,1,65832,400,,0,0,purple,400,1,400,5,horizontal,purple,Distractor1.bmp,lime,Target2.bmp,red,Distractor2.bmp,blue,Distractor1.bmp,cyan,Distractor2.bmp,yellow,Distractor1.bmp,,,,TrialProc,,TrainingTrialList,1,2,-999999,0,66232,0,2,362,66594,Target2.bmp,lime,2,,,,2,1,16
KW_Experiment5A,1,1,"<?xml version=""1.0""?>\n<Clock xmlns:dt=""urn:schemas-microsoft-com:datatypes""><Description dt:dt=""string"">E-Prime Primary Realtime Clock</Description><StartTime><Timestamp dt:dt=""int"">0</Timestamp><DateUtc dt:dt=""string"">2018-09-04T13:52:14Z</DateUtc></StartTime><FrequencyChanges><FrequencyChange><Frequency dt:dt=""r8"">3215253</Frequency><Timestamp dt:dt=""r8"">2945820180772</Timestamp><Current dt:dt=""r8"">0</Current><DateUtc dt:dt=""string"">2018-09-04T13:52:14Z</DateUtc></FrequencyChange></FrequencyChanges></Clock>\n",KW_Experiment5A-1-1,59.946,1.0.0.105,1,-526731972,Professional,2.0.10.353,2.0.10.353,9/4/2018,9/4/2018 13:52,9:52:14,2.0.10.248,2,2,1,2,,,,,,,,TrainingProc,BlockList,17,2,Distractor2.bmp,2,0,,0,1,67617,500,,0,0,blue,500,2,500,3,horizontal,blue,Distractor1.bmp,lime,Target2.bmp,red,Distractor2.bmp,yellow,Distractor2.bmp,cyan,Distractor1.bmp,purple,Distractor1.bmp,,,,TrialProc,,TrainingTrialList,1,2,-999999,0,68117,0,2,413,68530,Target2.bmp,lime,2,,,,2,1,17
KW_Experiment5A,1,1,"<?xml version=""1.0""?>\n<Clock xmlns:dt=""urn:schemas-microsoft-com:datatypes""><Description dt:dt=""string"">E-Prime Primary Realtime Clock</Description><StartTime><Timestamp dt:dt=""int"">0</Timestamp><DateUtc dt:dt=""string"">2018-09-04T13:52:14Z</DateUtc></StartTime><FrequencyChanges><FrequencyChange><Frequency dt:dt=""r8"">3215253</Frequency><Timestamp dt:dt=""r8"">2945820180772</Timestamp><Current dt:dt=""r8"">0</Current><DateUtc dt:dt=""string"">2018-09-04T13:52:14Z</DateUtc></FrequencyChange></FrequencyChanges></Clock>\n",KW_Experiment5A-1-1,59.946,1.0.0.105,1,-526731972,Professional,2.0.10.353,2.0.10.353,9/4/2018,9/4/2018 13:52,9:52:14,2.0.10.248,2,2,1,2,,,,,,,,TrainingProc,BlockList,18,1,Distractor2.bmp,2,0,,0,1,69552,500,,0,0,blue,500,2,500,3,vertical,lime,Target1.bmp,blue,Distractor2.bmp,red,Distractor2.bmp,cyan,Distractor2.bmp,yellow,Distractor2.bmp,purple,Distractor1.bmp,,,,TrialProc,,TrainingTrialList,1,1,-999999,0,70052,0,1,414,70466,Target1.bmp,lime,1,,,,1,1,18
KW_Experiment5A,1,1,"<?xml version=""1.0""?>\n<Clock xmlns:dt=""urn:schemas-microsoft-com:datatypes""><Description dt:dt=""string"">E-Prime Primary Realtime Clock</Description><StartTime><Timestamp dt:dt=""int"">0</Timestamp><DateUtc dt:dt=""string"">2018-09-04T13:52:14Z</DateUtc></StartTime><FrequencyChanges><FrequencyChange><Frequency dt:dt=""r8"">3215253</Frequency><Timestamp dt:dt=""r8"">2945820180772</Timestamp><Current dt:dt=""r8"">0</Current><DateUtc dt:dt=""string"">2018-09-04T13:52:14Z</DateUtc></FrequencyChange></FrequencyChanges></Clock>\n",KW_Experiment5A-1-1,59.946,1.0.0.105,1,-526731972,Professional,2.0.10.353,2.0.10.353,9/4/2018,9/4/2018 13:52,9:52:14,2.0.10.248,2,2,1,2,,,,,,,,TrainingProc,BlockList,19,2,Distractor1.bmp,1,0,,0,1,71487,400,,0,0,purple,400,1,400,5,horizontal,purple,Distractor2.bmp,cyan,Distractor1.bmp,lime,Target2.bmp,red,Distractor1.bmp,yellow,Distractor1.bmp,blue,Distractor1.bmp,,,,TrialProc,,TrainingTrialList,1,2,-999999,0,71887,0,2,355,72242,Target2.bmp,lime,2,,,,3,1,19
KW_Experiment5A,1,1,"<?xml version=""1.0""?>\n<Clock xmlns:dt=""urn:schemas-microsoft-com:datatypes""><Description dt:dt=""string"">E-Prime Primary Realtime Clock</Description><StartTime><Timestamp dt:dt=""int"">0</Timestamp><DateUtc dt:dt=""string"">2018-09-04T13:52:14Z</DateUtc></StartTime><FrequencyChanges><FrequencyChange><Frequency dt:dt=""r8"">3215253</Frequency><Timestamp dt:dt=""r8"">2945820180772</Timestamp><Current dt:dt=""r8"">0</Current><DateUtc dt:dt=""string"">2018-09-04T13:52:14Z</DateUtc></FrequencyChange></FrequencyChanges></Clock>\n",KW_Experiment5A-1-1,59.946,1.0.0.105,1,-526731972,Professional,2.0.10.353,2.0.10.353,9/4/2018,9/4/2018 13:52,9:52:14,2.0.10.248,2,2,1,2,,,,,,,,TrainingProc,BlockList,20,1,Distractor1.bmp,1,0,,0,1,73255,601,,0,0,purple,600,3,600,5,vertical,purple,Distractor1.bmp,yellow,Distractor2.bmp,blue,Distractor2.bmp,lime,Target1.bmp,red,Distractor1.bmp,cyan,Distractor2.bmp,,,,TrialProc,,TrainingTrialList,1,1,-999999,1,73856,0,1,354,74210,Target1.bmp,lime,1,,,,4,1,20
KW_Experiment5A,1,1,"<?xml version=""1.0""?>\n<Clock xmlns:dt=""urn:schemas-microsoft-com:datatypes""><Description dt:dt=""string"">E-Prime Primary Realtime Clock</Description><StartTime><Timestamp dt:dt=""int"">0</Timestamp><DateUtc dt:dt=""string"">2018-09-04T13:52:14Z</DateUtc></StartTime><FrequencyChanges><FrequencyChange><Frequency dt:dt=""r8"">3215253</Frequency><Timestamp dt:dt=""r8"">2945820180772</Timestamp><Current dt:dt=""r8"">0</Current><DateUtc dt:dt=""string"">2018-09-04T13:52:14Z</DateUtc></FrequencyChange></FrequencyChanges></Clock>\n",KW_Experiment5A-1-1,59.946,1.0.0.105,1,-526731972,Professional,2.0.10.353,2.0.10.353,9/4/2018,9/4/2018 13:52,9:52:14,2.0.10.248,2,2,1,2,,,,,,,,TrainingProc,BlockList,21,1,Distractor2.bmp,2,0,,0,1,75224,500,,0,0,blue,500,2,500,3,vertical,lime,Target1.bmp,blue,Distractor2.bmp,yellow,Distractor2.bmp,purple,Distractor2.bmp,red,Distractor1.bmp,cyan,Distractor2.bmp,,,,TrialProc,,TrainingTrialList,1,1,-999999,0,75724,0,1,462,76186,Target1.bmp,lime,1,,,,1,1,21
KW_Experiment5A,1,1,"<?xml version=""1.0""?>\n<Clock xmlns:dt=""urn:schemas-microsoft-com:datatypes""><Description dt:dt=""string"">E-Prime Primary Realtime Clock</Description><StartTime><Timestamp dt:dt=""int"">0</Timestamp><DateUtc dt:dt=""string"">2018-09-04T13:52:14Z</DateUtc></StartTime><FrequencyChanges><FrequencyChange><Frequency dt:dt=""r8"">3215253</Frequency><Timestamp dt:dt=""r8"">2945820180772</Timestamp><Current dt:dt=""r8"">0</Current><DateUtc dt:dt=""string"">2018-09-04T13:52:14Z</DateUtc></FrequencyChange></FrequencyChanges></Clock>\n",KW_Experiment5A-1-1,59.946,1.0.0.105,1,-526731972,Professional,2.0.10.353,2.0.10.353,9/4/2018,9/4/2018 13:52,9:52:14,2.0.10.248,2,2,1,2,,,,,,,,TrainingProc,BlockList,22,1,Distractor2.bmp,2,0,,0,1,77209,600,,0,0,purple,600,3,600,5,vertical,purple,Distractor1.bmp,cyan,Distractor2.bmp,blue,Distractor1.bmp,red,Distractor1.bmp,lime,Target1.bmp,yellow,Distractor2.bmp,,,,TrialProc,,TrainingTrialList,1,1,-999999,0,77809,0,1,393,78202,Target1.bmp,lime,1,,,,5,1,22
KW_Experiment5A,1,1,"<?xml version=""1.0""?>\n<Clock xmlns:dt=""urn:schemas-microsoft-com:datatypes""><Description dt:dt=""string"">E-Prime Primary Realtime Clock</Description><StartTime><Timestamp dt:dt=""int"">0</Timestamp><DateUtc dt:dt=""string"">2018-09-04T13:52:14Z</DateUtc></StartTime><FrequencyChanges><FrequencyChange><Frequency dt:dt=""r8"">3215253</Frequency><Timestamp dt:dt=""r8"">2945820180772</Timestamp><Current dt:dt=""r8"">0</Current><DateUtc dt:dt=""string"">2018-09-04T13:52:14Z</DateUtc></FrequencyChange></FrequencyChanges></Clock>\n",KW_Experiment5A-1-1,59.946,1.0.0.105,1,-526731972,Professional,2.0.10.353,2.0.10.353,9/4/2018,9/4/2018 13:52,9:52:14,2.0.10.248,2,2,1,2,,,,,,,,TrainingProc,BlockList,23,1,Distractor1.bmp,1,0,,0,1,79227,501,,0,0,blue,500,2,500,3,vertical,blue,Distractor1.bmp,red,Distractor1.bmp,cyan,Distractor1.bmp,lime,Target1.bmp,yellow,Distractor1.bmp,purple,Distractor2.bmp,,,,TrialProc,,TrainingTrialList,1,1,-999999,1,79728,0,1,442,80170,Target1.bmp,lime,1,,,,4,1,23
KW_Experiment5A,1,1,"<?xml version=""1.0""?>\n<Clock xmlns:dt=""urn:schemas-microsoft-com:datatypes""><Description dt:dt=""string"">E-Prime Primary Realtime Clock</Description><StartTime><Timestamp dt:dt=""int"">0</Timestamp><DateUtc dt:dt=""string"">2018-09-04T13:52:14Z</DateUtc></StartTime><FrequencyChanges><FrequencyChange><Frequency dt:dt=""r8"">3215253</Frequency><Timestamp dt:dt=""r8"">2945820180772</Timestamp><Current dt:dt=""r8"">0</Current><DateUtc dt:dt=""string"">2018-09-04T13:52:14Z</DateUtc></FrequencyChange></FrequencyChanges></Clock>\n",KW_Experiment5A-1-1,59.946,1.0.0.105,1,-526731972,Professional,2.0.10.353,2.0.10.353,9/4/2018,9/4/2018 13:52,9:52:14,2.0.10.248,2,2,1,2,,,,,,,,TrainingProc,BlockList,24,2,Distractor1.bmp,1,0,,0,1,81179,400,,0,0,blue,400,1,400,3,horizontal,blue,Distractor2.bmp,purple,Distractor1.bmp,yellow,Distractor2.bmp,lime,Target2.bmp,red,Distractor1.bmp,cyan,Distractor1.bmp,,,,TrialProc,,TrainingTrialList,0,2,-999999,0,81579,0,1,463,82042,Target2.bmp,lime,2,,,,4,1,24
KW_Experiment5A,1,1,"<?xml version=""1.0""?>\n<Clock xmlns:dt=""urn:schemas-microsoft-com:datatypes""><Description dt:dt=""string"">E-Prime Primary Realtime Clock</Description><StartTime><Timestamp dt:dt=""int"">0</Timestamp><DateUtc dt:dt=""string"">2018-09-04T13:52:14Z</DateUtc></StartTime><FrequencyChanges><FrequencyChange><Frequency dt:dt=""r8"">3215253</Frequency><Timestamp dt:dt=""r8"">2945820180772</Timestamp><Current dt:dt=""r8"">0</Current><DateUtc dt:dt=""string"">2018-09-04T13:52:14Z</DateUtc></FrequencyChange></FrequencyChanges></Clock>\n",KW_Experiment5A-1-1,59.946,1.0.0.105,1,-526731972,Professional,2.0.10.353,2.0.10.353,9/4/2018,9/4/2018 13:52,9:52:14,2.0.10.248,2,2,1,2,,,,,,,,TrainingProc,BlockList,25,1,Distractor1.bmp,1,0,,0,1,83064,501,,0,0,purple,500,2,500,5,vertical,purple,Distractor2.bmp,red,Distractor1.bmp,lime,Target1.bmp,yellow,Distractor1.bmp,blue,Distractor1.bmp,cyan,Distractor2.bmp,,,,TrialProc,,TrainingTrialList,1,1,-999999,1,83565,0,1,477,84042,Target1.bmp,lime,1,,,,3,2,25
KW_Experiment5A,1,1,"<?xml version=""1.0""?>\n<Clock xmlns:dt=""urn:schemas-microsoft-com:datatypes""><Description dt:dt=""string"">E-Prime Primary Realtime Clock</Description><StartTime><Timestamp dt:dt=""int"">0</Timestamp><DateUtc dt:dt=""string"">2018-09-04T13:52:14Z</DateUtc></StartTime><FrequencyChanges><FrequencyChange><Frequency dt:dt=""r8"">3215253</Frequency><Timestamp dt:dt=""r8"">2945820180772</Timestamp><Current dt:dt=""r8"">0</Current><DateUtc dt:dt=""string"">2018-09-04T13:52:14Z</DateUtc></FrequencyChange></FrequencyChanges></Clock>\n",KW_Experiment5A-1-1,59.946,1.0.0.105,1,-526731972,Professional,2.0.10.353,2.0.10.353,9/4/2018,9/4/2018 13:52,9:52:14,2.0.10.248,2,2,1,2,,,,,,,,TrainingProc,BlockList,26,1,Distractor2.bmp,2,0,,0,1,85066,500,,0,0,purple,500,2,500,5,vertical,purple,Distractor2.bmp,red,Distractor1.bmp,blue,Distractor1.bmp,cyan,Distractor2.bmp,lime,Target1.bmp,yellow,Distractor2.bmp,,,,TrialProc,,TrainingTrialList,1,1,-999999,0,85566,0,1,500,86066,Target1.bmp,lime,1,,,,5,2,26
KW_Experiment5A,1,1,"<?xml version=""1.0""?>\n<Clock xmlns:dt=""urn:schemas-microsoft-com:datatypes""><Description dt:dt=""string"">E-Prime Primary Realtime Clock</Description><StartTime><Timestamp dt:dt=""int"">0</Timestamp><DateUtc dt:dt=""string"">2018-09-04T13:52:14Z</DateUtc></StartTime><FrequencyChanges><FrequencyChange><Frequency dt:dt=""r8"">3215253</Frequency><Timestamp dt:dt=""r8"">2945820180772</Timestamp><Current dt:dt=""r8"">0</Current><DateUtc dt:dt=""string"">2018-09-04T13:52:14Z</DateUtc></FrequencyChange></FrequencyChanges></Clock>\n",KW_Experiment5A-1-1,59.946,1.0.0.105,1,-526731972,Professional,2.0.10.353,2.0.10.353,9/4/2018,9/4/2018 13:52,9:52:14,2.0.10.248,2,2,1,2,,,,,,,,TrainingProc,BlockList,27,2,Distractor2.bmp,2,0,,0,1,87085,600,,0,0,blue,600,3,600,3,horizontal,blue,Distractor2.bmp,cyan,Distractor1.bmp,yellow,Distractor2.bmp,purple,Distractor1.bmp,lime,Target2.bmp,red,Distractor2.bmp,,,,TrialProc,,TrainingTrialList,1,2,-999999,0,87685,0,2,469,88154,Target2.bmp,lime,2,,,,5,2,27
KW_Experiment5A,1,1,"<?xml version=""1.0""?>\n<Clock xmlns:dt=""urn:schemas-microsoft-com:datatypes""><Description dt:dt=""string"">E-Prime Primary Realtime Clock</Description><StartTime><Timestamp dt:dt=""int"">0</Timestamp><DateUtc dt:dt=""string"">2018-09-04T13:52:14Z</DateUtc></StartTime><FrequencyChanges><FrequencyChange><Frequency dt:dt=""r8"">3215253</Frequency><Timestamp dt:dt=""r8"">2945820180772</Timestamp><Current dt:dt=""r8"">0</Current><DateUtc dt:dt=""string"">2018-09-04T13:52:14Z</DateUtc></FrequencyChange></FrequencyChanges></Clock>\n",KW_Experiment5A-1-1,59.946,1.0.0.105,1,-526731972,Professional,2.0.10.353,2.0.10.353,9/4/2018,9/4/2018 13:52,9:52:14,2.0.10.248,2,2,1,2,,,,,,,,TrainingProc,BlockList,28,2,Distractor2.bmp,2,0,,0,1,89170,600,,0,0,yellow,600,3,600,2,horizontal,lime,Target2.bmp,yellow,Distractor2.bmp,purple,Distractor2.bmp,red,Distractor2.bmp,cyan,Distractor2.bmp,blue,Distractor1.bmp,,,,TrialProc,,TrainingTrialList,1,2,-999999,0,89770,0,2,440,90210,Target2.bmp,lime,2,,,,1,2,28
KW_Experiment5A,1,1,"<?xml version=""1.0""?>\n<Clock xmlns:dt=""urn:schemas-microsoft-com:datatypes""><Description dt:dt=""string"">E-Prime Primary Realtime Clock</Description><StartTime><Timestamp dt:dt=""int"">0</Timestamp><DateUtc dt:dt=""string"">2018-09-04T13:52:14Z</DateUtc></StartTime><FrequencyChanges><FrequencyChange><Frequency dt:dt=""r8"">3215253</Frequency><Timestamp dt:dt=""r8"">2945820180772</Timestamp><Current dt:dt=""r8"">0</Current><DateUtc dt:dt=""string"">2018-09-04T13:52:14Z</DateUtc></FrequencyChange></FrequencyChanges></Clock>\n",KW_Experiment5A-1-1,59.946,1.0.0.105,1,-526731972,Professional,2.0.10.353,2.0.10.353,9/4/2018,9/4/2018 13:52,9:52:14,2.0.10.248,2,2,1,2,,,,,,,,TrainingProc,BlockList,29,1,Distractor1.bmp,1,0,,0,1,91222,500,,0,0,cyan,500,2,500,4,vertical,cyan,Distractor1.bmp,blue,Distractor2.bmp,yellow,Distractor2.bmp,lime,Target1.bmp,red,Distractor1.bmp,purple,Distractor1.bmp,,,,TrialProc,,TrainingTrialList,1,1,-999999,0,91722,0,1,408,92130,Target1.bmp,lime,1,,,,4,2,29
KW_Experiment5A,1,1,"<?xml version=""1.0""?>\n<Clock xmlns:dt=""urn:schemas-microsoft-com:datatypes""><Description dt:dt=""string"">E-Prime Primary Realtime Clock</Description><StartTime><Timestamp dt:dt=""int"">0</Timestamp><DateUtc dt:dt=""string"">2018-09-04T13:52:14Z</DateUtc></StartTime><FrequencyChanges><FrequencyChange><Frequency dt:dt=""r8"">3215253</Frequency><Timestamp dt:dt=""r8"">2945820180772</Timestamp><Current dt:dt=""r8"">0</Current><DateUtc dt:dt=""string"">2018-09-04T13:52:14Z</DateUtc></FrequencyChange></FrequencyChanges></Clock>\n",KW_Experiment5A-1-1,59.946,1.0.0.105,1,-526731972,Professional,2.0.10.353,2.0.10.353,9/4/2018,9/4/2018 13:52,9:52:14,2.0.10.248,2,2,1,2,,,,,,,,TrainingProc,BlockList,30,1,Distractor2.bmp,2,0,,0,1,93140,400,,0,0,blue,400,1,400,3,vertical,lime,Target1.bmp,blue,Distractor2.bmp,purple,Distractor1.bmp,red,Distractor2.bmp,cyan,Distractor1.bmp,yellow,Distractor1.bmp,,,,TrialProc,,TrainingTrialList,1,1,-999999,0,93540,0,1,438,93978,Target1.bmp,lime,1,,,,1,2,30
KW_Experiment5A,1,1,"<?xml version=""1.0""?>\n<Clock xmlns:dt=""urn:schemas-microsoft-com:datatypes""><Description dt:dt=""string"">E-Prime Primary Realtime Clock</Description><StartTime><Timestamp dt:dt=""int"">0</Timestamp><DateUtc dt:dt=""string"">2018-09-04T13:52:14Z</DateUtc></StartTime><FrequencyChanges><FrequencyChange><Frequency dt:dt=""r8"">3215253</Frequency><Timestamp dt:dt=""r8"">2945820180772</Timestamp><Current dt:dt=""r8"">0</Current><DateUtc dt:dt=""string"">2018-09-04T13:52:14Z</DateUtc></FrequencyChange></FrequencyChanges></Clock>\n",KW_Experiment5A-1-1,59.946,1.0.0.105,1,-526731972,Professional,2.0.10.353,2.0.10.353,9/4/2018,9/4/2018 13:52,9:52:14,2.0.10.248,2,2,1,2,,,,,,,,TrainingProc,BlockList,31,2,Distractor2.bmp,2,0,,0,1,94992,600,,0,0,purple,600,3,600,5,horizontal,purple,Distractor2.bmp,yellow,Distractor1.bmp,red,Distractor1.bmp,lime,Target2.bmp,blue,Distractor2.bmp,cyan,Distractor1.bmp,,,,TrialProc,,TrainingTrialList,1,2,-999999,0,95592,0,2,434,96026,Target2.bmp,lime,2,,,,4,2,31
KW_Experiment5A,1,1,"<?xml version=""1.0""?>\n<Clock xmlns:dt=""urn:schemas-microsoft-com:datatypes""><Description dt:dt=""string"">E-Prime Primary Realtime Clock</Description><StartTime><Timestamp dt:dt=""int"">0</Timestamp><DateUtc dt:dt=""string"">2018-09-04T13:52:14Z</DateUtc></StartTime><FrequencyChanges><FrequencyChange><Frequency dt:dt=""r8"">3215253</Frequency><Timestamp dt:dt=""r8"">2945820180772</Timestamp><Current dt:dt=""r8"">0</Current><DateUtc dt:dt=""string"">2018-09-04T13:52:14Z</DateUtc></FrequencyChange></FrequencyChanges></Clock>\n",KW_Experiment5A-1-1,59.946,1.0.0.105,1,-526731972,Professional,2.0.10.353,2.0.10.353,9/4/2018,9/4/2018 13:52,9:52:14,2.0.10.248,2,2,1,2,,,,,,,,TrainingProc,BlockList,32,2,Distractor1.bmp,1,0,,0,1,97044,400,,0,0,red,400,1,400,1,horizontal,red,Distractor1.bmp,lime,Target2.bmp,blue,Distractor1.bmp,purple,Distractor2.bmp,cyan,Distractor2.bmp,yellow,Distractor2.bmp,,,,TrialProc,,TrainingTrialList,1,2,-999999,0,97444,0,2,374,97818,Target2.bmp,lime,2,,,,2,2,32
KW_Experiment5A,1,1,"<?xml version=""1.0""?>\n<Clock xmlns:dt=""urn:schemas-microsoft-com:datatypes""><Description dt:dt=""string"">E-Prime Primary Realtime Clock</Description><StartTime><Timestamp dt:dt=""int"">0</Timestamp><DateUtc dt:dt=""string"">2018-09-04T13:52:14Z</DateUtc></StartTime><FrequencyChanges><FrequencyChange><Frequency dt:dt=""r8"">3215253</Frequency><Timestamp dt:dt=""r8"">2945820180772</Timestamp><Current dt:dt=""r8"">0</Current><DateUtc dt:dt=""string"">2018-09-04T13:52:14Z</DateUtc></FrequencyChange></FrequencyChanges></Clock>\n",KW_Experiment5A-1-1,59.946,1.0.0.105,1,-526731972,Professional,2.0.10.353,2.0.10.353,9/4/2018,9/4/2018 13:52,9:52:14,2.0.10.248,2,2,1,2,,,,,,,,TrainingProc,BlockList,33,1,Distractor2.bmp,2,0,,0,1,98829,600,,0,0,yellow,600,3,600,,vertical,yellow,Distractor2.bmp,red,Target1.bmp,blue,Distractor2.bmp,purple,Distractor1.bmp,cyan,Distractor2.bmp,lime,Distractor2.bmp,,,,TrialProc,2,TrainingTrialList,1,1,-999999,0,99429,0,1,525,99954,Target1.bmp,red,1,,,,8,2,33
KW_Experiment5A,1,1,"<?xml version=""1.0""?>\n<Clock xmlns:dt=""urn:schemas-microsoft-com:datatypes""><Description dt:dt=""string"">E-Prime Primary Realtime Clock</Description><StartTime><Timestamp dt:dt=""int"">0</Timestamp><DateUtc dt:dt=""string"">2018-09-04T13:52:14Z</DateUtc></StartTime><FrequencyChanges><FrequencyChange><Frequency dt:dt=""r8"">3215253</Frequency><Timestamp dt:dt=""r8"">2945820180772</Timestamp><Current dt:dt=""r8"">0</Current><DateUtc dt:dt=""string"">2018-09-04T13:52:14Z</DateUtc></FrequencyChange></FrequencyChanges></Clock>\n",KW_Experiment5A-1-1,59.946,1.0.0.105,1,-526731972,Professional,2.0.10.353,2.0.10.353,9/4/2018,9/4/2018 13:52,9:52:14,2.0.10.248,2,2,1,2,,,,,,,,TrainingProc,BlockList,34,2,Distractor2.bmp,2,0,,0,1,100964,601,,0,0,red,600,3,600,1,horizontal,red,Distractor2.bmp,lime,Target2.bmp,yellow,Distractor2.bmp,blue,Distractor1.bmp,cyan,Distractor1.bmp,purple,Distractor1.bmp,,,,TrialProc,,TrainingTrialList,1,2,-999999,1,101565,0,2,357,101922,Target2.bmp,lime,2,,,,2,2,34
KW_Experiment5A,1,1,"<?xml version=""1.0""?>\n<Clock xmlns:dt=""urn:schemas-microsoft-com:datatypes""><Description dt:dt=""string"">E-Prime Primary Realtime Clock</Description><StartTime><Timestamp dt:dt=""int"">0</Timestamp><DateUtc dt:dt=""string"">2018-09-04T13:52:14Z</DateUtc></StartTime><FrequencyChanges><FrequencyChange><Frequency dt:dt=""r8"">3215253</Frequency><Timestamp dt:dt=""r8"">2945820180772</Timestamp><Current dt:dt=""r8"">0</Current><DateUtc dt:dt=""string"">2018-09-04T13:52:14Z</DateUtc></FrequencyChange></FrequencyChanges></Clock>\n",KW_Experiment5A-1-1,59.946,1.0.0.105,1,-526731972,Professional,2.0.10.353,2.0.10.353,9/4/2018,9/4/2018 13:52,9:52:14,2.0.10.248,2,2,1,2,,,,,,,,TrainingProc,BlockList,35,2,Distractor2.bmp,2,0,,1,0,102932,401,,0,0,purple,400,1,400,5,horizontal,purple,Distractor2.bmp,blue,Distractor1.bmp,yellow,Distractor1.bmp,cyan,Distractor1.bmp,red,Distractor2.bmp,lime,Target2.bmp,,,,TrialProc,,TrainingTrialList,1,2,-999999,1,103333,0,2,509,103842,Target2.bmp,lime,2,,,,6,2,35
KW_Experiment5A,1,1,"<?xml version=""1.0""?>\n<Clock xmlns:dt=""urn:schemas-microsoft-com:datatypes""><Description dt:dt=""string"">E-Prime Primary Realtime Clock</Description><StartTime><Timestamp dt:dt=""int"">0</Timestamp><DateUtc dt:dt=""string"">2018-09-04T13:52:14Z</DateUtc></StartTime><FrequencyChanges><FrequencyChange><Frequency dt:dt=""r8"">3215253</Frequency><Timestamp dt:dt=""r8"">2945820180772</Timestamp><Current dt:dt=""r8"">0</Current><DateUtc dt:dt=""string"">2018-09-04T13:52:14Z</DateUtc></FrequencyChange></FrequencyChanges></Clock>\n",KW_Experiment5A-1-1,59.946,1.0.0.105,1,-526731972,Professional,2.0.10.353,2.0.10.353,9/4/2018,9/4/2018 13:52,9:52:14,2.0.10.248,2,2,1,2,,,,,,,,TrainingProc,BlockList,36,1,Distractor1.bmp,1,0,,0,1,104851,600,,0,0,cyan,600,3,600,,vertical,red,Target1.bmp,purple,Distractor1.bmp,blue,Distractor2.bmp,lime,Distractor1.bmp,yellow,Distractor2.bmp,cyan,Distractor1.bmp,,,,TrialProc,4,TrainingTrialList,1,1,-999999,0,105451,0,1,559,106010,Target1.bmp,red,1,,,,7,2,36
KW_Experiment5A,1,1,"<?xml version=""1.0""?>\n<Clock xmlns:dt=""urn:schemas-microsoft-com:datatypes""><Description dt:dt=""string"">E-Prime Primary Realtime Clock</Description><StartTime><Timestamp dt:dt=""int"">0</Timestamp><DateUtc dt:dt=""string"">2018-09-04T13:52:14Z</DateUtc></StartTime><FrequencyChanges><FrequencyChange><Frequency dt:dt=""r8"">3215253</Frequency><Timestamp dt:dt=""r8"">2945820180772</Timestamp><Current dt:dt=""r8"">0</Current><DateUtc dt:dt=""string"">2018-09-04T13:52:14Z</DateUtc></FrequencyChange></FrequencyChanges></Clock>\n",KW_Experiment5A-1-1,59.946,1.0.0.105,1,-526731972,Professional,2.0.10.353,2.0.10.353,9/4/2018,9/4/2018 13:52,9:52:14,2.0.10.248,2,2,1,2,,,,,,,,TrainingProc,BlockList,37,2,Distractor1.bmp,1,0,,0,1,107020,400,,0,0,blue,400,1,400,,horizontal,blue,Distractor1.bmp,purple,Distractor2.bmp,cyan,Distractor2.bmp,yellow,Distractor2.bmp,lime,Distractor1.bmp,red,Target2.bmp,,,,TrialProc,3,TrainingTrialList,1,2,-999999,0,107420,0,2,550,107970,Target2.bmp,red,2,,,,12,2,37
KW_Experiment5A,1,1,"<?xml version=""1.0""?>\n<Clock xmlns:dt=""urn:schemas-microsoft-com:datatypes""><Description dt:dt=""string"">E-Prime Primary Realtime Clock</Description><StartTime><Timestamp dt:dt=""int"">0</Timestamp><DateUtc dt:dt=""string"">2018-09-04T13:52:14Z</DateUtc></StartTime><FrequencyChanges><FrequencyChange><Frequency dt:dt=""r8"">3215253</Frequency><Timestamp dt:dt=""r8"">2945820180772</Timestamp><Current dt:dt=""r8"">0</Current><DateUtc dt:dt=""string"">2018-09-04T13:52:14Z</DateUtc></FrequencyChange></FrequencyChanges></Clock>\n",KW_Experiment5A-1-1,59.946,1.0.0.105,1,-526731972,Professional,2.0.10.353,2.0.10.353,9/4/2018,9/4/2018 13:52,9:52:14,2.0.10.248,2,2,1,2,,,,,,,,TrainingProc,BlockList,38,2,Distractor1.bmp,1,0,,0,1,108988,601,,0,0,red,600,3,600,1,horizontal,red,Distractor2.bmp,cyan,Distractor2.bmp,lime,Target2.bmp,yellow,Distractor1.bmp,blue,Distractor2.bmp,purple,Distractor2.bmp,,,,TrialProc,,TrainingTrialList,1,2,-999999,1,109589,0,2,429,110018,Target2.bmp,lime,2,,,,3,2,38
KW_Experiment5A,1,1,"<?xml version=""1.0""?>\n<Clock xmlns:dt=""urn:schemas-microsoft-com:datatypes""><Description dt:dt=""string"">E-Prime Primary Realtime Clock</Description><StartTime><Timestamp dt:dt=""int"">0</Timestamp><DateUtc dt:dt=""string"">2018-09-04T13:52:14Z</DateUtc></StartTime><FrequencyChanges><FrequencyChange><Frequency dt:dt=""r8"">3215253</Frequency><Timestamp dt:dt=""r8"">2945820180772</Timestamp><Current dt:dt=""r8"">0</Current><DateUtc dt:dt=""string"">2018-09-04T13:52:14Z</DateUtc></FrequencyChange></FrequencyChanges></Clock>\n",KW_Experiment5A-1-1,59.946,1.0.0.105,1,-526731972,Professional,2.0.10.353,2.0.10.353,9/4/2018,9/4/2018 13:52,9:52:14,2.0.10.248,2,2,1,2,,,,,,,,TrainingProc,BlockList,39,2,Distractor2.bmp,2,0,,0,1,111040,500,,0,0,blue,500,2,500,3,horizontal,blue,Distractor1.bmp,yellow,Distractor2.bmp,lime,Target2.bmp,purple,Distractor2.bmp,red,Distractor2.bmp,cyan,Distractor2.bmp,,,,TrialProc,,TrainingTrialList,1,2,-999999,0,111540,0,2,454,111994,Target2.bmp,lime,2,,,,3,2,39
KW_Experiment5A,1,1,"<?xml version=""1.0""?>\n<Clock xmlns:dt=""urn:schemas-microsoft-com:datatypes""><Description dt:dt=""string"">E-Prime Primary Realtime Clock</Description><StartTime><Timestamp dt:dt=""int"">0</Timestamp><DateUtc dt:dt=""string"">2018-09-04T13:52:14Z</DateUtc></StartTime><FrequencyChanges><FrequencyChange><Frequency dt:dt=""r8"">3215253</Frequency><Timestamp dt:dt=""r8"">2945820180772</Timestamp><Current dt:dt=""r8"">0</Current><DateUtc dt:dt=""string"">2018-09-04T13:52:14Z</DateUtc></FrequencyChange></FrequencyChanges></Clock>\n",KW_Experiment5A-1-1,59.946,1.0.0.105,1,-526731972,Professional,2.0.10.353,2.0.10.353,9/4/2018,9/4/2018 13:52,9:52:14,2.0.10.248,2,2,1,2,,,,,,,,TrainingProc,BlockList,40,1,Distractor1.bmp,1,0,,0,1,113008,501,,0,0,purple,500,2,500,5,vertical,purple,Distractor1.bmp,yellow,Distractor1.bmp,red,Distractor1.bmp,cyan,Distractor1.bmp,blue,Distractor2.bmp,lime,Target1.bmp,,,,TrialProc,,TrainingTrialList,1,1,-999999,1,113509,0,1,397,113906,Target1.bmp,lime,1,,,,6,2,40
KW_Experiment5A,1,1,"<?xml version=""1.0""?>\n<Clock xmlns:dt=""urn:schemas-microsoft-com:datatypes""><Description dt:dt=""string"">E-Prime Primary Realtime Clock</Description><StartTime><Timestamp dt:dt=""int"">0</Timestamp><DateUtc dt:dt=""string"">2018-09-04T13:52:14Z</DateUtc></StartTime><FrequencyChanges><FrequencyChange><Frequency dt:dt=""r8"">3215253</Frequency><Timestamp dt:dt=""r8"">2945820180772</Timestamp><Current dt:dt=""r8"">0</Current><DateUtc dt:dt=""string"">2018-09-04T13:52:14Z</DateUtc></FrequencyChange></FrequencyChanges></Clock>\n",KW_Experiment5A-1-1,59.946,1.0.0.105,1,-526731972,Professional,2.0.10.353,2.0.10.353,9/4/2018,9/4/2018 13:52,9:52:14,2.0.10.248,2,2,1,2,,,,,,,,TrainingProc,BlockList,41,1,Distractor1.bmp,1,0,,0,1,114927,600,,0,0,purple,600,3,600,5,vertical,purple,Distractor2.bmp,cyan,Distractor2.bmp,yellow,Distractor2.bmp,lime,Target1.bmp,red,Distractor1.bmp,blue,Distractor1.bmp,,,,TrialProc,,TrainingTrialList,1,1,-999999,0,115527,0,1,491,116018,Target1.bmp,lime,1,,,,4,2,41
KW_Experiment5A,1,1,"<?xml version=""1.0""?>\n<Clock xmlns:dt=""urn:schemas-microsoft-com:datatypes""><Description dt:dt=""string"">E-Prime Primary Realtime Clock</Description><StartTime><Timestamp dt:dt=""int"">0</Timestamp><DateUtc dt:dt=""string"">2018-09-04T13:52:14Z</DateUtc></StartTime><FrequencyChanges><FrequencyChange><Frequency dt:dt=""r8"">3215253</Frequency><Timestamp dt:dt=""r8"">2945820180772</Timestamp><Current dt:dt=""r8"">0</Current><DateUtc dt:dt=""string"">2018-09-04T13:52:14Z</DateUtc></FrequencyChange></FrequencyChanges></Clock>\n",KW_Experiment5A-1-1,59.946,1.0.0.105,1,-526731972,Professional,2.0.10.353,2.0.10.353,9/4/2018,9/4/2018 13:52,9:52:14,2.0.10.248,2,2,1,2,,,,,,,,TrainingProc,BlockList,42,2,Distractor2.bmp,2,0,,0,1,117029,500,,0,0,purple,500,2,500,5,horizontal,purple,Distractor1.bmp,cyan,Distractor2.bmp,blue,Distractor1.bmp,red,Distractor2.bmp,lime,Target2.bmp,yellow,Distractor2.bmp,,,,TrialProc,,TrainingTrialList,1,2,-999999,0,117529,0,2,377,117906,Target2.bmp,lime,2,,,,5,2,42
KW_Experiment5A,1,1,"<?xml version=""1.0""?>\n<Clock xmlns:dt=""urn:schemas-microsoft-com:datatypes""><Description dt:dt=""string"">E-Prime Primary Realtime Clock</Description><StartTime><Timestamp dt:dt=""int"">0</Timestamp><DateUtc dt:dt=""string"">2018-09-04T13:52:14Z</DateUtc></StartTime><FrequencyChanges><FrequencyChange><Frequency dt:dt=""r8"">3215253</Frequency><Timestamp dt:dt=""r8"">2945820180772</Timestamp><Current dt:dt=""r8"">0</Current><DateUtc dt:dt=""string"">2018-09-04T13:52:14Z</DateUtc></FrequencyChange></FrequencyChanges></Clock>\n",KW_Experiment5A-1-1,59.946,1.0.0.105,1,-526731972,Professional,2.0.10.353,2.0.10.353,9/4/2018,9/4/2018 13:52,9:52:14,2.0.10.248,2,2,1,2,,,,,,,,TrainingProc,BlockList,43,2,Distractor1.bmp,1,0,,0,1,118931,600,,0,0,red,600,3,600,1,horizontal,red,Distractor2.bmp,lime,Target2.bmp,purple,Distractor1.bmp,cyan,Distractor2.bmp,yellow,Distractor1.bmp,blue,Distractor2.bmp,,,,TrialProc,,TrainingTrialList,1,2,-999999,0,119531,0,2,415,119946,Target2.bmp,lime,2,,,,2,2,43
KW_Experiment5A,1,1,"<?xml version=""1.0""?>\n<Clock xmlns:dt=""urn:schemas-microsoft-com:datatypes""><Description dt:dt=""string"">E-Prime Primary Realtime Clock</Description><StartTime><Timestamp dt:dt=""int"">0</Timestamp><DateUtc dt:dt=""string"">2018-09-04T13:52:14Z</DateUtc></StartTime><FrequencyChanges><FrequencyChange><Frequency dt:dt=""r8"">3215253</Frequency><Timestamp dt:dt=""r8"">2945820180772</Timestamp><Current dt:dt=""r8"">0</Current><DateUtc dt:dt=""string"">2018-09-04T13:52:14Z</DateUtc></FrequencyChange></FrequencyChanges></Clock>\n",KW_Experiment5A-1-1,59.946,1.0.0.105,1,-526731972,Professional,2.0.10.353,2.0.10.353,9/4/2018,9/4/2018 13:52,9:52:14,2.0.10.248,2,2,1,2,,,,,,,,TrainingProc,BlockList,44,1,Distractor2.bmp,2,0,,0,1,120966,500,,0,0,yellow,500,2,500,,vertical,yellow,Distractor2.bmp,purple,Distractor2.bmp,blue,Distractor1.bmp,lime,Distractor1.bmp,red,Target1.bmp,cyan,Distractor2.bmp,,,,TrialProc,2,TrainingTrialList,1,1,-999999,0,121466,0,1,504,121970,Target1.bmp,red,1,,,,11,2,44
KW_Experiment5A,1,1,"<?xml version=""1.0""?>\n<Clock xmlns:dt=""urn:schemas-microsoft-com:datatypes""><Description dt:dt=""string"">E-Prime Primary Realtime Clock</Description><StartTime><Timestamp dt:dt=""int"">0</Timestamp><DateUtc dt:dt=""string"">2018-09-04T13:52:14Z</DateUtc></StartTime><FrequencyChanges><FrequencyChange><Frequency dt:dt=""r8"">3215253</Frequency><Timestamp dt:dt=""r8"">2945820180772</Timestamp><Current dt:dt=""r8"">0</Current><DateUtc dt:dt=""string"">2018-09-04T13:52:14Z</DateUtc></FrequencyChange></FrequencyChanges></Clock>\n",KW_Experiment5A-1-1,59.946,1.0.0.105,1,-526731972,Professional,2.0.10.353,2.0.10.353,9/4/2018,9/4/2018 13:52,9:52:14,2.0.10.248,2,2,1,2,,,,,,,,TrainingProc,BlockList,45,2,Distractor2.bmp,2,0,,0,1,122984,601,,0,0,yellow,600,3,600,,horizontal,yellow,Distractor1.bmp,blue,Distractor2.bmp,red,Target2.bmp,lime,Distractor2.bmp,cyan,Distractor1.bmp,purple,Distractor1.bmp,,,,TrialProc,2,TrainingTrialList,1,2,-999999,1,123585,0,2,409,123994,Target2.bmp,red,2,,,,9,2,45
KW_Experiment5A,1,1,"<?xml version=""1.0""?>\n<Clock xmlns:dt=""urn:schemas-microsoft-com:datatypes""><Description dt:dt=""string"">E-Prime Primary Realtime Clock</Description><StartTime><Timestamp dt:dt=""int"">0</Timestamp><DateUtc dt:dt=""string"">2018-09-04T13:52:14Z</DateUtc></StartTime><FrequencyChanges><FrequencyChange><Frequency dt:dt=""r8"">3215253</Frequency><Timestamp dt:dt=""r8"">2945820180772</Timestamp><Current dt:dt=""r8"">0</Current><DateUtc dt:dt=""string"">2018-09-04T13:52:14Z</DateUtc></FrequencyChange></FrequencyChanges></Clock>\n",KW_Experiment5A-1-1,59.946,1.0.0.105,1,-526731972,Professional,2.0.10.353,2.0.10.353,9/4/2018,9/4/2018 13:52,9:52:14,2.0.10.248,2,2,1,2,,,,,,,,TrainingProc,BlockList,46,1,Distractor2.bmp,2,0,,1,0,125019,501,,0,0,cyan,500,2,500,4,vertical,lime,Target1.bmp,cyan,Distractor2.bmp,yellow,Distractor2.bmp,blue,Distractor1.bmp,red,Distractor1.bmp,purple,Distractor1.bmp,,,,TrialProc,,TrainingTrialList,1,1,-999999,1,125520,0,1,546,126066,Target1.bmp,lime,1,,,,1,2,46
KW_Experiment5A,1,1,"<?xml version=""1.0""?>\n<Clock xmlns:dt=""urn:schemas-microsoft-com:datatypes""><Description dt:dt=""string"">E-Prime Primary Realtime Clock</Description><StartTime><Timestamp dt:dt=""int"">0</Timestamp><DateUtc dt:dt=""string"">2018-09-04T13:52:14Z</DateUtc></StartTime><FrequencyChanges><FrequencyChange><Frequency dt:dt=""r8"">3215253</Frequency><Timestamp dt:dt=""r8"">2945820180772</Timestamp><Current dt:dt=""r8"">0</Current><DateUtc dt:dt=""string"">2018-09-04T13:52:14Z</DateUtc></FrequencyChange></FrequencyChanges></Clock>\n",KW_Experiment5A-1-1,59.946,1.0.0.105,1,-526731972,Professional,2.0.10.353,2.0.10.353,9/4/2018,9/4/2018 13:52,9:52:14,2.0.10.248,2,2,1,2,,,,,,,,TrainingProc,BlockList,47,1,Distractor2.bmp,2,0,,0,1,127088,601,,0,0,cyan,600,3,600,,vertical,cyan,Distractor1.bmp,yellow,Distractor1.bmp,blue,Distractor2.bmp,red,Target1.bmp,purple,Distractor2.bmp,lime,Distractor2.bmp,,,,TrialProc,4,TrainingTrialList,1,1,-999999,1,127689,0,1,585,128274,Target1.bmp,red,1,,,,10,2,47
KW_Experiment5A,1,1,"<?xml version=""1.0""?>\n<Clock xmlns:dt=""urn:schemas-microsoft-com:datatypes""><Description dt:dt=""string"">E-Prime Primary Realtime Clock</Description><StartTime><Timestamp dt:dt=""int"">0</Timestamp><DateUtc dt:dt=""string"">2018-09-04T13:52:14Z</DateUtc></StartTime><FrequencyChanges><FrequencyChange><Frequency dt:dt=""r8"">3215253</Frequency><Timestamp dt:dt=""r8"">2945820180772</Timestamp><Current dt:dt=""r8"">0</Current><DateUtc dt:dt=""string"">2018-09-04T13:52:14Z</DateUtc></FrequencyChange></FrequencyChanges></Clock>\n",KW_Experiment5A-1-1,59.946,1.0.0.105,1,-526731972,Professional,2.0.10.353,2.0.10.353,9/4/2018,9/4/2018 13:52,9:52:14,2.0.10.248,2,2,1,2,,,,,,,,TrainingProc,BlockList,48,1,Distractor2.bmp,2,0,,0,1,129290,400,,0,0,red,400,1,400,1,vertical,red,Distractor2.bmp,cyan,Distractor1.bmp,yellow,Distractor2.bmp,purple,Distractor2.bmp,blue,Distractor1.bmp,lime,Target1.bmp,,,,TrialProc,,TrainingTrialList,1,1,-999999,0,129690,0,1,400,130090,Target1.bmp,lime,1,,,,6,2,48
KW_Experiment5A,1,1,"<?xml version=""1.0""?>\n<Clock xmlns:dt=""urn:schemas-microsoft-com:datatypes""><Description dt:dt=""string"">E-Prime Primary Realtime Clock</Description><StartTime><Timestamp dt:dt=""int"">0</Timestamp><DateUtc dt:dt=""string"">2018-09-04T13:52:14Z</DateUtc></StartTime><FrequencyChanges><FrequencyChange><Frequency dt:dt=""r8"">3215253</Frequency><Timestamp dt:dt=""r8"">2945820180772</Timestamp><Current dt:dt=""r8"">0</Current><DateUtc dt:dt=""string"">2018-09-04T13:52:14Z</DateUtc></FrequencyChange></FrequencyChanges></Clock>\n",KW_Experiment5A-1-1,59.946,1.0.0.105,1,-526731972,Professional,2.0.10.353,2.0.10.353,9/4/2018,9/4/2018 13:52,9:52:14,2.0.10.248,3,2,1,3,,,,,,,,TrainingProc,BlockList,1,2,Distractor1.bmp,1,0,,0,29,134111,601,,0,0,lime,600,3,600,,horizontal,lime,Distractor1.bmp,cyan,Distractor2.bmp,blue,Distractor2.bmp,purple,Distractor2.bmp,red,Target2.bmp,yellow,Distractor1.bmp,,,,TrialProc,6,TrainingTrialList,1,2,-999999,1,134712,0,2,529,135241,Target2.bmp,red,2,,,,11,3,49
KW_Experiment5A,1,1,"<?xml version=""1.0""?>\n<Clock xmlns:dt=""urn:schemas-microsoft-com:datatypes""><Description dt:dt=""string"">E-Prime Primary Realtime Clock</Description><StartTime><Timestamp dt:dt=""int"">0</Timestamp><DateUtc dt:dt=""string"">2018-09-04T13:52:14Z</DateUtc></StartTime><FrequencyChanges><FrequencyChange><Frequency dt:dt=""r8"">3215253</Frequency><Timestamp dt:dt=""r8"">2945820180772</Timestamp><Current dt:dt=""r8"">0</Current><DateUtc dt:dt=""string"">2018-09-04T13:52:14Z</DateUtc></FrequencyChange></FrequencyChanges></Clock>\n",KW_Experiment5A-1-1,59.946,1.0.0.105,1,-526731972,Professional,2.0.10.353,2.0.10.353,9/4/2018,9/4/2018 13:52,9:52:14,2.0.10.248,3,2,1,3,,,,,,,,TrainingProc,BlockList,2,2,Distractor2.bmp,2,0,,0,1,136263,601,,0,0,purple,600,3,600,5,horizontal,purple,Distractor1.bmp,yellow,Distractor1.bmp,red,Distractor2.bmp,lime,Target2.bmp,blue,Distractor2.bmp,cyan,Distractor1.bmp,,,,TrialProc,,TrainingTrialList,1,2,-999999,1,136864,0,2,529,137393,Target2.bmp,lime,2,,,,4,3,50
KW_Experiment5A,1,1,"<?xml version=""1.0""?>\n<Clock xmlns:dt=""urn:schemas-microsoft-com:datatypes""><Description dt:dt=""string"">E-Prime Primary Realtime Clock</Description><StartTime><Timestamp dt:dt=""int"">0</Timestamp><DateUtc dt:dt=""string"">2018-09-04T13:52:14Z</DateUtc></StartTime><FrequencyChanges><FrequencyChange><Frequency dt:dt=""r8"">3215253</Frequency><Timestamp dt:dt=""r8"">2945820180772</Timestamp><Current dt:dt=""r8"">0</Current><DateUtc dt:dt=""string"">2018-09-04T13:52:14Z</DateUtc></FrequencyChange></FrequencyChanges></Clock>\n",KW_Experiment5A-1-1,59.946,1.0.0.105,1,-526731972,Professional,2.0.10.353,2.0.10.353,9/4/2018,9/4/2018 13:52,9:52:14,2.0.10.248,3,2,1,3,,,,,,,,TrainingProc,BlockList,3,1,Distractor2.bmp,2,0,,0,1,138415,501,,0,0,lime,500,2,500,,vertical,lime,Distractor1.bmp,blue,Distractor2.bmp,red,Target1.bmp,purple,Distractor2.bmp,cyan,Distractor1.bmp,yellow,Distractor1.bmp,,,,TrialProc,6,TrainingTrialList,1,1,-999999,1,138916,0,1,477,139393,Target1.bmp,red,1,,,,9,3,51
KW_Experiment5A,1,1,"<?xml version=""1.0""?>\n<Clock xmlns:dt=""urn:schemas-microsoft-com:datatypes""><Description dt:dt=""string"">E-Prime Primary Realtime Clock</Description><StartTime><Timestamp dt:dt=""int"">0</Timestamp><DateUtc dt:dt=""string"">2018-09-04T13:52:14Z</DateUtc></StartTime><FrequencyChanges><FrequencyChange><Frequency dt:dt=""r8"">3215253</Frequency><Timestamp dt:dt=""r8"">2945820180772</Timestamp><Current dt:dt=""r8"">0</Current><DateUtc dt:dt=""string"">2018-09-04T13:52:14Z</DateUtc></FrequencyChange></FrequencyChanges></Clock>\n",KW_Experiment5A-1-1,59.946,1.0.0.105,1,-526731972,Professional,2.0.10.353,2.0.10.353,9/4/2018,9/4/2018 13:52,9:52:14,2.0.10.248,3,2,1,3,,,,,,,,TrainingProc,BlockList,4,1,Distractor1.bmp,1,0,,0,1,140417,500,,0,0,red,500,2,500,1,vertical,lime,Target1.bmp,red,Distractor1.bmp,blue,Distractor1.bmp,yellow,Distractor1.bmp,cyan,Distractor1.bmp,purple,Distractor1.bmp,,,,TrialProc,,TrainingTrialList,1,1,-999999,0,140917,0,1,492,141409,Target1.bmp,lime,1,,,,1,3,52
KW_Experiment5A,1,1,"<?xml version=""1.0""?>\n<Clock xmlns:dt=""urn:schemas-microsoft-com:datatypes""><Description dt:dt=""string"">E-Prime Primary Realtime Clock</Description><StartTime><Timestamp dt:dt=""int"">0</Timestamp><DateUtc dt:dt=""string"">2018-09-04T13:52:14Z</DateUtc></StartTime><FrequencyChanges><FrequencyChange><Frequency dt:dt=""r8"">3215253</Frequency><Timestamp dt:dt=""r8"">2945820180772</Timestamp><Current dt:dt=""r8"">0</Current><DateUtc dt:dt=""string"">2018-09-04T13:52:14Z</DateUtc></FrequencyChange></FrequencyChanges></Clock>\n",KW_Experiment5A-1-1,59.946,1.0.0.105,1,-526731972,Professional,2.0.10.353,2.0.10.353,9/4/2018,9/4/2018 13:52,9:52:14,2.0.10.248,3,2,1,3,,,,,,,,TrainingProc,BlockList,5,2,Distractor1.bmp,1,0,,0,1,142419,400,,0,0,blue,400,1,400,3,horizontal,blue,Distractor1.bmp,lime,Target2.bmp,purple,Distractor1.bmp,red,Distractor1.bmp,cyan,Distractor1.bmp,yellow,Distractor2.bmp,,,,TrialProc,,TrainingTrialList,1,2,-999999,0,142819,0,2,398,143217,Target2.bmp,lime,2,,,,2,3,53
KW_Experiment5A,1,1,"<?xml version=""1.0""?>\n<Clock xmlns:dt=""urn:schemas-microsoft-com:datatypes""><Description dt:dt=""string"">E-Prime Primary Realtime Clock</Description><StartTime><Timestamp dt:dt=""int"">0</Timestamp><DateUtc dt:dt=""string"">2018-09-04T13:52:14Z</DateUtc></StartTime><FrequencyChanges><FrequencyChange><Frequency dt:dt=""r8"">3215253</Frequency><Timestamp dt:dt=""r8"">2945820180772</Timestamp><Current dt:dt=""r8"">0</Current><DateUtc dt:dt=""string"">2018-09-04T13:52:14Z</DateUtc></FrequencyChange></FrequencyChanges></Clock>\n",KW_Experiment5A-1-1,59.946,1.0.0.105,1,-526731972,Professional,2.0.10.353,2.0.10.353,9/4/2018,9/4/2018 13:52,9:52:14,2.0.10.248,3,2,1,3,,,,,,,,TrainingProc,BlockList,6,2,Distractor2.bmp,2,0,,0,1,144237,601,,0,0,cyan,600,3,600,4,horizontal,lime,Target2.bmp,cyan,Distractor2.bmp,red,Distractor1.bmp,yellow,Distractor1.bmp,blue,Distractor1.bmp,purple,Distractor2.bmp,,,,TrialProc,,TrainingTrialList,1,2,-999999,1,144838,0,2,443,145281,Target2.bmp,lime,2,,,,1,3,54
KW_Experiment5A,1,1,"<?xml version=""1.0""?>\n<Clock xmlns:dt=""urn:schemas-microsoft-com:datatypes""><Description dt:dt=""string"">E-Prime Primary Realtime Clock</Description><StartTime><Timestamp dt:dt=""int"">0</Timestamp><DateUtc dt:dt=""string"">2018-09-04T13:52:14Z</DateUtc></StartTime><FrequencyChanges><FrequencyChange><Frequency dt:dt=""r8"">3215253</Frequency><Timestamp dt:dt=""r8"">2945820180772</Timestamp><Current dt:dt=""r8"">0</Current><DateUtc dt:dt=""string"">2018-09-04T13:52:14Z</DateUtc></FrequencyChange></FrequencyChanges></Clock>\n",KW_Experiment5A-1-1,59.946,1.0.0.105,1,-526731972,Professional,2.0.10.353,2.0.10.353,9/4/2018,9/4/2018 13:52,9:52:14,2.0.10.248,3,2,1,3,,,,,,,,TrainingProc,BlockList,7,2,Distractor1.bmp,1,0,,0,1,146306,500,,0,0,lime,500,2,500,,horizontal,lime,Distractor1.bmp,cyan,Distractor2.bmp,yellow,Distractor1.bmp,blue,Distractor2.bmp,purple,Distractor1.bmp,red,Target2.bmp,,,,TrialProc,6,TrainingTrialList,1,2,-999999,0,146806,0,2,435,147241,Target2.bmp,red,2,,,,12,3,55
KW_Experiment5A,1,1,"<?xml version=""1.0""?>\n<Clock xmlns:dt=""urn:schemas-microsoft-com:datatypes""><Description dt:dt=""string"">E-Prime Primary Realtime Clock</Description><StartTime><Timestamp dt:dt=""int"">0</Timestamp><DateUtc dt:dt=""string"">2018-09-04T13:52:14Z</DateUtc></StartTime><FrequencyChanges><FrequencyChange><Frequency dt:dt=""r8"">3215253</Frequency><Timestamp dt:dt=""r8"">2945820180772</Timestamp><Current dt:dt=""r8"">0</Current><DateUtc dt:dt=""string"">2018-09-04T13:52:14Z</DateUtc></FrequencyChange></FrequencyChanges></Clock>\n",KW_Experiment5A-1-1,59.946,1.0.0.105,1,-526731972,Professional,2.0.10.353,2.0.10.353,9/4/2018,9/4/2018 13:52,9:52:14,2.0.10.248,3,2,1,3,,,,,,,,TrainingProc,BlockList,8,2,Distractor2.bmp,2,0,,0,1,148258,400,,0,0,cyan,400,1,400,,horizontal,red,Target2.bmp,purple,Distractor2.bmp,yellow,Distractor2.bmp,lime,Distractor2.bmp,blue,Distractor1.bmp,cyan,Distractor1.bmp,,,,TrialProc,4,TrainingTrialList,1,2,-999999,0,148658,0,2,415,149073,Target2.bmp,red,2,,,,7,3,56
KW_Experiment5A,1,1,"<?xml version=""1.0""?>\n<Clock xmlns:dt=""urn:schemas-microsoft-com:datatypes""><Description dt:dt=""string"">E-Prime Primary Realtime Clock</Description><StartTime><Timestamp dt:dt=""int"">0</Timestamp><DateUtc dt:dt=""string"">2018-09-04T13:52:14Z</DateUtc></StartTime><FrequencyChanges><FrequencyChange><Frequency dt:dt=""r8"">3215253</Frequency><Timestamp dt:dt=""r8"">2945820180772</Timestamp><Current dt:dt=""r8"">0</Current><DateUtc dt:dt=""string"">2018-09-04T13:52:14Z</DateUtc></FrequencyChange></FrequencyChanges></Clock>\n",KW_Experiment5A-1-1,59.946,1.0.0.105,1,-526731972,Professional,2.0.10.353,2.0.10.353,9/4/2018,9/4/2018 13:52,9:52:14,2.0.10.248,3,2,1,3,,,,,,,,TrainingProc,BlockList,9,2,Distractor2.bmp,2,0,,0,1,150093,600,,0,0,blue,600,3,600,3,horizontal,blue,Distractor2.bmp,red,Distractor2.bmp,purple,Distractor1.bmp,cyan,Distractor1.bmp,yellow,Distractor1.bmp,lime,Target2.bmp,,,,TrialProc,,TrainingTrialList,0,2,-999999,0,150693,0,1,380,151073,Target2.bmp,lime,2,,,,6,3,57
KW_Experiment5A,1,1,"<?xml version=""1.0""?>\n<Clock xmlns:dt=""urn:schemas-microsoft-com:datatypes""><Description dt:dt=""string"">E-Prime Primary Realtime Clock</Description><StartTime><Timestamp dt:dt=""int"">0</Timestamp><DateUtc dt:dt=""string"">2018-09-04T13:52:14Z</DateUtc></StartTime><FrequencyChanges><FrequencyChange><Frequency dt:dt=""r8"">3215253</Frequency><Timestamp dt:dt=""r8"">2945820180772</Timestamp><Current dt:dt=""r8"">0</Current><DateUtc dt:dt=""string"">2018-09-04T13:52:14Z</DateUtc></FrequencyChange></FrequencyChanges></Clock>\n",KW_Experiment5A-1-1,59.946,1.0.0.105,1,-526731972,Professional,2.0.10.353,2.0.10.353,9/4/2018,9/4/2018 13:52,9:52:14,2.0.10.248,3,2,1,3,,,,,,,,TrainingProc,BlockList,10,1,Distractor1.bmp,1,0,,0,1,152094,401,,0,0,purple,400,1,400,5,vertical,purple,Distractor2.bmp,cyan,Distractor2.bmp,blue,Distractor2.bmp,yellow,Distractor1.bmp,lime,Target1.bmp,red,Distractor1.bmp,,,,TrialProc,,TrainingTrialList,1,1,-999999,1,152495,0,1,434,152929,Target1.bmp,lime,1,,,,5,3,58
KW_Experiment5A,1,1,"<?xml version=""1.0""?>\n<Clock xmlns:dt=""urn:schemas-microsoft-com:datatypes""><Description dt:dt=""string"">E-Prime Primary Realtime Clock</Description><StartTime><Timestamp dt:dt=""int"">0</Timestamp><DateUtc dt:dt=""string"">2018-09-04T13:52:14Z</DateUtc></StartTime><FrequencyChanges><FrequencyChange><Frequency dt:dt=""r8"">3215253</Frequency><Timestamp dt:dt=""r8"">2945820180772</Timestamp><Current dt:dt=""r8"">0</Current><DateUtc dt:dt=""string"">2018-09-04T13:52:14Z</DateUtc></FrequencyChange></FrequencyChanges></Clock>\n",KW_Experiment5A-1-1,59.946,1.0.0.105,1,-526731972,Professional,2.0.10.353,2.0.10.353,9/4/2018,9/4/2018 13:52,9:52:14,2.0.10.248,3,2,1,3,,,,,,,,TrainingProc,BlockList,11,1,Distractor1.bmp,1,0,,0,1,153946,501,,0,0,purple,500,2,500,5,vertical,purple,Distractor1.bmp,cyan,Distractor2.bmp,blue,Distractor1.bmp,yellow,Distractor2.bmp,lime,Target1.bmp,red,Distractor1.bmp,,,,TrialProc,,TrainingTrialList,1,1,-999999,1,154447,0,1,434,154881,Target1.bmp,lime,1,,,,5,3,59
KW_Experiment5A,1,1,"<?xml version=""1.0""?>\n<Clock xmlns:dt=""urn:schemas-microsoft-com:datatypes""><Description dt:dt=""string"">E-Prime Primary Realtime Clock</Description><StartTime><Timestamp dt:dt=""int"">0</Timestamp><DateUtc dt:dt=""string"">2018-09-04T13:52:14Z</DateUtc></StartTime><FrequencyChanges><FrequencyChange><Frequency dt:dt=""r8"">3215253</Frequency><Timestamp dt:dt=""r8"">2945820180772</Timestamp><Current dt:dt=""r8"">0</Current><DateUtc dt:dt=""string"">2018-09-04T13:52:14Z</DateUtc></FrequencyChange></FrequencyChanges></Clock>\n",KW_Experiment5A-1-1,59.946,1.0.0.105,1,-526731972,Professional,2.0.10.353,2.0.10.353,9/4/2018,9/4/2018 13:52,9:52:14,2.0.10.248,3,2,1,3,,,,,,,,TrainingProc,BlockList,12,1,Distractor1.bmp,1,0,,0,1,155898,500,,0,0,red,500,2,500,1,vertical,red,Distractor1.bmp,blue,Distractor1.bmp,purple,Distractor2.bmp,yellow,Distractor1.bmp,cyan,Distractor2.bmp,lime,Target1.bmp,,,,TrialProc,,TrainingTrialList,1,1,-999999,0,156398,0,1,475,156873,Target1.bmp,lime,1,,,,6,3,60
KW_Experiment5A,1,1,"<?xml version=""1.0""?>\n<Clock xmlns:dt=""urn:schemas-microsoft-com:datatypes""><Description dt:dt=""string"">E-Prime Primary Realtime Clock</Description><StartTime><Timestamp dt:dt=""int"">0</Timestamp><DateUtc dt:dt=""string"">2018-09-04T13:52:14Z</DateUtc></StartTime><FrequencyChanges><FrequencyChange><Frequency dt:dt=""r8"">3215253</Frequency><Timestamp dt:dt=""r8"">2945820180772</Timestamp><Current dt:dt=""r8"">0</Current><DateUtc dt:dt=""string"">2018-09-04T13:52:14Z</DateUtc></FrequencyChange></FrequencyChanges></Clock>\n",KW_Experiment5A-1-1,59.946,1.0.0.105,1,-526731972,Professional,2.0.10.353,2.0.10.353,9/4/2018,9/4/2018 13:52,9:52:14,2.0.10.248,3,2,1,3,,,,,,,,TrainingProc,BlockList,13,1,Distractor2.bmp,2,0,,0,1,157883,501,,0,0,lime,500,2,500,,vertical,lime,Distractor2.bmp,blue,Distractor1.bmp,yellow,Distractor2.bmp,red,Target1.bmp,purple,Distractor2.bmp,cyan,Distractor1.bmp,,,,TrialProc,6,TrainingTrialList,0,1,-999999,1,158384,0,2,497,158881,Target1.bmp,red,1,,,,10,3,61
KW_Experiment5A,1,1,"<?xml version=""1.0""?>\n<Clock xmlns:dt=""urn:schemas-microsoft-com:datatypes""><Description dt:dt=""string"">E-Prime Primary Realtime Clock</Description><StartTime><Timestamp dt:dt=""int"">0</Timestamp><DateUtc dt:dt=""string"">2018-09-04T13:52:14Z</DateUtc></StartTime><FrequencyChanges><FrequencyChange><Frequency dt:dt=""r8"">3215253</Frequency><Timestamp dt:dt=""r8"">2945820180772</Timestamp><Current dt:dt=""r8"">0</Current><DateUtc dt:dt=""string"">2018-09-04T13:52:14Z</DateUtc></FrequencyChange></FrequencyChanges></Clock>\n",KW_Experiment5A-1-1,59.946,1.0.0.105,1,-526731972,Professional,2.0.10.353,2.0.10.353,9/4/2018,9/4/2018 13:52,9:52:14,2.0.10.248,3,2,1,3,,,,,,,,TrainingProc,BlockList,14,2,Distractor1.bmp,1,0,,0,1,159902,500,,0,0,yellow,500,2,500,2,horizontal,yellow,Distractor2.bmp,red,Distractor1.bmp,lime,Target2.bmp,purple,Distractor1.bmp,blue,Distractor2.bmp,cyan,Distractor1.bmp,,,,TrialProc,,TrainingTrialList,1,2,-999999,0,160402,0,2,487,160889,Target2.bmp,lime,2,,,,3,3,62
KW_Experiment5A,1,1,"<?xml version=""1.0""?>\n<Clock xmlns:dt=""urn:schemas-microsoft-com:datatypes""><Description dt:dt=""string"">E-Prime Primary Realtime Clock</Description><StartTime><Timestamp dt:dt=""int"">0</Timestamp><DateUtc dt:dt=""string"">2018-09-04T13:52:14Z</DateUtc></StartTime><FrequencyChanges><FrequencyChange><Frequency dt:dt=""r8"">3215253</Frequency><Timestamp dt:dt=""r8"">2945820180772</Timestamp><Current dt:dt=""r8"">0</Current><DateUtc dt:dt=""string"">2018-09-04T13:52:14Z</DateUtc></FrequencyChange></FrequencyChanges></Clock>\n",KW_Experiment5A-1-1,59.946,1.0.0.105,1,-526731972,Professional,2.0.10.353,2.0.10.353,9/4/2018,9/4/2018 13:52,9:52:14,2.0.10.248,3,2,1,3,,,,,,,,TrainingProc,BlockList,15,1,Distractor2.bmp,2,0,,1,0,161903,601,,0,0,cyan,600,3,600,4,vertical,cyan,Distractor1.bmp,purple,Distractor1.bmp,yellow,Distractor1.bmp,lime,Target1.bmp,blue,Distractor2.bmp,red,Distractor1.bmp,,,,TrialProc,,TrainingTrialList,1,1,-999999,1,162504,0,1,425,162929,Target1.bmp,lime,1,,,,4,3,63
KW_Experiment5A,1,1,"<?xml version=""1.0""?>\n<Clock xmlns:dt=""urn:schemas-microsoft-com:datatypes""><Description dt:dt=""string"">E-Prime Primary Realtime Clock</Description><StartTime><Timestamp dt:dt=""int"">0</Timestamp><DateUtc dt:dt=""string"">2018-09-04T13:52:14Z</DateUtc></StartTime><FrequencyChanges><FrequencyChange><Frequency dt:dt=""r8"">3215253</Frequency><Timestamp dt:dt=""r8"">2945820180772</Timestamp><Current dt:dt=""r8"">0</Current><DateUtc dt:dt=""string"">2018-09-04T13:52:14Z</DateUtc></FrequencyChange></FrequencyChanges></Clock>\n",KW_Experiment5A-1-1,59.946,1.0.0.105,1,-526731972,Professional,2.0.10.353,2.0.10.353,9/4/2018,9/4/2018 13:52,9:52:14,2.0.10.248,3,2,1,3,,,,,,,,TrainingProc,BlockList,16,1,Distractor2.bmp,2,0,,0,1,163939,500,,0,0,purple,500,2,500,5,vertical,purple,Distractor2.bmp,yellow,Distractor2.bmp,red,Distractor1.bmp,blue,Distractor2.bmp,lime,Target1.bmp,cyan,Distractor2.bmp,,,,TrialProc,,TrainingTrialList,1,1,-999999,0,164439,0,1,410,164849,Target1.bmp,lime,1,,,,5,3,64
KW_Experiment5A,1,1,"<?xml version=""1.0""?>\n<Clock xmlns:dt=""urn:schemas-microsoft-com:datatypes""><Description dt:dt=""string"">E-Prime Primary Realtime Clock</Description><StartTime><Timestamp dt:dt=""int"">0</Timestamp><DateUtc dt:dt=""string"">2018-09-04T13:52:14Z</DateUtc></StartTime><FrequencyChanges><FrequencyChange><Frequency dt:dt=""r8"">3215253</Frequency><Timestamp dt:dt=""r8"">2945820180772</Timestamp><Current dt:dt=""r8"">0</Current><DateUtc dt:dt=""string"">2018-09-04T13:52:14Z</DateUtc></FrequencyChange></FrequencyChanges></Clock>\n",KW_Experiment5A-1-1,59.946,1.0.0.105,1,-526731972,Professional,2.0.10.353,2.0.10.353,9/4/2018,9/4/2018 13:52,9:52:14,2.0.10.248,3,2,1,3,,,,,,,,TrainingProc,BlockList,17,2,Distractor1.bmp,1,0,,0,1,165874,500,,0,0,cyan,500,2,500,4,horizontal,lime,Target2.bmp,cyan,Distractor1.bmp,yellow,Distractor1.bmp,blue,Distractor2.bmp,red,Distractor2.bmp,purple,Distractor2.bmp,,,,TrialProc,,TrainingTrialList,1,2,-999999,0,166374,0,2,451,166825,Target2.bmp,lime,2,,,,1,3,65
KW_Experiment5A,1,1,"<?xml version=""1.0""?>\n<Clock xmlns:dt=""urn:schemas-microsoft-com:datatypes""><Description dt:dt=""string"">E-Prime Primary Realtime Clock</Description><StartTime><Timestamp dt:dt=""int"">0</Timestamp><DateUtc dt:dt=""string"">2018-09-04T13:52:14Z</DateUtc></StartTime><FrequencyChanges><FrequencyChange><Frequency dt:dt=""r8"">3215253</Frequency><Timestamp dt:dt=""r8"">2945820180772</Timestamp><Current dt:dt=""r8"">0</Current><DateUtc dt:dt=""string"">2018-09-04T13:52:14Z</DateUtc></FrequencyChange></FrequencyChanges></Clock>\n",KW_Experiment5A-1-1,59.946,1.0.0.105,1,-526731972,Professional,2.0.10.353,2.0.10.353,9/4/2018,9/4/2018 13:52,9:52:14,2.0.10.248,3,2,1,3,,,,,,,,TrainingProc,BlockList,18,1,Distractor2.bmp,2,0,,0,1,167842,501,,0,0,yellow,500,2,500,,vertical,yellow,Distractor2.bmp,red,Target1.bmp,lime,Distractor2.bmp,cyan,Distractor1.bmp,purple,Distractor1.bmp,blue,Distractor2.bmp,,,,TrialProc,2,TrainingTrialList,0,1,-999999,1,168343,0,2,506,168849,Target1.bmp,red,1,,,,8,3,66
KW_Experiment5A,1,1,"<?xml version=""1.0""?>\n<Clock xmlns:dt=""urn:schemas-microsoft-com:datatypes""><Description dt:dt=""string"">E-Prime Primary Realtime Clock</Description><StartTime><Timestamp dt:dt=""int"">0</Timestamp><DateUtc dt:dt=""string"">2018-09-04T13:52:14Z</DateUtc></StartTime><FrequencyChanges><FrequencyChange><Frequency dt:dt=""r8"">3215253</Frequency><Timestamp dt:dt=""r8"">2945820180772</Timestamp><Current dt:dt=""r8"">0</Current><DateUtc dt:dt=""string"">2018-09-04T13:52:14Z</DateUtc></FrequencyChange></FrequencyChanges></Clock>\n",KW_Experiment5A-1-1,59.946,1.0.0.105,1,-526731972,Professional,2.0.10.353,2.0.10.353,9/4/2018,9/4/2018 13:52,9:52:14,2.0.10.248,3,2,1,3,,,,,,,,TrainingProc,BlockList,19,2,Distractor1.bmp,1,0,,0,1,169861,400,,0,0,cyan,400,1,400,4,horizontal,cyan,Distractor1.bmp,blue,Distractor2.bmp,lime,Target2.bmp,purple,Distractor1.bmp,yellow,Distractor1.bmp,red,Distractor2.bmp,,,,TrialProc,,TrainingTrialList,1,2,-999999,0,170261,0,2,516,170777,Target2.bmp,lime,2,,,,3,3,67
KW_Experiment5A,1,1,"<?xml version=""1.0""?>\n<Clock xmlns:dt=""urn:schemas-microsoft-com:datatypes""><Description dt:dt=""string"">E-Prime Primary Realtime Clock</Description><StartTime><Timestamp dt:dt=""int"">0</Timestamp><DateUtc dt:dt=""string"">2018-09-04T13:52:14Z</DateUtc></StartTime><FrequencyChanges><FrequencyChange><Frequency dt:dt=""r8"">3215253</Frequency><Timestamp dt:dt=""r8"">2945820180772</Timestamp><Current dt:dt=""r8"">0</Current><DateUtc dt:dt=""string"">2018-09-04T13:52:14Z</DateUtc></FrequencyChange></FrequencyChanges></Clock>\n",KW_Experiment5A-1-1,59.946,1.0.0.105,1,-526731972,Professional,2.0.10.353,2.0.10.353,9/4/2018,9/4/2018 13:52,9:52:14,2.0.10.248,3,2,1,3,,,,,,,,TrainingProc,BlockList,20,1,Distractor2.bmp,2,0,,0,1,171796,400,,0,0,red,400,1,400,1,vertical,red,Distractor2.bmp,cyan,Distractor1.bmp,yellow,Distractor1.bmp,purple,Distractor1.bmp,blue,Distractor2.bmp,lime,Target1.bmp,,,,TrialProc,,TrainingTrialList,1,1,-999999,0,172196,0,1,573,172769,Target1.bmp,lime,1,,,,6,3,68
KW_Experiment5A,1,1,"<?xml version=""1.0""?>\n<Clock xmlns:dt=""urn:schemas-microsoft-com:datatypes""><Description dt:dt=""string"">E-Prime Primary Realtime Clock</Description><StartTime><Timestamp dt:dt=""int"">0</Timestamp><DateUtc dt:dt=""string"">2018-09-04T13:52:14Z</DateUtc></StartTime><FrequencyChanges><FrequencyChange><Frequency dt:dt=""r8"">3215253</Frequency><Timestamp dt:dt=""r8"">2945820180772</Timestamp><Current dt:dt=""r8"">0</Current><DateUtc dt:dt=""string"">2018-09-04T13:52:14Z</DateUtc></FrequencyChange></FrequencyChanges></Clock>\n",KW_Experiment5A-1-1,59.946,1.0.0.105,1,-526731972,Professional,2.0.10.353,2.0.10.353,9/4/2018,9/4/2018 13:52,9:52:14,2.0.10.248,3,2,1,3,,,,,,,,TrainingProc,BlockList,21,1,Distractor1.bmp,1,0,,0,1,173781,400,,0,0,purple,400,1,400,5,vertical,purple,Distractor1.bmp,lime,Target1.bmp,blue,Distractor1.bmp,cyan,Distractor2.bmp,yellow,Distractor1.bmp,red,Distractor2.bmp,,,,TrialProc,,TrainingTrialList,1,1,-999999,0,174181,0,1,484,174665,Target1.bmp,lime,1,,,,2,3,69
KW_Experiment5A,1,1,"<?xml version=""1.0""?>\n<Clock xmlns:dt=""urn:schemas-microsoft-com:datatypes""><Description dt:dt=""string"">E-Prime Primary Realtime Clock</Description><StartTime><Timestamp dt:dt=""int"">0</Timestamp><DateUtc dt:dt=""string"">2018-09-04T13:52:14Z</DateUtc></StartTime><FrequencyChanges><FrequencyChange><Frequency dt:dt=""r8"">3215253</Frequency><Timestamp dt:dt=""r8"">2945820180772</Timestamp><Current dt:dt=""r8"">0</Current><DateUtc dt:dt=""string"">2018-09-04T13:52:14Z</DateUtc></FrequencyChange></FrequencyChanges></Clock>\n",KW_Experiment5A-1-1,59.946,1.0.0.105,1,-526731972,Professional,2.0.10.353,2.0.10.353,9/4/2018,9/4/2018 13:52,9:52:14,2.0.10.248,3,2,1,3,,,,,,,,TrainingProc,BlockList,22,1,Distractor2.bmp,2,0,,0,1,175683,600,,0,0,purple,600,3,600,5,vertical,purple,Distractor1.bmp,yellow,Distractor1.bmp,lime,Target1.bmp,red,Distractor2.bmp,cyan,Distractor1.bmp,blue,Distractor1.bmp,,,,TrialProc,,TrainingTrialList,1,1,-999999,0,176283,0,1,438,176721,Target1.bmp,lime,1,,,,3,3,70
KW_Experiment5A,1,1,"<?xml version=""1.0""?>\n<Clock xmlns:dt=""urn:schemas-microsoft-com:datatypes""><Description dt:dt=""string"">E-Prime Primary Realtime Clock</Description><StartTime><Timestamp dt:dt=""int"">0</Timestamp><DateUtc dt:dt=""string"">2018-09-04T13:52:14Z</DateUtc></StartTime><FrequencyChanges><FrequencyChange><Frequency dt:dt=""r8"">3215253</Frequency><Timestamp dt:dt=""r8"">2945820180772</Timestamp><Current dt:dt=""r8"">0</Current><DateUtc dt:dt=""string"">2018-09-04T13:52:14Z</DateUtc></FrequencyChange></FrequencyChanges></Clock>\n",KW_Experiment5A-1-1,59.946,1.0.0.105,1,-526731972,Professional,2.0.10.353,2.0.10.353,9/4/2018,9/4/2018 13:52,9:52:14,2.0.10.248,3,2,1,3,,,,,,,,TrainingProc,BlockList,23,1,Distractor1.bmp,1,0,,0,1,177735,500,,0,0,blue,500,2,500,3,vertical,blue,Distractor1.bmp,red,Distractor1.bmp,cyan,Distractor1.bmp,lime,Target1.bmp,yellow,Distractor1.bmp,purple,Distractor1.bmp,,,,TrialProc,,TrainingTrialList,1,1,-999999,0,178235,0,1,430,178665,Target1.bmp,lime,1,,,,4,3,71
KW_Experiment5A,1,1,"<?xml version=""1.0""?>\n<Clock xmlns:dt=""urn:schemas-microsoft-com:datatypes""><Description dt:dt=""string"">E-Prime Primary Realtime Clock</Description><StartTime><Timestamp dt:dt=""int"">0</Timestamp><DateUtc dt:dt=""string"">2018-09-04T13:52:14Z</DateUtc></StartTime><FrequencyChanges><FrequencyChange><Frequency dt:dt=""r8"">3215253</Frequency><Timestamp dt:dt=""r8"">2945820180772</Timestamp><Current dt:dt=""r8"">0</Current><DateUtc dt:dt=""string"">2018-09-04T13:52:14Z</DateUtc></FrequencyChange></FrequencyChanges></Clock>\n",KW_Experiment5A-1-1,59.946,1.0.0.105,1,-526731972,Professional,2.0.10.353,2.0.10.353,9/4/2018,9/4/2018 13:52,9:52:14,2.0.10.248,3,2,1,3,,,,,,,,TrainingProc,BlockList,24,1,Distractor1.bmp,1,0,,0,1,179687,600,,0,0,blue,600,3,600,3,vertical,blue,Distractor1.bmp,lime,Target1.bmp,yellow,Distractor1.bmp,cyan,Distractor2.bmp,purple,Distractor1.bmp,red,Distractor2.bmp,,,,TrialProc,,TrainingTrialList,1,1,-999999,0,180287,0,1,482,180769,Target1.bmp,lime,1,,,,2,3,72
KW_Experiment5A,1,1,"<?xml version=""1.0""?>\n<Clock xmlns:dt=""urn:schemas-microsoft-com:datatypes""><Description dt:dt=""string"">E-Prime Primary Realtime Clock</Description><StartTime><Timestamp dt:dt=""int"">0</Timestamp><DateUtc dt:dt=""string"">2018-09-04T13:52:14Z</DateUtc></StartTime><FrequencyChanges><FrequencyChange><Frequency dt:dt=""r8"">3215253</Frequency><Timestamp dt:dt=""r8"">2945820180772</Timestamp><Current dt:dt=""r8"">0</Current><DateUtc dt:dt=""string"">2018-09-04T13:52:14Z</DateUtc></FrequencyChange></FrequencyChanges></Clock>\n",KW_Experiment5A-1-1,59.946,1.0.0.105,1,-526731972,Professional,2.0.10.353,2.0.10.353,9/4/2018,9/4/2018 13:52,9:52:14,2.0.10.248,3,2,1,3,,,,,,,,TrainingProc,BlockList,25,2,Distractor1.bmp,1,0,,1,0,181788,601,,0,0,purple,600,3,600,5,horizontal,purple,Distractor1.bmp,lime,Target2.bmp,blue,Distractor1.bmp,red,Distractor1.bmp,cyan,Distractor2.bmp,yellow,Distractor1.bmp,,,,TrialProc,,TrainingTrialList,1,2,-999999,1,182389,0,2,412,182801,Target2.bmp,lime,2,,,,2,4,73
KW_Experiment5A,1,1,"<?xml version=""1.0""?>\n<Clock xmlns:dt=""urn:schemas-microsoft-com:datatypes""><Description dt:dt=""string"">E-Prime Primary Realtime Clock</Description><StartTime><Timestamp dt:dt=""int"">0</Timestamp><DateUtc dt:dt=""string"">2018-09-04T13:52:14Z</DateUtc></StartTime><FrequencyChanges><FrequencyChange><Frequency dt:dt=""r8"">3215253</Frequency><Timestamp dt:dt=""r8"">2945820180772</Timestamp><Current dt:dt=""r8"">0</Current><DateUtc dt:dt=""string"">2018-09-04T13:52:14Z</DateUtc></FrequencyChange></FrequencyChanges></Clock>\n",KW_Experiment5A-1-1,59.946,1.0.0.105,1,-526731972,Professional,2.0.10.353,2.0.10.353,9/4/2018,9/4/2018 13:52,9:52:14,2.0.10.248,3,2,1,3,,,,,,,,TrainingProc,BlockList,26,1,Distractor1.bmp,1,0,,0,1,183824,400,,0,0,blue,400,1,400,3,vertical,lime,Target1.bmp,blue,Distractor1.bmp,yellow,Distractor1.bmp,cyan,Distractor1.bmp,purple,Distractor1.bmp,red,Distractor1.bmp,,,,TrialProc,,TrainingTrialList,1,1,-999999,0,184224,0,1,537,184761,Target1.bmp,lime,1,,,,1,4,74
KW_Experiment5A,1,1,"<?xml version=""1.0""?>\n<Clock xmlns:dt=""urn:schemas-microsoft-com:datatypes""><Description dt:dt=""string"">E-Prime Primary Realtime Clock</Description><StartTime><Timestamp dt:dt=""int"">0</Timestamp><DateUtc dt:dt=""string"">2018-09-04T13:52:14Z</DateUtc></StartTime><FrequencyChanges><FrequencyChange><Frequency dt:dt=""r8"">3215253</Frequency><Timestamp dt:dt=""r8"">2945820180772</Timestamp><Current dt:dt=""r8"">0</Current><DateUtc dt:dt=""string"">2018-09-04T13:52:14Z</DateUtc></FrequencyChange></FrequencyChanges></Clock>\n",KW_Experiment5A-1-1,59.946,1.0.0.105,1,-526731972,Professional,2.0.10.353,2.0.10.353,9/4/2018,9/4/2018 13:52,9:52:14,2.0.10.248,3,2,1,3,,,,,,,,TrainingProc,BlockList,27,1,Distractor2.bmp,2,0,,1,0,185775,601,,0,0,yellow,600,3,600,2,vertical,lime,Target1.bmp,yellow,Distractor2.bmp,cyan,Distractor2.bmp,purple,Distractor2.bmp,red,Distractor1.bmp,blue,Distractor1.bmp,,,,TrialProc,,TrainingTrialList,1,1,-999999,1,186376,0,1,441,186817,Target1.bmp,lime,1,,,,1,4,75
KW_Experiment5A,1,1,"<?xml version=""1.0""?>\n<Clock xmlns:dt=""urn:schemas-microsoft-com:datatypes""><Description dt:dt=""string"">E-Prime Primary Realtime Clock</Description><StartTime><Timestamp dt:dt=""int"">0</Timestamp><DateUtc dt:dt=""string"">2018-09-04T13:52:14Z</DateUtc></StartTime><FrequencyChanges><FrequencyChange><Frequency dt:dt=""r8"">3215253</Frequency><Timestamp dt:dt=""r8"">2945820180772</Timestamp><Current dt:dt=""r8"">0</Current><DateUtc dt:dt=""string"">2018-09-04T13:52:14Z</DateUtc></FrequencyChange></FrequencyChanges></Clock>\n",KW_Experiment5A-1-1,59.946,1.0.0.105,1,-526731972,Professional,2.0.10.353,2.0.10.353,9/4/2018,9/4/2018 13:52,9:52:14,2.0.10.248,3,2,1,3,,,,,,,,TrainingProc,BlockList,28,2,Distractor2.bmp,2,0,,0,1,187827,401,,0,0,blue,400,1,400,3,horizontal,blue,Distractor1.bmp,red,Distractor2.bmp,purple,Distractor2.bmp,cyan,Distractor1.bmp,lime,Target2.bmp,yellow,Distractor2.bmp,,,,TrialProc,,TrainingTrialList,1,2,-999999,1,188228,0,2,469,188697,Target2.bmp,lime,2,,,,5,4,76
KW_Experiment5A,1,1,"<?xml version=""1.0""?>\n<Clock xmlns:dt=""urn:schemas-microsoft-com:datatypes""><Description dt:dt=""string"">E-Prime Primary Realtime Clock</Description><StartTime><Timestamp dt:dt=""int"">0</Timestamp><DateUtc dt:dt=""string"">2018-09-04T13:52:14Z</DateUtc></StartTime><FrequencyChanges><FrequencyChange><Frequency dt:dt=""r8"">3215253</Frequency><Timestamp dt:dt=""r8"">2945820180772</Timestamp><Current dt:dt=""r8"">0</Current><DateUtc dt:dt=""string"">2018-09-04T13:52:14Z</DateUtc></FrequencyChange></FrequencyChanges></Clock>\n",KW_Experiment5A-1-1,59.946,1.0.0.105,1,-526731972,Professional,2.0.10.353,2.0.10.353,9/4/2018,9/4/2018 13:52,9:52:14,2.0.10.248,3,2,1,3,,,,,,,,TrainingProc,BlockList,29,2,Distractor1.bmp,1,0,,0,1,189712,401,,0,0,lime,400,1,400,,horizontal,lime,Distractor2.bmp,blue,Distractor1.bmp,purple,Distractor2.bmp,cyan,Distractor1.bmp,red,Target2.bmp,yellow,Distractor1.bmp,,,,TrialProc,6,TrainingTrialList,0,2,-999999,1,190113,0,1,480,190593,Target2.bmp,red,2,,,,11,4,77
KW_Experiment5A,1,1,"<?xml version=""1.0""?>\n<Clock xmlns:dt=""urn:schemas-microsoft-com:datatypes""><Description dt:dt=""string"">E-Prime Primary Realtime Clock</Description><StartTime><Timestamp dt:dt=""int"">0</Timestamp><DateUtc dt:dt=""string"">2018-09-04T13:52:14Z</DateUtc></StartTime><FrequencyChanges><FrequencyChange><Frequency dt:dt=""r8"">3215253</Frequency><Timestamp dt:dt=""r8"">2945820180772</Timestamp><Current dt:dt=""r8"">0</Current><DateUtc dt:dt=""string"">2018-09-04T13:52:14Z</DateUtc></FrequencyChange></FrequencyChanges></Clock>\n",KW_Experiment5A-1-1,59.946,1.0.0.105,1,-526731972,Professional,2.0.10.353,2.0.10.353,9/4/2018,9/4/2018 13:52,9:52:14,2.0.10.248,3,2,1,3,,,,,,,,TrainingProc,BlockList,30,1,Distractor1.bmp,1,0,,0,1,191614,601,,0,0,purple,600,3,600,,vertical,purple,Distractor1.bmp,cyan,Distractor2.bmp,yellow,Distractor1.bmp,blue,Distractor1.bmp,lime,Distractor1.bmp,red,Target1.bmp,,,,TrialProc,5,TrainingTrialList,1,1,-999999,1,192215,0,1,426,192641,Target1.bmp,red,1,,,,12,4,78
KW_Experiment5A,1,1,"<?xml version=""1.0""?>\n<Clock xmlns:dt=""urn:schemas-microsoft-com:datatypes""><Description dt:dt=""string"">E-Prime Primary Realtime Clock</Description><StartTime><Timestamp dt:dt=""int"">0</Timestamp><DateUtc dt:dt=""string"">2018-09-04T13:52:14Z</DateUtc></StartTime><FrequencyChanges><FrequencyChange><Frequency dt:dt=""r8"">3215253</Frequency><Timestamp dt:dt=""r8"">2945820180772</Timestamp><Current dt:dt=""r8"">0</Current><DateUtc dt:dt=""string"">2018-09-04T13:52:14Z</DateUtc></FrequencyChange></FrequencyChanges></Clock>\n",KW_Experiment5A-1-1,59.946,1.0.0.105,1,-526731972,Professional,2.0.10.353,2.0.10.353,9/4/2018,9/4/2018 13:52,9:52:14,2.0.10.248,3,2,1,3,,,,,,,,TrainingProc,BlockList,31,1,Distractor1.bmp,1,0,,0,1,193666,400,,0,0,purple,400,1,400,5,vertical,purple,Distractor2.bmp,yellow,Distractor2.bmp,lime,Target1.bmp,cyan,Distractor1.bmp,blue,Distractor1.bmp,red,Distractor2.bmp,,,,TrialProc,,TrainingTrialList,1,1,-999999,0,194066,0,1,447,194513,Target1.bmp,lime,1,,,,3,4,79
KW_Experiment5A,1,1,"<?xml version=""1.0""?>\n<Clock xmlns:dt=""urn:schemas-microsoft-com:datatypes""><Description dt:dt=""string"">E-Prime Primary Realtime Clock</Description><StartTime><Timestamp dt:dt=""int"">0</Timestamp><DateUtc dt:dt=""string"">2018-09-04T13:52:14Z</DateUtc></StartTime><FrequencyChanges><FrequencyChange><Frequency dt:dt=""r8"">3215253</Frequency><Timestamp dt:dt=""r8"">2945820180772</Timestamp><Current dt:dt=""r8"">0</Current><DateUtc dt:dt=""string"">2018-09-04T13:52:14Z</DateUtc></FrequencyChange></FrequencyChanges></Clock>\n",KW_Experiment5A-1-1,59.946,1.0.0.105,1,-526731972,Professional,2.0.10.353,2.0.10.353,9/4/2018,9/4/2018 13:52,9:52:14,2.0.10.248,3,2,1,3,,,,,,,,TrainingProc,BlockList,32,2,Distractor1.bmp,1,0,,0,0,195534,401,,0,0,red,400,1,400,1,horizontal,red,Distractor1.bmp,blue,Distractor1.bmp,purple,Distractor1.bmp,lime,Target2.bmp,cyan,Distractor1.bmp,yellow,Distractor1.bmp,,,,TrialProc,,TrainingTrialList,1,2,-999999,1,195935,0,2,458,196393,Target2.bmp,lime,2,,,,4,4,80
KW_Experiment5A,1,1,"<?xml version=""1.0""?>\n<Clock xmlns:dt=""urn:schemas-microsoft-com:datatypes""><Description dt:dt=""string"">E-Prime Primary Realtime Clock</Description><StartTime><Timestamp dt:dt=""int"">0</Timestamp><DateUtc dt:dt=""string"">2018-09-04T13:52:14Z</DateUtc></StartTime><FrequencyChanges><FrequencyChange><Frequency dt:dt=""r8"">3215253</Frequency><Timestamp dt:dt=""r8"">2945820180772</Timestamp><Current dt:dt=""r8"">0</Current><DateUtc dt:dt=""string"">2018-09-04T13:52:14Z</DateUtc></FrequencyChange></FrequencyChanges></Clock>\n",KW_Experiment5A-1-1,59.946,1.0.0.105,1,-526731972,Professional,2.0.10.353,2.0.10.353,9/4/2018,9/4/2018 13:52,9:52:14,2.0.10.248,3,2,1,3,,,,,,,,TrainingProc,BlockList,33,1,Distractor1.bmp,1,0,,0,1,197403,400,,0,0,blue,400,1,400,,vertical,blue,Distractor2.bmp,purple,Distractor2.bmp,cyan,Distractor2.bmp,red,Target1.bmp,lime,Distractor1.bmp,yellow,Distractor2.bmp,,,,TrialProc,3,TrainingTrialList,1,1,-999999,0,197803,0,1,542,198345,Target1.bmp,red,1,,,,10,4,81
KW_Experiment5A,1,1,"<?xml version=""1.0""?>\n<Clock xmlns:dt=""urn:schemas-microsoft-com:datatypes""><Description dt:dt=""string"">E-Prime Primary Realtime Clock</Description><StartTime><Timestamp dt:dt=""int"">0</Timestamp><DateUtc dt:dt=""string"">2018-09-04T13:52:14Z</DateUtc></StartTime><FrequencyChanges><FrequencyChange><Frequency dt:dt=""r8"">3215253</Frequency><Timestamp dt:dt=""r8"">2945820180772</Timestamp><Current dt:dt=""r8"">0</Current><DateUtc dt:dt=""string"">2018-09-04T13:52:14Z</DateUtc></FrequencyChange></FrequencyChanges></Clock>\n",KW_Experiment5A-1-1,59.946,1.0.0.105,1,-526731972,Professional,2.0.10.353,2.0.10.353,9/4/2018,9/4/2018 13:52,9:52:14,2.0.10.248,3,2,1,3,,,,,,,,TrainingProc,BlockList,34,2,Distractor1.bmp,1,0,,0,1,199355,400,,0,0,yellow,400,1,400,2,horizontal,yellow,Distractor2.bmp,lime,Target2.bmp,cyan,Distractor1.bmp,purple,Distractor1.bmp,blue,Distractor2.bmp,red,Distractor1.bmp,,,,TrialProc,,TrainingTrialList,1,2,-999999,0,199755,0,2,406,200161,Target2.bmp,lime,2,,,,2,4,82
KW_Experiment5A,1,1,"<?xml version=""1.0""?>\n<Clock xmlns:dt=""urn:schemas-microsoft-com:datatypes""><Description dt:dt=""string"">E-Prime Primary Realtime Clock</Description><StartTime><Timestamp dt:dt=""int"">0</Timestamp><DateUtc dt:dt=""string"">2018-09-04T13:52:14Z</DateUtc></StartTime><FrequencyChanges><FrequencyChange><Frequency dt:dt=""r8"">3215253</Frequency><Timestamp dt:dt=""r8"">2945820180772</Timestamp><Current dt:dt=""r8"">0</Current><DateUtc dt:dt=""string"">2018-09-04T13:52:14Z</DateUtc></FrequencyChange></FrequencyChanges></Clock>\n",KW_Experiment5A-1-1,59.946,1.0.0.105,1,-526731972,Professional,2.0.10.353,2.0.10.353,9/4/2018,9/4/2018 13:52,9:52:14,2.0.10.248,3,2,1,3,,,,,,,,TrainingProc,BlockList,35,2,Distractor2.bmp,2,0,,0,1,201173,600,,0,0,red,600,3,600,1,horizontal,lime,Target2.bmp,red,Distractor2.bmp,purple,Distractor1.bmp,blue,Distractor1.bmp,yellow,Distractor1.bmp,cyan,Distractor1.bmp,,,,TrialProc,,TrainingTrialList,1,2,-999999,0,201773,0,2,428,202201,Target2.bmp,lime,2,,,,1,4,83
KW_Experiment5A,1,1,"<?xml version=""1.0""?>\n<Clock xmlns:dt=""urn:schemas-microsoft-com:datatypes""><Description dt:dt=""string"">E-Prime Primary Realtime Clock</Description><StartTime><Timestamp dt:dt=""int"">0</Timestamp><DateUtc dt:dt=""string"">2018-09-04T13:52:14Z</DateUtc></StartTime><FrequencyChanges><FrequencyChange><Frequency dt:dt=""r8"">3215253</Frequency><Timestamp dt:dt=""r8"">2945820180772</Timestamp><Current dt:dt=""r8"">0</Current><DateUtc dt:dt=""string"">2018-09-04T13:52:14Z</DateUtc></FrequencyChange></FrequencyChanges></Clock>\n",KW_Experiment5A-1-1,59.946,1.0.0.105,1,-526731972,Professional,2.0.10.353,2.0.10.353,9/4/2018,9/4/2018 13:52,9:52:14,2.0.10.248,3,2,1,3,,,,,,,,TrainingProc,BlockList,36,2,Distractor2.bmp,2,0,,0,1,203225,600,,0,0,cyan,600,3,600,4,horizontal,cyan,Distractor2.bmp,red,Distractor2.bmp,lime,Target2.bmp,yellow,Distractor2.bmp,blue,Distractor1.bmp,purple,Distractor1.bmp,,,,TrialProc,,TrainingTrialList,0,2,-999999,0,203825,0,1,360,204185,Target2.bmp,lime,2,,,,3,4,84
KW_Experiment5A,1,1,"<?xml version=""1.0""?>\n<Clock xmlns:dt=""urn:schemas-microsoft-com:datatypes""><Description dt:dt=""string"">E-Prime Primary Realtime Clock</Description><StartTime><Timestamp dt:dt=""int"">0</Timestamp><DateUtc dt:dt=""string"">2018-09-04T13:52:14Z</DateUtc></StartTime><FrequencyChanges><FrequencyChange><Frequency dt:dt=""r8"">3215253</Frequency><Timestamp dt:dt=""r8"">2945820180772</Timestamp><Current dt:dt=""r8"">0</Current><DateUtc dt:dt=""string"">2018-09-04T13:52:14Z</DateUtc></FrequencyChange></FrequencyChanges></Clock>\n",KW_Experiment5A-1-1,59.946,1.0.0.105,1,-526731972,Professional,2.0.10.353,2.0.10.353,9/4/2018,9/4/2018 13:52,9:52:14,2.0.10.248,3,2,1,3,,,,,,,,TrainingProc,BlockList,37,2,Distractor1.bmp,1,0,,0,1,205210,601,,0,0,purple,600,3,600,5,horizontal,purple,Distractor1.bmp,yellow,Distractor2.bmp,cyan,Distractor2.bmp,red,Distractor2.bmp,blue,Distractor1.bmp,lime,Target2.bmp,,,,TrialProc,,TrainingTrialList,0,2,-999999,1,205811,0,1,382,206193,Target2.bmp,lime,2,,,,6,4,85
KW_Experiment5A,1,1,"<?xml version=""1.0""?>\n<Clock xmlns:dt=""urn:schemas-microsoft-com:datatypes""><Description dt:dt=""string"">E-Prime Primary Realtime Clock</Description><StartTime><Timestamp dt:dt=""int"">0</Timestamp><DateUtc dt:dt=""string"">2018-09-04T13:52:14Z</DateUtc></StartTime><FrequencyChanges><FrequencyChange><Frequency dt:dt=""r8"">3215253</Frequency><Timestamp dt:dt=""r8"">2945820180772</Timestamp><Current dt:dt=""r8"">0</Current><DateUtc dt:dt=""string"">2018-09-04T13:52:14Z</DateUtc></FrequencyChange></FrequencyChanges></Clock>\n",KW_Experiment5A-1-1,59.946,1.0.0.105,1,-526731972,Professional,2.0.10.353,2.0.10.353,9/4/2018,9/4/2018 13:52,9:52:14,2.0.10.248,3,2,1,3,,,,,,,,TrainingProc,BlockList,38,1,Distractor2.bmp,2,0,,0,1,207212,500,,0,0,red,500,2,500,1,vertical,red,Distractor2.bmp,blue,Distractor2.bmp,purple,Distractor2.bmp,lime,Target1.bmp,cyan,Distractor2.bmp,yellow,Distractor1.bmp,,,,TrialProc,,TrainingTrialList,1,1,-999999,0,207712,0,1,561,208273,Target1.bmp,lime,1,,,,4,4,86
KW_Experiment5A,1,1,"<?xml version=""1.0""?>\n<Clock xmlns:dt=""urn:schemas-microsoft-com:datatypes""><Description dt:dt=""string"">E-Prime Primary Realtime Clock</Description><StartTime><Timestamp dt:dt=""int"">0</Timestamp><DateUtc dt:dt=""string"">2018-09-04T13:52:14Z</DateUtc></StartTime><FrequencyChanges><FrequencyChange><Frequency dt:dt=""r8"">3215253</Frequency><Timestamp dt:dt=""r8"">2945820180772</Timestamp><Current dt:dt=""r8"">0</Current><DateUtc dt:dt=""string"">2018-09-04T13:52:14Z</DateUtc></FrequencyChange></FrequencyChanges></Clock>\n",KW_Experiment5A-1-1,59.946,1.0.0.105,1,-526731972,Professional,2.0.10.353,2.0.10.353,9/4/2018,9/4/2018 13:52,9:52:14,2.0.10.248,3,2,1,3,,,,,,,,TrainingProc,BlockList,39,1,Distractor2.bmp,2,0,,0,1,209297,501,,0,0,lime,500,2,500,,vertical,red,Target1.bmp,yellow,Distractor2.bmp,blue,Distractor1.bmp,cyan,Distractor1.bmp,purple,Distractor2.bmp,lime,Distractor2.bmp,,,,TrialProc,6,TrainingTrialList,1,1,-999999,1,209798,0,1,603,210401,Target1.bmp,red,1,,,,7,4,87
KW_Experiment5A,1,1,"<?xml version=""1.0""?>\n<Clock xmlns:dt=""urn:schemas-microsoft-com:datatypes""><Description dt:dt=""string"">E-Prime Primary Realtime Clock</Description><StartTime><Timestamp dt:dt=""int"">0</Timestamp><DateUtc dt:dt=""string"">2018-09-04T13:52:14Z</DateUtc></StartTime><FrequencyChanges><FrequencyChange><Frequency dt:dt=""r8"">3215253</Frequency><Timestamp dt:dt=""r8"">2945820180772</Timestamp><Current dt:dt=""r8"">0</Current><DateUtc dt:dt=""string"">2018-09-04T13:52:14Z</DateUtc></FrequencyChange></FrequencyChanges></Clock>\n",KW_Experiment5A-1-1,59.946,1.0.0.105,1,-526731972,Professional,2.0.10.353,2.0.10.353,9/4/2018,9/4/2018 13:52,9:52:14,2.0.10.248,3,2,1,3,,,,,,,,TrainingProc,BlockList,40,1,Distractor2.bmp,2,0,,0,1,211416,400,,0,0,yellow,400,1,400,2,vertical,yellow,Distractor1.bmp,lime,Target1.bmp,blue,Distractor2.bmp,red,Distractor1.bmp,purple,Distractor2.bmp,cyan,Distractor2.bmp,,,,TrialProc,,TrainingTrialList,1,1,-999999,0,211816,0,1,441,212257,Target1.bmp,lime,1,,,,2,4,88
KW_Experiment5A,1,1,"<?xml version=""1.0""?>\n<Clock xmlns:dt=""urn:schemas-microsoft-com:datatypes""><Description dt:dt=""string"">E-Prime Primary Realtime Clock</Description><StartTime><Timestamp dt:dt=""int"">0</Timestamp><DateUtc dt:dt=""string"">2018-09-04T13:52:14Z</DateUtc></StartTime><FrequencyChanges><FrequencyChange><Frequency dt:dt=""r8"">3215253</Frequency><Timestamp dt:dt=""r8"">2945820180772</Timestamp><Current dt:dt=""r8"">0</Current><DateUtc dt:dt=""string"">2018-09-04T13:52:14Z</DateUtc></FrequencyChange></FrequencyChanges></Clock>\n",KW_Experiment5A-1-1,59.946,1.0.0.105,1,-526731972,Professional,2.0.10.353,2.0.10.353,9/4/2018,9/4/2018 13:52,9:52:14,2.0.10.248,3,2,1,3,,,,,,,,TrainingProc,BlockList,41,1,Distractor1.bmp,1,0,,1,0,213267,601,,0,0,blue,600,3,600,,vertical,blue,Distractor2.bmp,red,Target1.bmp,yellow,Distractor1.bmp,cyan,Distractor1.bmp,purple,Distractor1.bmp,lime,Distractor1.bmp,,,,TrialProc,3,TrainingTrialList,1,1,-999999,1,213868,0,1,421,214289,Target1.bmp,red,1,,,,8,4,89
KW_Experiment5A,1,1,"<?xml version=""1.0""?>\n<Clock xmlns:dt=""urn:schemas-microsoft-com:datatypes""><Description dt:dt=""string"">E-Prime Primary Realtime Clock</Description><StartTime><Timestamp dt:dt=""int"">0</Timestamp><DateUtc dt:dt=""string"">2018-09-04T13:52:14Z</DateUtc></StartTime><FrequencyChanges><FrequencyChange><Frequency dt:dt=""r8"">3215253</Frequency><Timestamp dt:dt=""r8"">2945820180772</Timestamp><Current dt:dt=""r8"">0</Current><DateUtc dt:dt=""string"">2018-09-04T13:52:14Z</DateUtc></FrequencyChange></FrequencyChanges></Clock>\n",KW_Experiment5A-1-1,59.946,1.0.0.105,1,-526731972,Professional,2.0.10.353,2.0.10.353,9/4/2018,9/4/2018 13:52,9:52:14,2.0.10.248,3,2,1,3,,,,,,,,TrainingProc,BlockList,42,2,Distractor1.bmp,1,0,,0,1,215303,600,,0,0,red,600,3,600,1,horizontal,red,Distractor1.bmp,yellow,Distractor1.bmp,lime,Target2.bmp,purple,Distractor1.bmp,cyan,Distractor1.bmp,blue,Distractor2.bmp,,,,TrialProc,,TrainingTrialList,1,2,-999999,0,215903,0,2,418,216321,Target2.bmp,lime,2,,,,3,4,90
