ExperimentName,Subject,Session,Clock.Information,DataFile.Basename,Display.RefreshRate,ExperimentVersion,Group,RandomSeed,RuntimeCapabilities,RuntimeVersion,RuntimeVersionExpected,SessionDate,SessionStartDateTimeUtc,SessionTime,StudioVersion,Block,BlockList,BlockList.Cycle,BlockList.Sample,PostTestQ1.RESP,PostTestQ1CJ.RESP,PostTestQ2.RESP,PostTestQ2CJ.RESP,PostTestQ3.RESP,PostTestQ3CJ.RESP,PostTestSlide.RESP,Procedure[Block],Running[Block],Trial,CorrectResponse,Distractor,DistractorList,Fixation.ACC,Fixation.CRESP,Fixation.DurationError,Fixation.OnsetDelay,Fixation.OnsetTime,Fixation.OnsetToOnsetTime,Fixation.RESP,Fixation.RT,Fixation.RTTime,ItemColor,Jitter,JitterList,JitterTime,Lime0List,Orientation,Pos1Color,Pos1Item,Pos2Color,Pos2Item,Pos3Color,Pos3Item,Pos4Color,Pos4Item,Pos5Color,Pos5Item,Pos6Color,Pos6Item,PracticeTrialList,PracticeTrialList.Cycle,PracticeTrialList.Sample,Procedure[Trial],Red0List,Running[Trial],Stimulus.ACC,Stimulus.CRESP,Stimulus.DurationError,Stimulus.OnsetDelay,Stimulus.OnsetTime,Stimulus.OnsetToOnsetTime,Stimulus.RESP,Stimulus.RT,Stimulus.RTTime,Target,TargetColor,TargetList,TestTrialList,TestTrialList.Cycle,TestTrialList.Sample,TrainingTrialList,TrainingTrialList.Cycle,TrainingTrialList.Sample
KW_Experiment5A,30,1,"<?xml version=""1.0""?>\n<Clock xmlns:dt=""urn:schemas-microsoft-com:datatypes""><Description dt:dt=""string"">E-Prime Primary Realtime Clock</Description><StartTime><Timestamp dt:dt=""int"">0</Timestamp><DateUtc dt:dt=""string"">2018-10-18T18:53:20Z</DateUtc></StartTime><FrequencyChanges><FrequencyChange><Frequency dt:dt=""r8"">3215244</Frequency><Timestamp dt:dt=""r8"">7431061245760</Timestamp><Current dt:dt=""r8"">0</Current><DateUtc dt:dt=""string"">2018-10-18T18:53:20Z</DateUtc></FrequencyChange></FrequencyChanges></Clock>\n",KW_Experiment5A-30-1,59.944,1.0.0.105,1,768467236,Professional,2.0.10.353,2.0.10.353,10/18/2018,10/18/2018 18:53,14:53:20,2.0.10.248,1,1,1,1,,,,,,,,PracticeProc,BlockList,1,1,Distractor1.bmp,1,0,,0,66,276849,501,,0,0,blue,500,2,500,3,vertical,lime,Target1.bmp,red,Distractor1.bmp,cyan,Distractor2.bmp,yellow,Distractor1.bmp,purple,Distractor1.bmp,blue,Distractor1.bmp,1,1,1,TrialProc,,PracticeTrialList,1,1,-999999,1,277350,0,1,1121,278471,Target1.bmp,lime,1,,,,,,
KW_Experiment5A,30,1,"<?xml version=""1.0""?>\n<Clock xmlns:dt=""urn:schemas-microsoft-com:datatypes""><Description dt:dt=""string"">E-Prime Primary Realtime Clock</Description><StartTime><Timestamp dt:dt=""int"">0</Timestamp><DateUtc dt:dt=""string"">2018-10-18T18:53:20Z</DateUtc></StartTime><FrequencyChanges><FrequencyChange><Frequency dt:dt=""r8"">3215244</Frequency><Timestamp dt:dt=""r8"">7431061245760</Timestamp><Current dt:dt=""r8"">0</Current><DateUtc dt:dt=""string"">2018-10-18T18:53:20Z</DateUtc></FrequencyChange></FrequencyChanges></Clock>\n",KW_Experiment5A-30-1,59.944,1.0.0.105,1,768467236,Professional,2.0.10.353,2.0.10.353,10/18/2018,10/18/2018 18:53,14:53:20,2.0.10.248,1,1,1,1,,,,,,,,PracticeProc,BlockList,2,2,Distractor2.bmp,2,0,,0,1,279485,500,,0,0,cyan,500,2,500,4,horizontal,purple,Distractor2.bmp,cyan,Distractor1.bmp,lime,Target2.bmp,yellow,Distractor2.bmp,blue,Distractor1.bmp,red,Distractor2.bmp,3,1,2,TrialProc,,PracticeTrialList,1,2,-999999,0,279985,0,2,910,280895,Target2.bmp,lime,2,,,,,,
KW_Experiment5A,30,1,"<?xml version=""1.0""?>\n<Clock xmlns:dt=""urn:schemas-microsoft-com:datatypes""><Description dt:dt=""string"">E-Prime Primary Realtime Clock</Description><StartTime><Timestamp dt:dt=""int"">0</Timestamp><DateUtc dt:dt=""string"">2018-10-18T18:53:20Z</DateUtc></StartTime><FrequencyChanges><FrequencyChange><Frequency dt:dt=""r8"">3215244</Frequency><Timestamp dt:dt=""r8"">7431061245760</Timestamp><Current dt:dt=""r8"">0</Current><DateUtc dt:dt=""string"">2018-10-18T18:53:20Z</DateUtc></FrequencyChange></FrequencyChanges></Clock>\n",KW_Experiment5A-30-1,59.944,1.0.0.105,1,768467236,Professional,2.0.10.353,2.0.10.353,10/18/2018,10/18/2018 18:53,14:53:20,2.0.10.248,1,1,1,1,,,,,,,,PracticeProc,BlockList,3,1,Distractor1.bmp,1,0,,0,1,281904,600,,0,0,yellow,600,3,600,,vertical,yellow,Distractor1.bmp,red,Target1.bmp,cyan,Distractor1.bmp,blue,Distractor2.bmp,purple,Distractor1.bmp,lime,Distractor2.bmp,2,1,3,TrialProc,2,PracticeTrialList,0,1,-999999,0,282504,0,2,1055,283559,Target1.bmp,red,1,,,,,,
KW_Experiment5A,30,1,"<?xml version=""1.0""?>\n<Clock xmlns:dt=""urn:schemas-microsoft-com:datatypes""><Description dt:dt=""string"">E-Prime Primary Realtime Clock</Description><StartTime><Timestamp dt:dt=""int"">0</Timestamp><DateUtc dt:dt=""string"">2018-10-18T18:53:20Z</DateUtc></StartTime><FrequencyChanges><FrequencyChange><Frequency dt:dt=""r8"">3215244</Frequency><Timestamp dt:dt=""r8"">7431061245760</Timestamp><Current dt:dt=""r8"">0</Current><DateUtc dt:dt=""string"">2018-10-18T18:53:20Z</DateUtc></FrequencyChange></FrequencyChanges></Clock>\n",KW_Experiment5A-30-1,59.944,1.0.0.105,1,768467236,Professional,2.0.10.353,2.0.10.353,10/18/2018,10/18/2018 18:53,14:53:20,2.0.10.248,1,1,1,1,,,,,,,,PracticeProc,BlockList,4,1,Distractor2.bmp,2,0,,0,1,284573,400,,0,0,blue,400,1,400,3,vertical,yellow,Distractor1.bmp,purple,Distractor2.bmp,red,Distractor1.bmp,blue,Distractor2.bmp,lime,Target1.bmp,cyan,Distractor2.bmp,5,1,4,TrialProc,,PracticeTrialList,1,1,-999999,0,284973,0,1,602,285575,Target1.bmp,lime,1,,,,,,
KW_Experiment5A,30,1,"<?xml version=""1.0""?>\n<Clock xmlns:dt=""urn:schemas-microsoft-com:datatypes""><Description dt:dt=""string"">E-Prime Primary Realtime Clock</Description><StartTime><Timestamp dt:dt=""int"">0</Timestamp><DateUtc dt:dt=""string"">2018-10-18T18:53:20Z</DateUtc></StartTime><FrequencyChanges><FrequencyChange><Frequency dt:dt=""r8"">3215244</Frequency><Timestamp dt:dt=""r8"">7431061245760</Timestamp><Current dt:dt=""r8"">0</Current><DateUtc dt:dt=""string"">2018-10-18T18:53:20Z</DateUtc></FrequencyChange></FrequencyChanges></Clock>\n",KW_Experiment5A-30-1,59.944,1.0.0.105,1,768467236,Professional,2.0.10.353,2.0.10.353,10/18/2018,10/18/2018 18:53,14:53:20,2.0.10.248,1,1,1,1,,,,,,,,PracticeProc,BlockList,5,2,Distractor1.bmp,1,0,,1,0,286591,401,,0,0,cyan,400,1,400,,horizontal,lime,Distractor1.bmp,blue,Distractor2.bmp,yellow,Distractor1.bmp,purple,Distractor2.bmp,cyan,Distractor2.bmp,red,Target2.bmp,6,1,5,TrialProc,4,PracticeTrialList,1,2,-999999,1,286992,0,2,1759,288751,Target2.bmp,red,2,,,,,,
KW_Experiment5A,30,1,"<?xml version=""1.0""?>\n<Clock xmlns:dt=""urn:schemas-microsoft-com:datatypes""><Description dt:dt=""string"">E-Prime Primary Realtime Clock</Description><StartTime><Timestamp dt:dt=""int"">0</Timestamp><DateUtc dt:dt=""string"">2018-10-18T18:53:20Z</DateUtc></StartTime><FrequencyChanges><FrequencyChange><Frequency dt:dt=""r8"">3215244</Frequency><Timestamp dt:dt=""r8"">7431061245760</Timestamp><Current dt:dt=""r8"">0</Current><DateUtc dt:dt=""string"">2018-10-18T18:53:20Z</DateUtc></FrequencyChange></FrequencyChanges></Clock>\n",KW_Experiment5A-30-1,59.944,1.0.0.105,1,768467236,Professional,2.0.10.353,2.0.10.353,10/18/2018,10/18/2018 18:53,14:53:20,2.0.10.248,1,1,1,1,,,,,,,,PracticeProc,BlockList,6,1,Distractor2.bmp,2,0,,0,1,289761,601,,0,0,yellow,600,3,600,,vertical,cyan,Distractor2.bmp,blue,Distractor1.bmp,yellow,Distractor1.bmp,red,Target1.bmp,purple,Distractor2.bmp,lime,Distractor1.bmp,4,1,6,TrialProc,2,PracticeTrialList,1,1,-999999,1,290362,0,1,1045,291407,Target1.bmp,red,1,,,,,,
KW_Experiment5A,30,1,"<?xml version=""1.0""?>\n<Clock xmlns:dt=""urn:schemas-microsoft-com:datatypes""><Description dt:dt=""string"">E-Prime Primary Realtime Clock</Description><StartTime><Timestamp dt:dt=""int"">0</Timestamp><DateUtc dt:dt=""string"">2018-10-18T18:53:20Z</DateUtc></StartTime><FrequencyChanges><FrequencyChange><Frequency dt:dt=""r8"">3215244</Frequency><Timestamp dt:dt=""r8"">7431061245760</Timestamp><Current dt:dt=""r8"">0</Current><DateUtc dt:dt=""string"">2018-10-18T18:53:20Z</DateUtc></FrequencyChange></FrequencyChanges></Clock>\n",KW_Experiment5A-30-1,59.944,1.0.0.105,1,768467236,Professional,2.0.10.353,2.0.10.353,10/18/2018,10/18/2018 18:53,14:53:20,2.0.10.248,2,2,1,2,,,,,,,,TrainingProc,BlockList,1,2,Distractor1.bmp,1,0,,0,33,301255,400,,0,0,purple,400,1,400,5,horizontal,purple,Distractor1.bmp,yellow,Distractor1.bmp,red,Distractor2.bmp,blue,Distractor1.bmp,cyan,Distractor2.bmp,lime,Target2.bmp,,,,TrialProc,,TrainingTrialList,1,2,-999999,0,301655,0,2,783,302438,Target2.bmp,lime,2,,,,6,1,1
KW_Experiment5A,30,1,"<?xml version=""1.0""?>\n<Clock xmlns:dt=""urn:schemas-microsoft-com:datatypes""><Description dt:dt=""string"">E-Prime Primary Realtime Clock</Description><StartTime><Timestamp dt:dt=""int"">0</Timestamp><DateUtc dt:dt=""string"">2018-10-18T18:53:20Z</DateUtc></StartTime><FrequencyChanges><FrequencyChange><Frequency dt:dt=""r8"">3215244</Frequency><Timestamp dt:dt=""r8"">7431061245760</Timestamp><Current dt:dt=""r8"">0</Current><DateUtc dt:dt=""string"">2018-10-18T18:53:20Z</DateUtc></FrequencyChange></FrequencyChanges></Clock>\n",KW_Experiment5A-30-1,59.944,1.0.0.105,1,768467236,Professional,2.0.10.353,2.0.10.353,10/18/2018,10/18/2018 18:53,14:53:20,2.0.10.248,2,2,1,2,,,,,,,,TrainingProc,BlockList,2,1,Distractor1.bmp,1,0,,0,1,303457,601,,0,0,blue,600,3,600,3,vertical,blue,Distractor1.bmp,purple,Distractor2.bmp,yellow,Distractor2.bmp,red,Distractor2.bmp,cyan,Distractor1.bmp,lime,Target1.bmp,,,,TrialProc,,TrainingTrialList,1,1,-999999,1,304058,0,1,588,304646,Target1.bmp,lime,1,,,,6,1,2
KW_Experiment5A,30,1,"<?xml version=""1.0""?>\n<Clock xmlns:dt=""urn:schemas-microsoft-com:datatypes""><Description dt:dt=""string"">E-Prime Primary Realtime Clock</Description><StartTime><Timestamp dt:dt=""int"">0</Timestamp><DateUtc dt:dt=""string"">2018-10-18T18:53:20Z</DateUtc></StartTime><FrequencyChanges><FrequencyChange><Frequency dt:dt=""r8"">3215244</Frequency><Timestamp dt:dt=""r8"">7431061245760</Timestamp><Current dt:dt=""r8"">0</Current><DateUtc dt:dt=""string"">2018-10-18T18:53:20Z</DateUtc></FrequencyChange></FrequencyChanges></Clock>\n",KW_Experiment5A-30-1,59.944,1.0.0.105,1,768467236,Professional,2.0.10.353,2.0.10.353,10/18/2018,10/18/2018 18:53,14:53:20,2.0.10.248,2,2,1,2,,,,,,,,TrainingProc,BlockList,3,1,Distractor1.bmp,1,0,,0,1,305659,400,,0,0,blue,400,1,400,3,vertical,blue,Distractor1.bmp,lime,Target1.bmp,yellow,Distractor1.bmp,cyan,Distractor1.bmp,purple,Distractor2.bmp,red,Distractor2.bmp,,,,TrialProc,,TrainingTrialList,1,1,-999999,0,306059,0,1,931,306990,Target1.bmp,lime,1,,,,2,1,3
KW_Experiment5A,30,1,"<?xml version=""1.0""?>\n<Clock xmlns:dt=""urn:schemas-microsoft-com:datatypes""><Description dt:dt=""string"">E-Prime Primary Realtime Clock</Description><StartTime><Timestamp dt:dt=""int"">0</Timestamp><DateUtc dt:dt=""string"">2018-10-18T18:53:20Z</DateUtc></StartTime><FrequencyChanges><FrequencyChange><Frequency dt:dt=""r8"">3215244</Frequency><Timestamp dt:dt=""r8"">7431061245760</Timestamp><Current dt:dt=""r8"">0</Current><DateUtc dt:dt=""string"">2018-10-18T18:53:20Z</DateUtc></FrequencyChange></FrequencyChanges></Clock>\n",KW_Experiment5A-30-1,59.944,1.0.0.105,1,768467236,Professional,2.0.10.353,2.0.10.353,10/18/2018,10/18/2018 18:53,14:53:20,2.0.10.248,2,2,1,2,,,,,,,,TrainingProc,BlockList,4,1,Distractor1.bmp,1,0,,0,1,308011,501,,0,0,yellow,500,2,500,,vertical,yellow,Distractor1.bmp,blue,Distractor2.bmp,purple,Distractor2.bmp,cyan,Distractor1.bmp,lime,Distractor1.bmp,red,Target1.bmp,,,,TrialProc,2,TrainingTrialList,1,1,-999999,1,308512,0,1,870,309382,Target1.bmp,red,1,,,,12,1,4
KW_Experiment5A,30,1,"<?xml version=""1.0""?>\n<Clock xmlns:dt=""urn:schemas-microsoft-com:datatypes""><Description dt:dt=""string"">E-Prime Primary Realtime Clock</Description><StartTime><Timestamp dt:dt=""int"">0</Timestamp><DateUtc dt:dt=""string"">2018-10-18T18:53:20Z</DateUtc></StartTime><FrequencyChanges><FrequencyChange><Frequency dt:dt=""r8"">3215244</Frequency><Timestamp dt:dt=""r8"">7431061245760</Timestamp><Current dt:dt=""r8"">0</Current><DateUtc dt:dt=""string"">2018-10-18T18:53:20Z</DateUtc></FrequencyChange></FrequencyChanges></Clock>\n",KW_Experiment5A-30-1,59.944,1.0.0.105,1,768467236,Professional,2.0.10.353,2.0.10.353,10/18/2018,10/18/2018 18:53,14:53:20,2.0.10.248,2,2,1,2,,,,,,,,TrainingProc,BlockList,5,1,Distractor1.bmp,1,0,,0,1,310397,500,,0,0,blue,500,2,500,3,vertical,blue,Distractor1.bmp,cyan,Distractor1.bmp,purple,Distractor1.bmp,red,Distractor2.bmp,lime,Target1.bmp,yellow,Distractor1.bmp,,,,TrialProc,,TrainingTrialList,1,1,-999999,0,310897,0,1,821,311718,Target1.bmp,lime,1,,,,5,1,5
KW_Experiment5A,30,1,"<?xml version=""1.0""?>\n<Clock xmlns:dt=""urn:schemas-microsoft-com:datatypes""><Description dt:dt=""string"">E-Prime Primary Realtime Clock</Description><StartTime><Timestamp dt:dt=""int"">0</Timestamp><DateUtc dt:dt=""string"">2018-10-18T18:53:20Z</DateUtc></StartTime><FrequencyChanges><FrequencyChange><Frequency dt:dt=""r8"">3215244</Frequency><Timestamp dt:dt=""r8"">7431061245760</Timestamp><Current dt:dt=""r8"">0</Current><DateUtc dt:dt=""string"">2018-10-18T18:53:20Z</DateUtc></FrequencyChange></FrequencyChanges></Clock>\n",KW_Experiment5A-30-1,59.944,1.0.0.105,1,768467236,Professional,2.0.10.353,2.0.10.353,10/18/2018,10/18/2018 18:53,14:53:20,2.0.10.248,2,2,1,2,,,,,,,,TrainingProc,BlockList,6,2,Distractor2.bmp,2,0,,0,1,312732,401,,0,0,blue,400,1,400,3,horizontal,blue,Distractor2.bmp,purple,Distractor1.bmp,lime,Target2.bmp,cyan,Distractor2.bmp,yellow,Distractor1.bmp,red,Distractor2.bmp,,,,TrialProc,,TrainingTrialList,1,2,-999999,1,313133,0,2,649,313782,Target2.bmp,lime,2,,,,3,1,6
KW_Experiment5A,30,1,"<?xml version=""1.0""?>\n<Clock xmlns:dt=""urn:schemas-microsoft-com:datatypes""><Description dt:dt=""string"">E-Prime Primary Realtime Clock</Description><StartTime><Timestamp dt:dt=""int"">0</Timestamp><DateUtc dt:dt=""string"">2018-10-18T18:53:20Z</DateUtc></StartTime><FrequencyChanges><FrequencyChange><Frequency dt:dt=""r8"">3215244</Frequency><Timestamp dt:dt=""r8"">7431061245760</Timestamp><Current dt:dt=""r8"">0</Current><DateUtc dt:dt=""string"">2018-10-18T18:53:20Z</DateUtc></FrequencyChange></FrequencyChanges></Clock>\n",KW_Experiment5A-30-1,59.944,1.0.0.105,1,768467236,Professional,2.0.10.353,2.0.10.353,10/18/2018,10/18/2018 18:53,14:53:20,2.0.10.248,2,2,1,2,,,,,,,,TrainingProc,BlockList,7,1,Distractor2.bmp,2,0,,0,1,314801,500,,0,0,blue,500,2,500,3,vertical,lime,Target1.bmp,blue,Distractor2.bmp,purple,Distractor2.bmp,red,Distractor1.bmp,yellow,Distractor2.bmp,cyan,Distractor2.bmp,,,,TrialProc,,TrainingTrialList,1,1,-999999,0,315301,0,1,641,315942,Target1.bmp,lime,1,,,,1,1,7
KW_Experiment5A,30,1,"<?xml version=""1.0""?>\n<Clock xmlns:dt=""urn:schemas-microsoft-com:datatypes""><Description dt:dt=""string"">E-Prime Primary Realtime Clock</Description><StartTime><Timestamp dt:dt=""int"">0</Timestamp><DateUtc dt:dt=""string"">2018-10-18T18:53:20Z</DateUtc></StartTime><FrequencyChanges><FrequencyChange><Frequency dt:dt=""r8"">3215244</Frequency><Timestamp dt:dt=""r8"">7431061245760</Timestamp><Current dt:dt=""r8"">0</Current><DateUtc dt:dt=""string"">2018-10-18T18:53:20Z</DateUtc></FrequencyChange></FrequencyChanges></Clock>\n",KW_Experiment5A-30-1,59.944,1.0.0.105,1,768467236,Professional,2.0.10.353,2.0.10.353,10/18/2018,10/18/2018 18:53,14:53:20,2.0.10.248,2,2,1,2,,,,,,,,TrainingProc,BlockList,8,1,Distractor2.bmp,2,0,,0,1,316953,400,,0,0,purple,400,1,400,,vertical,purple,Distractor1.bmp,blue,Distractor2.bmp,yellow,Distractor2.bmp,red,Target1.bmp,lime,Distractor2.bmp,cyan,Distractor2.bmp,,,,TrialProc,5,TrainingTrialList,1,1,-999999,0,317353,0,1,805,318158,Target1.bmp,red,1,,,,10,1,8
KW_Experiment5A,30,1,"<?xml version=""1.0""?>\n<Clock xmlns:dt=""urn:schemas-microsoft-com:datatypes""><Description dt:dt=""string"">E-Prime Primary Realtime Clock</Description><StartTime><Timestamp dt:dt=""int"">0</Timestamp><DateUtc dt:dt=""string"">2018-10-18T18:53:20Z</DateUtc></StartTime><FrequencyChanges><FrequencyChange><Frequency dt:dt=""r8"">3215244</Frequency><Timestamp dt:dt=""r8"">7431061245760</Timestamp><Current dt:dt=""r8"">0</Current><DateUtc dt:dt=""string"">2018-10-18T18:53:20Z</DateUtc></FrequencyChange></FrequencyChanges></Clock>\n",KW_Experiment5A-30-1,59.944,1.0.0.105,1,768467236,Professional,2.0.10.353,2.0.10.353,10/18/2018,10/18/2018 18:53,14:53:20,2.0.10.248,2,2,1,2,,,,,,,,TrainingProc,BlockList,9,2,Distractor1.bmp,1,0,,0,1,319172,400,,0,0,cyan,400,1,400,4,horizontal,cyan,Distractor1.bmp,blue,Distractor2.bmp,lime,Target2.bmp,yellow,Distractor1.bmp,red,Distractor2.bmp,purple,Distractor2.bmp,,,,TrialProc,,TrainingTrialList,1,2,-999999,0,319572,0,2,842,320414,Target2.bmp,lime,2,,,,3,1,9
KW_Experiment5A,30,1,"<?xml version=""1.0""?>\n<Clock xmlns:dt=""urn:schemas-microsoft-com:datatypes""><Description dt:dt=""string"">E-Prime Primary Realtime Clock</Description><StartTime><Timestamp dt:dt=""int"">0</Timestamp><DateUtc dt:dt=""string"">2018-10-18T18:53:20Z</DateUtc></StartTime><FrequencyChanges><FrequencyChange><Frequency dt:dt=""r8"">3215244</Frequency><Timestamp dt:dt=""r8"">7431061245760</Timestamp><Current dt:dt=""r8"">0</Current><DateUtc dt:dt=""string"">2018-10-18T18:53:20Z</DateUtc></FrequencyChange></FrequencyChanges></Clock>\n",KW_Experiment5A-30-1,59.944,1.0.0.105,1,768467236,Professional,2.0.10.353,2.0.10.353,10/18/2018,10/18/2018 18:53,14:53:20,2.0.10.248,2,2,1,2,,,,,,,,TrainingProc,BlockList,10,1,Distractor1.bmp,1,0,,0,1,321424,400,,0,0,yellow,400,1,400,2,vertical,yellow,Distractor2.bmp,blue,Distractor2.bmp,purple,Distractor2.bmp,lime,Target1.bmp,red,Distractor1.bmp,cyan,Distractor1.bmp,,,,TrialProc,,TrainingTrialList,1,1,-999999,0,321824,0,1,614,322438,Target1.bmp,lime,1,,,,4,1,10
KW_Experiment5A,30,1,"<?xml version=""1.0""?>\n<Clock xmlns:dt=""urn:schemas-microsoft-com:datatypes""><Description dt:dt=""string"">E-Prime Primary Realtime Clock</Description><StartTime><Timestamp dt:dt=""int"">0</Timestamp><DateUtc dt:dt=""string"">2018-10-18T18:53:20Z</DateUtc></StartTime><FrequencyChanges><FrequencyChange><Frequency dt:dt=""r8"">3215244</Frequency><Timestamp dt:dt=""r8"">7431061245760</Timestamp><Current dt:dt=""r8"">0</Current><DateUtc dt:dt=""string"">2018-10-18T18:53:20Z</DateUtc></FrequencyChange></FrequencyChanges></Clock>\n",KW_Experiment5A-30-1,59.944,1.0.0.105,1,768467236,Professional,2.0.10.353,2.0.10.353,10/18/2018,10/18/2018 18:53,14:53:20,2.0.10.248,2,2,1,2,,,,,,,,TrainingProc,BlockList,11,2,Distractor1.bmp,1,0,,0,1,323459,500,,0,0,cyan,500,2,500,4,horizontal,cyan,Distractor1.bmp,purple,Distractor2.bmp,blue,Distractor1.bmp,lime,Target2.bmp,red,Distractor1.bmp,yellow,Distractor2.bmp,,,,TrialProc,,TrainingTrialList,1,2,-999999,0,323959,0,2,695,324654,Target2.bmp,lime,2,,,,4,1,11
KW_Experiment5A,30,1,"<?xml version=""1.0""?>\n<Clock xmlns:dt=""urn:schemas-microsoft-com:datatypes""><Description dt:dt=""string"">E-Prime Primary Realtime Clock</Description><StartTime><Timestamp dt:dt=""int"">0</Timestamp><DateUtc dt:dt=""string"">2018-10-18T18:53:20Z</DateUtc></StartTime><FrequencyChanges><FrequencyChange><Frequency dt:dt=""r8"">3215244</Frequency><Timestamp dt:dt=""r8"">7431061245760</Timestamp><Current dt:dt=""r8"">0</Current><DateUtc dt:dt=""string"">2018-10-18T18:53:20Z</DateUtc></FrequencyChange></FrequencyChanges></Clock>\n",KW_Experiment5A-30-1,59.944,1.0.0.105,1,768467236,Professional,2.0.10.353,2.0.10.353,10/18/2018,10/18/2018 18:53,14:53:20,2.0.10.248,2,2,1,2,,,,,,,,TrainingProc,BlockList,12,2,Distractor2.bmp,2,0,,1,0,325677,501,,0,0,cyan,500,2,500,4,horizontal,lime,Target2.bmp,cyan,Distractor2.bmp,blue,Distractor1.bmp,red,Distractor2.bmp,purple,Distractor1.bmp,yellow,Distractor1.bmp,,,,TrialProc,,TrainingTrialList,1,2,-999999,1,326178,0,2,868,327046,Target2.bmp,lime,2,,,,1,1,12
KW_Experiment5A,30,1,"<?xml version=""1.0""?>\n<Clock xmlns:dt=""urn:schemas-microsoft-com:datatypes""><Description dt:dt=""string"">E-Prime Primary Realtime Clock</Description><StartTime><Timestamp dt:dt=""int"">0</Timestamp><DateUtc dt:dt=""string"">2018-10-18T18:53:20Z</DateUtc></StartTime><FrequencyChanges><FrequencyChange><Frequency dt:dt=""r8"">3215244</Frequency><Timestamp dt:dt=""r8"">7431061245760</Timestamp><Current dt:dt=""r8"">0</Current><DateUtc dt:dt=""string"">2018-10-18T18:53:20Z</DateUtc></FrequencyChange></FrequencyChanges></Clock>\n",KW_Experiment5A-30-1,59.944,1.0.0.105,1,768467236,Professional,2.0.10.353,2.0.10.353,10/18/2018,10/18/2018 18:53,14:53:20,2.0.10.248,2,2,1,2,,,,,,,,TrainingProc,BlockList,13,1,Distractor1.bmp,1,0,,0,1,328063,501,,0,0,purple,500,2,500,5,vertical,lime,Target1.bmp,purple,Distractor1.bmp,red,Distractor1.bmp,blue,Distractor1.bmp,yellow,Distractor2.bmp,cyan,Distractor2.bmp,,,,TrialProc,,TrainingTrialList,1,1,-999999,1,328564,0,1,722,329286,Target1.bmp,lime,1,,,,1,1,13
KW_Experiment5A,30,1,"<?xml version=""1.0""?>\n<Clock xmlns:dt=""urn:schemas-microsoft-com:datatypes""><Description dt:dt=""string"">E-Prime Primary Realtime Clock</Description><StartTime><Timestamp dt:dt=""int"">0</Timestamp><DateUtc dt:dt=""string"">2018-10-18T18:53:20Z</DateUtc></StartTime><FrequencyChanges><FrequencyChange><Frequency dt:dt=""r8"">3215244</Frequency><Timestamp dt:dt=""r8"">7431061245760</Timestamp><Current dt:dt=""r8"">0</Current><DateUtc dt:dt=""string"">2018-10-18T18:53:20Z</DateUtc></FrequencyChange></FrequencyChanges></Clock>\n",KW_Experiment5A-30-1,59.944,1.0.0.105,1,768467236,Professional,2.0.10.353,2.0.10.353,10/18/2018,10/18/2018 18:53,14:53:20,2.0.10.248,2,2,1,2,,,,,,,,TrainingProc,BlockList,14,2,Distractor2.bmp,2,0,,1,0,330298,501,,0,0,yellow,500,2,500,2,horizontal,yellow,Distractor2.bmp,blue,Distractor2.bmp,lime,Target2.bmp,red,Distractor2.bmp,cyan,Distractor1.bmp,purple,Distractor1.bmp,,,,TrialProc,,TrainingTrialList,1,2,-999999,1,330799,0,2,791,331590,Target2.bmp,lime,2,,,,3,1,14
KW_Experiment5A,30,1,"<?xml version=""1.0""?>\n<Clock xmlns:dt=""urn:schemas-microsoft-com:datatypes""><Description dt:dt=""string"">E-Prime Primary Realtime Clock</Description><StartTime><Timestamp dt:dt=""int"">0</Timestamp><DateUtc dt:dt=""string"">2018-10-18T18:53:20Z</DateUtc></StartTime><FrequencyChanges><FrequencyChange><Frequency dt:dt=""r8"">3215244</Frequency><Timestamp dt:dt=""r8"">7431061245760</Timestamp><Current dt:dt=""r8"">0</Current><DateUtc dt:dt=""string"">2018-10-18T18:53:20Z</DateUtc></FrequencyChange></FrequencyChanges></Clock>\n",KW_Experiment5A-30-1,59.944,1.0.0.105,1,768467236,Professional,2.0.10.353,2.0.10.353,10/18/2018,10/18/2018 18:53,14:53:20,2.0.10.248,2,2,1,2,,,,,,,,TrainingProc,BlockList,15,2,Distractor2.bmp,2,0,,0,1,332601,500,,0,0,blue,500,2,500,3,horizontal,blue,Distractor2.bmp,red,Distractor1.bmp,purple,Distractor1.bmp,yellow,Distractor1.bmp,lime,Target2.bmp,cyan,Distractor2.bmp,,,,TrialProc,,TrainingTrialList,1,2,-999999,0,333101,0,2,673,333774,Target2.bmp,lime,2,,,,5,1,15
KW_Experiment5A,30,1,"<?xml version=""1.0""?>\n<Clock xmlns:dt=""urn:schemas-microsoft-com:datatypes""><Description dt:dt=""string"">E-Prime Primary Realtime Clock</Description><StartTime><Timestamp dt:dt=""int"">0</Timestamp><DateUtc dt:dt=""string"">2018-10-18T18:53:20Z</DateUtc></StartTime><FrequencyChanges><FrequencyChange><Frequency dt:dt=""r8"">3215244</Frequency><Timestamp dt:dt=""r8"">7431061245760</Timestamp><Current dt:dt=""r8"">0</Current><DateUtc dt:dt=""string"">2018-10-18T18:53:20Z</DateUtc></FrequencyChange></FrequencyChanges></Clock>\n",KW_Experiment5A-30-1,59.944,1.0.0.105,1,768467236,Professional,2.0.10.353,2.0.10.353,10/18/2018,10/18/2018 18:53,14:53:20,2.0.10.248,2,2,1,2,,,,,,,,TrainingProc,BlockList,16,1,Distractor2.bmp,2,0,,0,1,334786,400,,0,0,cyan,400,1,400,4,vertical,cyan,Distractor2.bmp,lime,Target1.bmp,purple,Distractor2.bmp,red,Distractor1.bmp,yellow,Distractor2.bmp,blue,Distractor2.bmp,,,,TrialProc,,TrainingTrialList,1,1,-999999,0,335186,0,1,692,335878,Target1.bmp,lime,1,,,,2,1,16
KW_Experiment5A,30,1,"<?xml version=""1.0""?>\n<Clock xmlns:dt=""urn:schemas-microsoft-com:datatypes""><Description dt:dt=""string"">E-Prime Primary Realtime Clock</Description><StartTime><Timestamp dt:dt=""int"">0</Timestamp><DateUtc dt:dt=""string"">2018-10-18T18:53:20Z</DateUtc></StartTime><FrequencyChanges><FrequencyChange><Frequency dt:dt=""r8"">3215244</Frequency><Timestamp dt:dt=""r8"">7431061245760</Timestamp><Current dt:dt=""r8"">0</Current><DateUtc dt:dt=""string"">2018-10-18T18:53:20Z</DateUtc></FrequencyChange></FrequencyChanges></Clock>\n",KW_Experiment5A-30-1,59.944,1.0.0.105,1,768467236,Professional,2.0.10.353,2.0.10.353,10/18/2018,10/18/2018 18:53,14:53:20,2.0.10.248,2,2,1,2,,,,,,,,TrainingProc,BlockList,17,2,Distractor2.bmp,2,0,,0,1,336888,500,,0,0,purple,500,2,500,5,horizontal,purple,Distractor2.bmp,red,Distractor2.bmp,blue,Distractor2.bmp,cyan,Distractor2.bmp,lime,Target2.bmp,yellow,Distractor2.bmp,,,,TrialProc,,TrainingTrialList,1,2,-999999,0,337388,0,2,786,338174,Target2.bmp,lime,2,,,,5,1,17
KW_Experiment5A,30,1,"<?xml version=""1.0""?>\n<Clock xmlns:dt=""urn:schemas-microsoft-com:datatypes""><Description dt:dt=""string"">E-Prime Primary Realtime Clock</Description><StartTime><Timestamp dt:dt=""int"">0</Timestamp><DateUtc dt:dt=""string"">2018-10-18T18:53:20Z</DateUtc></StartTime><FrequencyChanges><FrequencyChange><Frequency dt:dt=""r8"">3215244</Frequency><Timestamp dt:dt=""r8"">7431061245760</Timestamp><Current dt:dt=""r8"">0</Current><DateUtc dt:dt=""string"">2018-10-18T18:53:20Z</DateUtc></FrequencyChange></FrequencyChanges></Clock>\n",KW_Experiment5A-30-1,59.944,1.0.0.105,1,768467236,Professional,2.0.10.353,2.0.10.353,10/18/2018,10/18/2018 18:53,14:53:20,2.0.10.248,2,2,1,2,,,,,,,,TrainingProc,BlockList,18,1,Distractor1.bmp,1,0,,0,1,339190,601,,0,0,lime,600,3,600,,vertical,lime,Distractor2.bmp,purple,Distractor2.bmp,red,Target1.bmp,cyan,Distractor1.bmp,blue,Distractor2.bmp,yellow,Distractor2.bmp,,,,TrialProc,6,TrainingTrialList,1,1,-999999,1,339791,0,1,1039,340830,Target1.bmp,red,1,,,,9,1,18
KW_Experiment5A,30,1,"<?xml version=""1.0""?>\n<Clock xmlns:dt=""urn:schemas-microsoft-com:datatypes""><Description dt:dt=""string"">E-Prime Primary Realtime Clock</Description><StartTime><Timestamp dt:dt=""int"">0</Timestamp><DateUtc dt:dt=""string"">2018-10-18T18:53:20Z</DateUtc></StartTime><FrequencyChanges><FrequencyChange><Frequency dt:dt=""r8"">3215244</Frequency><Timestamp dt:dt=""r8"">7431061245760</Timestamp><Current dt:dt=""r8"">0</Current><DateUtc dt:dt=""string"">2018-10-18T18:53:20Z</DateUtc></FrequencyChange></FrequencyChanges></Clock>\n",KW_Experiment5A-30-1,59.944,1.0.0.105,1,768467236,Professional,2.0.10.353,2.0.10.353,10/18/2018,10/18/2018 18:53,14:53:20,2.0.10.248,2,2,1,2,,,,,,,,TrainingProc,BlockList,19,2,Distractor2.bmp,2,0,,0,1,341842,501,,0,0,cyan,500,2,500,4,horizontal,cyan,Distractor1.bmp,lime,Target2.bmp,yellow,Distractor2.bmp,blue,Distractor2.bmp,red,Distractor2.bmp,purple,Distractor1.bmp,,,,TrialProc,,TrainingTrialList,1,2,-999999,1,342343,0,2,855,343198,Target2.bmp,lime,2,,,,2,1,19
KW_Experiment5A,30,1,"<?xml version=""1.0""?>\n<Clock xmlns:dt=""urn:schemas-microsoft-com:datatypes""><Description dt:dt=""string"">E-Prime Primary Realtime Clock</Description><StartTime><Timestamp dt:dt=""int"">0</Timestamp><DateUtc dt:dt=""string"">2018-10-18T18:53:20Z</DateUtc></StartTime><FrequencyChanges><FrequencyChange><Frequency dt:dt=""r8"">3215244</Frequency><Timestamp dt:dt=""r8"">7431061245760</Timestamp><Current dt:dt=""r8"">0</Current><DateUtc dt:dt=""string"">2018-10-18T18:53:20Z</DateUtc></FrequencyChange></FrequencyChanges></Clock>\n",KW_Experiment5A-30-1,59.944,1.0.0.105,1,768467236,Professional,2.0.10.353,2.0.10.353,10/18/2018,10/18/2018 18:53,14:53:20,2.0.10.248,2,2,1,2,,,,,,,,TrainingProc,BlockList,20,2,Distractor1.bmp,1,0,,0,1,344211,601,,0,0,cyan,600,3,600,,horizontal,cyan,Distractor1.bmp,red,Target2.bmp,purple,Distractor1.bmp,blue,Distractor2.bmp,yellow,Distractor2.bmp,lime,Distractor1.bmp,,,,TrialProc,4,TrainingTrialList,1,2,-999999,1,344812,0,2,778,345590,Target2.bmp,red,2,,,,8,1,20
KW_Experiment5A,30,1,"<?xml version=""1.0""?>\n<Clock xmlns:dt=""urn:schemas-microsoft-com:datatypes""><Description dt:dt=""string"">E-Prime Primary Realtime Clock</Description><StartTime><Timestamp dt:dt=""int"">0</Timestamp><DateUtc dt:dt=""string"">2018-10-18T18:53:20Z</DateUtc></StartTime><FrequencyChanges><FrequencyChange><Frequency dt:dt=""r8"">3215244</Frequency><Timestamp dt:dt=""r8"">7431061245760</Timestamp><Current dt:dt=""r8"">0</Current><DateUtc dt:dt=""string"">2018-10-18T18:53:20Z</DateUtc></FrequencyChange></FrequencyChanges></Clock>\n",KW_Experiment5A-30-1,59.944,1.0.0.105,1,768467236,Professional,2.0.10.353,2.0.10.353,10/18/2018,10/18/2018 18:53,14:53:20,2.0.10.248,2,2,1,2,,,,,,,,TrainingProc,BlockList,21,1,Distractor1.bmp,1,0,,1,0,346613,501,,0,0,yellow,500,2,500,2,vertical,yellow,Distractor1.bmp,purple,Distractor2.bmp,cyan,Distractor2.bmp,red,Distractor1.bmp,blue,Distractor1.bmp,lime,Target1.bmp,,,,TrialProc,,TrainingTrialList,1,1,-999999,1,347114,0,1,1132,348246,Target1.bmp,lime,1,,,,6,1,21
KW_Experiment5A,30,1,"<?xml version=""1.0""?>\n<Clock xmlns:dt=""urn:schemas-microsoft-com:datatypes""><Description dt:dt=""string"">E-Prime Primary Realtime Clock</Description><StartTime><Timestamp dt:dt=""int"">0</Timestamp><DateUtc dt:dt=""string"">2018-10-18T18:53:20Z</DateUtc></StartTime><FrequencyChanges><FrequencyChange><Frequency dt:dt=""r8"">3215244</Frequency><Timestamp dt:dt=""r8"">7431061245760</Timestamp><Current dt:dt=""r8"">0</Current><DateUtc dt:dt=""string"">2018-10-18T18:53:20Z</DateUtc></FrequencyChange></FrequencyChanges></Clock>\n",KW_Experiment5A-30-1,59.944,1.0.0.105,1,768467236,Professional,2.0.10.353,2.0.10.353,10/18/2018,10/18/2018 18:53,14:53:20,2.0.10.248,2,2,1,2,,,,,,,,TrainingProc,BlockList,22,1,Distractor1.bmp,1,0,,0,1,349266,600,,0,0,purple,600,3,600,,vertical,red,Target1.bmp,blue,Distractor1.bmp,yellow,Distractor2.bmp,lime,Distractor2.bmp,cyan,Distractor2.bmp,purple,Distractor2.bmp,,,,TrialProc,5,TrainingTrialList,1,1,-999999,0,349866,0,1,564,350430,Target1.bmp,red,1,,,,7,1,22
KW_Experiment5A,30,1,"<?xml version=""1.0""?>\n<Clock xmlns:dt=""urn:schemas-microsoft-com:datatypes""><Description dt:dt=""string"">E-Prime Primary Realtime Clock</Description><StartTime><Timestamp dt:dt=""int"">0</Timestamp><DateUtc dt:dt=""string"">2018-10-18T18:53:20Z</DateUtc></StartTime><FrequencyChanges><FrequencyChange><Frequency dt:dt=""r8"">3215244</Frequency><Timestamp dt:dt=""r8"">7431061245760</Timestamp><Current dt:dt=""r8"">0</Current><DateUtc dt:dt=""string"">2018-10-18T18:53:20Z</DateUtc></FrequencyChange></FrequencyChanges></Clock>\n",KW_Experiment5A-30-1,59.944,1.0.0.105,1,768467236,Professional,2.0.10.353,2.0.10.353,10/18/2018,10/18/2018 18:53,14:53:20,2.0.10.248,2,2,1,2,,,,,,,,TrainingProc,BlockList,23,2,Distractor1.bmp,1,0,,0,1,351451,601,,0,0,yellow,600,3,600,,horizontal,yellow,Distractor1.bmp,purple,Distractor1.bmp,blue,Distractor1.bmp,lime,Distractor1.bmp,red,Target2.bmp,cyan,Distractor1.bmp,,,,TrialProc,2,TrainingTrialList,1,2,-999999,1,352052,0,2,642,352694,Target2.bmp,red,2,,,,11,1,23
KW_Experiment5A,30,1,"<?xml version=""1.0""?>\n<Clock xmlns:dt=""urn:schemas-microsoft-com:datatypes""><Description dt:dt=""string"">E-Prime Primary Realtime Clock</Description><StartTime><Timestamp dt:dt=""int"">0</Timestamp><DateUtc dt:dt=""string"">2018-10-18T18:53:20Z</DateUtc></StartTime><FrequencyChanges><FrequencyChange><Frequency dt:dt=""r8"">3215244</Frequency><Timestamp dt:dt=""r8"">7431061245760</Timestamp><Current dt:dt=""r8"">0</Current><DateUtc dt:dt=""string"">2018-10-18T18:53:20Z</DateUtc></FrequencyChange></FrequencyChanges></Clock>\n",KW_Experiment5A-30-1,59.944,1.0.0.105,1,768467236,Professional,2.0.10.353,2.0.10.353,10/18/2018,10/18/2018 18:53,14:53:20,2.0.10.248,2,2,1,2,,,,,,,,TrainingProc,BlockList,24,1,Distractor1.bmp,1,0,,0,1,353703,601,,0,0,cyan,600,3,600,4,vertical,cyan,Distractor2.bmp,red,Distractor2.bmp,purple,Distractor2.bmp,lime,Target1.bmp,yellow,Distractor1.bmp,blue,Distractor2.bmp,,,,TrialProc,,TrainingTrialList,1,1,-999999,1,354304,0,1,622,354926,Target1.bmp,lime,1,,,,4,1,24
KW_Experiment5A,30,1,"<?xml version=""1.0""?>\n<Clock xmlns:dt=""urn:schemas-microsoft-com:datatypes""><Description dt:dt=""string"">E-Prime Primary Realtime Clock</Description><StartTime><Timestamp dt:dt=""int"">0</Timestamp><DateUtc dt:dt=""string"">2018-10-18T18:53:20Z</DateUtc></StartTime><FrequencyChanges><FrequencyChange><Frequency dt:dt=""r8"">3215244</Frequency><Timestamp dt:dt=""r8"">7431061245760</Timestamp><Current dt:dt=""r8"">0</Current><DateUtc dt:dt=""string"">2018-10-18T18:53:20Z</DateUtc></FrequencyChange></FrequencyChanges></Clock>\n",KW_Experiment5A-30-1,59.944,1.0.0.105,1,768467236,Professional,2.0.10.353,2.0.10.353,10/18/2018,10/18/2018 18:53,14:53:20,2.0.10.248,2,2,1,2,,,,,,,,TrainingProc,BlockList,25,2,Distractor2.bmp,2,0,,0,1,355939,400,,0,0,cyan,400,1,400,,horizontal,cyan,Distractor2.bmp,purple,Distractor1.bmp,blue,Distractor2.bmp,lime,Distractor2.bmp,red,Target2.bmp,yellow,Distractor2.bmp,,,,TrialProc,4,TrainingTrialList,0,2,-999999,0,356339,0,1,747,357086,Target2.bmp,red,2,,,,11,2,25
KW_Experiment5A,30,1,"<?xml version=""1.0""?>\n<Clock xmlns:dt=""urn:schemas-microsoft-com:datatypes""><Description dt:dt=""string"">E-Prime Primary Realtime Clock</Description><StartTime><Timestamp dt:dt=""int"">0</Timestamp><DateUtc dt:dt=""string"">2018-10-18T18:53:20Z</DateUtc></StartTime><FrequencyChanges><FrequencyChange><Frequency dt:dt=""r8"">3215244</Frequency><Timestamp dt:dt=""r8"">7431061245760</Timestamp><Current dt:dt=""r8"">0</Current><DateUtc dt:dt=""string"">2018-10-18T18:53:20Z</DateUtc></FrequencyChange></FrequencyChanges></Clock>\n",KW_Experiment5A-30-1,59.944,1.0.0.105,1,768467236,Professional,2.0.10.353,2.0.10.353,10/18/2018,10/18/2018 18:53,14:53:20,2.0.10.248,2,2,1,2,,,,,,,,TrainingProc,BlockList,26,1,Distractor1.bmp,1,0,,0,0,358107,601,,0,0,yellow,600,3,600,2,vertical,yellow,Distractor1.bmp,cyan,Distractor2.bmp,purple,Distractor2.bmp,blue,Distractor1.bmp,red,Distractor2.bmp,lime,Target1.bmp,,,,TrialProc,,TrainingTrialList,1,1,-999999,1,358708,0,1,762,359470,Target1.bmp,lime,1,,,,6,2,26
KW_Experiment5A,30,1,"<?xml version=""1.0""?>\n<Clock xmlns:dt=""urn:schemas-microsoft-com:datatypes""><Description dt:dt=""string"">E-Prime Primary Realtime Clock</Description><StartTime><Timestamp dt:dt=""int"">0</Timestamp><DateUtc dt:dt=""string"">2018-10-18T18:53:20Z</DateUtc></StartTime><FrequencyChanges><FrequencyChange><Frequency dt:dt=""r8"">3215244</Frequency><Timestamp dt:dt=""r8"">7431061245760</Timestamp><Current dt:dt=""r8"">0</Current><DateUtc dt:dt=""string"">2018-10-18T18:53:20Z</DateUtc></FrequencyChange></FrequencyChanges></Clock>\n",KW_Experiment5A-30-1,59.944,1.0.0.105,1,768467236,Professional,2.0.10.353,2.0.10.353,10/18/2018,10/18/2018 18:53,14:53:20,2.0.10.248,2,2,1,2,,,,,,,,TrainingProc,BlockList,27,2,Distractor1.bmp,1,0,,0,1,360493,600,,0,0,purple,600,3,600,,horizontal,purple,Distractor1.bmp,yellow,Distractor2.bmp,cyan,Distractor2.bmp,red,Target2.bmp,blue,Distractor1.bmp,lime,Distractor1.bmp,,,,TrialProc,5,TrainingTrialList,1,2,-999999,0,361093,0,2,665,361758,Target2.bmp,red,2,,,,10,2,27
KW_Experiment5A,30,1,"<?xml version=""1.0""?>\n<Clock xmlns:dt=""urn:schemas-microsoft-com:datatypes""><Description dt:dt=""string"">E-Prime Primary Realtime Clock</Description><StartTime><Timestamp dt:dt=""int"">0</Timestamp><DateUtc dt:dt=""string"">2018-10-18T18:53:20Z</DateUtc></StartTime><FrequencyChanges><FrequencyChange><Frequency dt:dt=""r8"">3215244</Frequency><Timestamp dt:dt=""r8"">7431061245760</Timestamp><Current dt:dt=""r8"">0</Current><DateUtc dt:dt=""string"">2018-10-18T18:53:20Z</DateUtc></FrequencyChange></FrequencyChanges></Clock>\n",KW_Experiment5A-30-1,59.944,1.0.0.105,1,768467236,Professional,2.0.10.353,2.0.10.353,10/18/2018,10/18/2018 18:53,14:53:20,2.0.10.248,2,2,1,2,,,,,,,,TrainingProc,BlockList,28,2,Distractor2.bmp,2,0,,0,1,362778,401,,0,0,blue,400,1,400,3,horizontal,blue,Distractor2.bmp,red,Distractor1.bmp,yellow,Distractor1.bmp,lime,Target2.bmp,cyan,Distractor2.bmp,purple,Distractor2.bmp,,,,TrialProc,,TrainingTrialList,1,2,-999999,1,363179,0,2,763,363942,Target2.bmp,lime,2,,,,4,2,28
KW_Experiment5A,30,1,"<?xml version=""1.0""?>\n<Clock xmlns:dt=""urn:schemas-microsoft-com:datatypes""><Description dt:dt=""string"">E-Prime Primary Realtime Clock</Description><StartTime><Timestamp dt:dt=""int"">0</Timestamp><DateUtc dt:dt=""string"">2018-10-18T18:53:20Z</DateUtc></StartTime><FrequencyChanges><FrequencyChange><Frequency dt:dt=""r8"">3215244</Frequency><Timestamp dt:dt=""r8"">7431061245760</Timestamp><Current dt:dt=""r8"">0</Current><DateUtc dt:dt=""string"">2018-10-18T18:53:20Z</DateUtc></FrequencyChange></FrequencyChanges></Clock>\n",KW_Experiment5A-30-1,59.944,1.0.0.105,1,768467236,Professional,2.0.10.353,2.0.10.353,10/18/2018,10/18/2018 18:53,14:53:20,2.0.10.248,2,2,1,2,,,,,,,,TrainingProc,BlockList,29,1,Distractor1.bmp,1,0,,0,1,364964,400,,0,0,yellow,400,1,400,,vertical,red,Target1.bmp,blue,Distractor1.bmp,cyan,Distractor2.bmp,lime,Distractor2.bmp,purple,Distractor1.bmp,yellow,Distractor1.bmp,,,,TrialProc,2,TrainingTrialList,1,1,-999999,0,365364,0,1,714,366078,Target1.bmp,red,1,,,,7,2,29
KW_Experiment5A,30,1,"<?xml version=""1.0""?>\n<Clock xmlns:dt=""urn:schemas-microsoft-com:datatypes""><Description dt:dt=""string"">E-Prime Primary Realtime Clock</Description><StartTime><Timestamp dt:dt=""int"">0</Timestamp><DateUtc dt:dt=""string"">2018-10-18T18:53:20Z</DateUtc></StartTime><FrequencyChanges><FrequencyChange><Frequency dt:dt=""r8"">3215244</Frequency><Timestamp dt:dt=""r8"">7431061245760</Timestamp><Current dt:dt=""r8"">0</Current><DateUtc dt:dt=""string"">2018-10-18T18:53:20Z</DateUtc></FrequencyChange></FrequencyChanges></Clock>\n",KW_Experiment5A-30-1,59.944,1.0.0.105,1,768467236,Professional,2.0.10.353,2.0.10.353,10/18/2018,10/18/2018 18:53,14:53:20,2.0.10.248,2,2,1,2,,,,,,,,TrainingProc,BlockList,30,1,Distractor1.bmp,1,0,,0,1,367099,500,,0,0,red,500,2,500,1,vertical,red,Distractor2.bmp,yellow,Distractor1.bmp,blue,Distractor2.bmp,purple,Distractor2.bmp,lime,Target1.bmp,cyan,Distractor1.bmp,,,,TrialProc,,TrainingTrialList,1,1,-999999,0,367599,0,1,511,368110,Target1.bmp,lime,1,,,,5,2,30
KW_Experiment5A,30,1,"<?xml version=""1.0""?>\n<Clock xmlns:dt=""urn:schemas-microsoft-com:datatypes""><Description dt:dt=""string"">E-Prime Primary Realtime Clock</Description><StartTime><Timestamp dt:dt=""int"">0</Timestamp><DateUtc dt:dt=""string"">2018-10-18T18:53:20Z</DateUtc></StartTime><FrequencyChanges><FrequencyChange><Frequency dt:dt=""r8"">3215244</Frequency><Timestamp dt:dt=""r8"">7431061245760</Timestamp><Current dt:dt=""r8"">0</Current><DateUtc dt:dt=""string"">2018-10-18T18:53:20Z</DateUtc></FrequencyChange></FrequencyChanges></Clock>\n",KW_Experiment5A-30-1,59.944,1.0.0.105,1,768467236,Professional,2.0.10.353,2.0.10.353,10/18/2018,10/18/2018 18:53,14:53:20,2.0.10.248,2,2,1,2,,,,,,,,TrainingProc,BlockList,31,1,Distractor2.bmp,2,0,,0,1,369134,601,,0,0,cyan,600,3,600,4,vertical,cyan,Distractor1.bmp,yellow,Distractor1.bmp,purple,Distractor2.bmp,lime,Target1.bmp,red,Distractor2.bmp,blue,Distractor2.bmp,,,,TrialProc,,TrainingTrialList,1,1,-999999,1,369735,0,1,487,370222,Target1.bmp,lime,1,,,,4,2,31
KW_Experiment5A,30,1,"<?xml version=""1.0""?>\n<Clock xmlns:dt=""urn:schemas-microsoft-com:datatypes""><Description dt:dt=""string"">E-Prime Primary Realtime Clock</Description><StartTime><Timestamp dt:dt=""int"">0</Timestamp><DateUtc dt:dt=""string"">2018-10-18T18:53:20Z</DateUtc></StartTime><FrequencyChanges><FrequencyChange><Frequency dt:dt=""r8"">3215244</Frequency><Timestamp dt:dt=""r8"">7431061245760</Timestamp><Current dt:dt=""r8"">0</Current><DateUtc dt:dt=""string"">2018-10-18T18:53:20Z</DateUtc></FrequencyChange></FrequencyChanges></Clock>\n",KW_Experiment5A-30-1,59.944,1.0.0.105,1,768467236,Professional,2.0.10.353,2.0.10.353,10/18/2018,10/18/2018 18:53,14:53:20,2.0.10.248,2,2,1,2,,,,,,,,TrainingProc,BlockList,32,1,Distractor1.bmp,1,0,,0,1,371236,401,,0,0,cyan,400,1,400,4,vertical,lime,Target1.bmp,cyan,Distractor1.bmp,yellow,Distractor1.bmp,purple,Distractor2.bmp,blue,Distractor1.bmp,red,Distractor2.bmp,,,,TrialProc,,TrainingTrialList,1,1,-999999,1,371637,0,1,1345,372982,Target1.bmp,lime,1,,,,1,2,32
KW_Experiment5A,30,1,"<?xml version=""1.0""?>\n<Clock xmlns:dt=""urn:schemas-microsoft-com:datatypes""><Description dt:dt=""string"">E-Prime Primary Realtime Clock</Description><StartTime><Timestamp dt:dt=""int"">0</Timestamp><DateUtc dt:dt=""string"">2018-10-18T18:53:20Z</DateUtc></StartTime><FrequencyChanges><FrequencyChange><Frequency dt:dt=""r8"">3215244</Frequency><Timestamp dt:dt=""r8"">7431061245760</Timestamp><Current dt:dt=""r8"">0</Current><DateUtc dt:dt=""string"">2018-10-18T18:53:20Z</DateUtc></FrequencyChange></FrequencyChanges></Clock>\n",KW_Experiment5A-30-1,59.944,1.0.0.105,1,768467236,Professional,2.0.10.353,2.0.10.353,10/18/2018,10/18/2018 18:53,14:53:20,2.0.10.248,2,2,1,2,,,,,,,,TrainingProc,BlockList,33,2,Distractor1.bmp,1,0,,0,1,374005,601,,0,0,lime,600,3,600,,horizontal,lime,Distractor1.bmp,yellow,Distractor1.bmp,purple,Distractor1.bmp,cyan,Distractor1.bmp,blue,Distractor2.bmp,red,Target2.bmp,,,,TrialProc,6,TrainingTrialList,1,2,-999999,1,374606,0,2,672,375278,Target2.bmp,red,2,,,,12,2,33
KW_Experiment5A,30,1,"<?xml version=""1.0""?>\n<Clock xmlns:dt=""urn:schemas-microsoft-com:datatypes""><Description dt:dt=""string"">E-Prime Primary Realtime Clock</Description><StartTime><Timestamp dt:dt=""int"">0</Timestamp><DateUtc dt:dt=""string"">2018-10-18T18:53:20Z</DateUtc></StartTime><FrequencyChanges><FrequencyChange><Frequency dt:dt=""r8"">3215244</Frequency><Timestamp dt:dt=""r8"">7431061245760</Timestamp><Current dt:dt=""r8"">0</Current><DateUtc dt:dt=""string"">2018-10-18T18:53:20Z</DateUtc></FrequencyChange></FrequencyChanges></Clock>\n",KW_Experiment5A-30-1,59.944,1.0.0.105,1,768467236,Professional,2.0.10.353,2.0.10.353,10/18/2018,10/18/2018 18:53,14:53:20,2.0.10.248,2,2,1,2,,,,,,,,TrainingProc,BlockList,34,1,Distractor2.bmp,2,0,,0,1,376291,400,,0,0,lime,400,1,400,,vertical,lime,Distractor2.bmp,blue,Distractor1.bmp,red,Target1.bmp,cyan,Distractor2.bmp,purple,Distractor1.bmp,yellow,Distractor1.bmp,,,,TrialProc,6,TrainingTrialList,1,1,-999999,0,376691,0,1,635,377326,Target1.bmp,red,1,,,,9,2,34
KW_Experiment5A,30,1,"<?xml version=""1.0""?>\n<Clock xmlns:dt=""urn:schemas-microsoft-com:datatypes""><Description dt:dt=""string"">E-Prime Primary Realtime Clock</Description><StartTime><Timestamp dt:dt=""int"">0</Timestamp><DateUtc dt:dt=""string"">2018-10-18T18:53:20Z</DateUtc></StartTime><FrequencyChanges><FrequencyChange><Frequency dt:dt=""r8"">3215244</Frequency><Timestamp dt:dt=""r8"">7431061245760</Timestamp><Current dt:dt=""r8"">0</Current><DateUtc dt:dt=""string"">2018-10-18T18:53:20Z</DateUtc></FrequencyChange></FrequencyChanges></Clock>\n",KW_Experiment5A-30-1,59.944,1.0.0.105,1,768467236,Professional,2.0.10.353,2.0.10.353,10/18/2018,10/18/2018 18:53,14:53:20,2.0.10.248,2,2,1,2,,,,,,,,TrainingProc,BlockList,35,2,Distractor2.bmp,2,0,,0,1,378343,500,,0,0,red,500,2,500,1,horizontal,red,Distractor1.bmp,yellow,Distractor2.bmp,blue,Distractor2.bmp,purple,Distractor2.bmp,lime,Target2.bmp,cyan,Distractor2.bmp,,,,TrialProc,,TrainingTrialList,1,2,-999999,0,378843,0,2,611,379454,Target2.bmp,lime,2,,,,5,2,35
KW_Experiment5A,30,1,"<?xml version=""1.0""?>\n<Clock xmlns:dt=""urn:schemas-microsoft-com:datatypes""><Description dt:dt=""string"">E-Prime Primary Realtime Clock</Description><StartTime><Timestamp dt:dt=""int"">0</Timestamp><DateUtc dt:dt=""string"">2018-10-18T18:53:20Z</DateUtc></StartTime><FrequencyChanges><FrequencyChange><Frequency dt:dt=""r8"">3215244</Frequency><Timestamp dt:dt=""r8"">7431061245760</Timestamp><Current dt:dt=""r8"">0</Current><DateUtc dt:dt=""string"">2018-10-18T18:53:20Z</DateUtc></FrequencyChange></FrequencyChanges></Clock>\n",KW_Experiment5A-30-1,59.944,1.0.0.105,1,768467236,Professional,2.0.10.353,2.0.10.353,10/18/2018,10/18/2018 18:53,14:53:20,2.0.10.248,2,2,1,2,,,,,,,,TrainingProc,BlockList,36,1,Distractor1.bmp,1,0,,0,1,380478,501,,0,0,yellow,500,2,500,2,vertical,yellow,Distractor1.bmp,lime,Target1.bmp,purple,Distractor1.bmp,cyan,Distractor2.bmp,red,Distractor1.bmp,blue,Distractor2.bmp,,,,TrialProc,,TrainingTrialList,1,1,-999999,1,380979,0,1,1171,382150,Target1.bmp,lime,1,,,,2,2,36
KW_Experiment5A,30,1,"<?xml version=""1.0""?>\n<Clock xmlns:dt=""urn:schemas-microsoft-com:datatypes""><Description dt:dt=""string"">E-Prime Primary Realtime Clock</Description><StartTime><Timestamp dt:dt=""int"">0</Timestamp><DateUtc dt:dt=""string"">2018-10-18T18:53:20Z</DateUtc></StartTime><FrequencyChanges><FrequencyChange><Frequency dt:dt=""r8"">3215244</Frequency><Timestamp dt:dt=""r8"">7431061245760</Timestamp><Current dt:dt=""r8"">0</Current><DateUtc dt:dt=""string"">2018-10-18T18:53:20Z</DateUtc></FrequencyChange></FrequencyChanges></Clock>\n",KW_Experiment5A-30-1,59.944,1.0.0.105,1,768467236,Professional,2.0.10.353,2.0.10.353,10/18/2018,10/18/2018 18:53,14:53:20,2.0.10.248,2,2,1,2,,,,,,,,TrainingProc,BlockList,37,1,Distractor1.bmp,1,0,,0,1,383164,500,,0,0,yellow,500,2,500,2,vertical,yellow,Distractor1.bmp,lime,Target1.bmp,cyan,Distractor1.bmp,red,Distractor2.bmp,purple,Distractor2.bmp,blue,Distractor1.bmp,,,,TrialProc,,TrainingTrialList,1,1,-999999,0,383664,0,1,478,384142,Target1.bmp,lime,1,,,,2,2,37
KW_Experiment5A,30,1,"<?xml version=""1.0""?>\n<Clock xmlns:dt=""urn:schemas-microsoft-com:datatypes""><Description dt:dt=""string"">E-Prime Primary Realtime Clock</Description><StartTime><Timestamp dt:dt=""int"">0</Timestamp><DateUtc dt:dt=""string"">2018-10-18T18:53:20Z</DateUtc></StartTime><FrequencyChanges><FrequencyChange><Frequency dt:dt=""r8"">3215244</Frequency><Timestamp dt:dt=""r8"">7431061245760</Timestamp><Current dt:dt=""r8"">0</Current><DateUtc dt:dt=""string"">2018-10-18T18:53:20Z</DateUtc></FrequencyChange></FrequencyChanges></Clock>\n",KW_Experiment5A-30-1,59.944,1.0.0.105,1,768467236,Professional,2.0.10.353,2.0.10.353,10/18/2018,10/18/2018 18:53,14:53:20,2.0.10.248,2,2,1,2,,,,,,,,TrainingProc,BlockList,38,2,Distractor1.bmp,1,0,,0,1,385166,500,,0,0,purple,500,2,500,5,horizontal,lime,Target2.bmp,purple,Distractor1.bmp,blue,Distractor1.bmp,yellow,Distractor1.bmp,red,Distractor2.bmp,cyan,Distractor2.bmp,,,,TrialProc,,TrainingTrialList,1,2,-999999,0,385666,0,2,676,386342,Target2.bmp,lime,2,,,,1,2,38
KW_Experiment5A,30,1,"<?xml version=""1.0""?>\n<Clock xmlns:dt=""urn:schemas-microsoft-com:datatypes""><Description dt:dt=""string"">E-Prime Primary Realtime Clock</Description><StartTime><Timestamp dt:dt=""int"">0</Timestamp><DateUtc dt:dt=""string"">2018-10-18T18:53:20Z</DateUtc></StartTime><FrequencyChanges><FrequencyChange><Frequency dt:dt=""r8"">3215244</Frequency><Timestamp dt:dt=""r8"">7431061245760</Timestamp><Current dt:dt=""r8"">0</Current><DateUtc dt:dt=""string"">2018-10-18T18:53:20Z</DateUtc></FrequencyChange></FrequencyChanges></Clock>\n",KW_Experiment5A-30-1,59.944,1.0.0.105,1,768467236,Professional,2.0.10.353,2.0.10.353,10/18/2018,10/18/2018 18:53,14:53:20,2.0.10.248,2,2,1,2,,,,,,,,TrainingProc,BlockList,39,1,Distractor1.bmp,1,0,,0,1,387368,400,,0,0,purple,400,1,400,5,vertical,purple,Distractor1.bmp,red,Distractor1.bmp,lime,Target1.bmp,blue,Distractor1.bmp,yellow,Distractor1.bmp,cyan,Distractor1.bmp,,,,TrialProc,,TrainingTrialList,1,1,-999999,0,387768,0,1,606,388374,Target1.bmp,lime,1,,,,3,2,39
KW_Experiment5A,30,1,"<?xml version=""1.0""?>\n<Clock xmlns:dt=""urn:schemas-microsoft-com:datatypes""><Description dt:dt=""string"">E-Prime Primary Realtime Clock</Description><StartTime><Timestamp dt:dt=""int"">0</Timestamp><DateUtc dt:dt=""string"">2018-10-18T18:53:20Z</DateUtc></StartTime><FrequencyChanges><FrequencyChange><Frequency dt:dt=""r8"">3215244</Frequency><Timestamp dt:dt=""r8"">7431061245760</Timestamp><Current dt:dt=""r8"">0</Current><DateUtc dt:dt=""string"">2018-10-18T18:53:20Z</DateUtc></FrequencyChange></FrequencyChanges></Clock>\n",KW_Experiment5A-30-1,59.944,1.0.0.105,1,768467236,Professional,2.0.10.353,2.0.10.353,10/18/2018,10/18/2018 18:53,14:53:20,2.0.10.248,2,2,1,2,,,,,,,,TrainingProc,BlockList,40,2,Distractor1.bmp,1,0,,0,1,389386,601,,0,0,purple,600,3,600,5,horizontal,purple,Distractor1.bmp,red,Distractor1.bmp,cyan,Distractor1.bmp,blue,Distractor2.bmp,lime,Target2.bmp,yellow,Distractor1.bmp,,,,TrialProc,,TrainingTrialList,1,2,-999999,1,389987,0,2,563,390550,Target2.bmp,lime,2,,,,5,2,40
KW_Experiment5A,30,1,"<?xml version=""1.0""?>\n<Clock xmlns:dt=""urn:schemas-microsoft-com:datatypes""><Description dt:dt=""string"">E-Prime Primary Realtime Clock</Description><StartTime><Timestamp dt:dt=""int"">0</Timestamp><DateUtc dt:dt=""string"">2018-10-18T18:53:20Z</DateUtc></StartTime><FrequencyChanges><FrequencyChange><Frequency dt:dt=""r8"">3215244</Frequency><Timestamp dt:dt=""r8"">7431061245760</Timestamp><Current dt:dt=""r8"">0</Current><DateUtc dt:dt=""string"">2018-10-18T18:53:20Z</DateUtc></FrequencyChange></FrequencyChanges></Clock>\n",KW_Experiment5A-30-1,59.944,1.0.0.105,1,768467236,Professional,2.0.10.353,2.0.10.353,10/18/2018,10/18/2018 18:53,14:53:20,2.0.10.248,2,2,1,2,,,,,,,,TrainingProc,BlockList,41,1,Distractor2.bmp,2,0,,0,1,391572,600,,0,0,red,600,3,600,1,vertical,red,Distractor2.bmp,blue,Distractor2.bmp,yellow,Distractor1.bmp,cyan,Distractor1.bmp,purple,Distractor1.bmp,lime,Target1.bmp,,,,TrialProc,,TrainingTrialList,1,1,-999999,0,392172,0,1,482,392654,Target1.bmp,lime,1,,,,6,2,41
KW_Experiment5A,30,1,"<?xml version=""1.0""?>\n<Clock xmlns:dt=""urn:schemas-microsoft-com:datatypes""><Description dt:dt=""string"">E-Prime Primary Realtime Clock</Description><StartTime><Timestamp dt:dt=""int"">0</Timestamp><DateUtc dt:dt=""string"">2018-10-18T18:53:20Z</DateUtc></StartTime><FrequencyChanges><FrequencyChange><Frequency dt:dt=""r8"">3215244</Frequency><Timestamp dt:dt=""r8"">7431061245760</Timestamp><Current dt:dt=""r8"">0</Current><DateUtc dt:dt=""string"">2018-10-18T18:53:20Z</DateUtc></FrequencyChange></FrequencyChanges></Clock>\n",KW_Experiment5A-30-1,59.944,1.0.0.105,1,768467236,Professional,2.0.10.353,2.0.10.353,10/18/2018,10/18/2018 18:53,14:53:20,2.0.10.248,2,2,1,2,,,,,,,,TrainingProc,BlockList,42,2,Distractor1.bmp,1,0,,0,1,393674,600,,0,0,yellow,600,3,600,2,horizontal,lime,Target2.bmp,yellow,Distractor1.bmp,red,Distractor1.bmp,blue,Distractor1.bmp,cyan,Distractor2.bmp,purple,Distractor1.bmp,,,,TrialProc,,TrainingTrialList,1,2,-999999,0,394274,0,2,444,394718,Target2.bmp,lime,2,,,,1,2,42
KW_Experiment5A,30,1,"<?xml version=""1.0""?>\n<Clock xmlns:dt=""urn:schemas-microsoft-com:datatypes""><Description dt:dt=""string"">E-Prime Primary Realtime Clock</Description><StartTime><Timestamp dt:dt=""int"">0</Timestamp><DateUtc dt:dt=""string"">2018-10-18T18:53:20Z</DateUtc></StartTime><FrequencyChanges><FrequencyChange><Frequency dt:dt=""r8"">3215244</Frequency><Timestamp dt:dt=""r8"">7431061245760</Timestamp><Current dt:dt=""r8"">0</Current><DateUtc dt:dt=""string"">2018-10-18T18:53:20Z</DateUtc></FrequencyChange></FrequencyChanges></Clock>\n",KW_Experiment5A-30-1,59.944,1.0.0.105,1,768467236,Professional,2.0.10.353,2.0.10.353,10/18/2018,10/18/2018 18:53,14:53:20,2.0.10.248,2,2,1,2,,,,,,,,TrainingProc,BlockList,43,2,Distractor1.bmp,1,0,,0,1,395742,601,,0,0,cyan,600,3,600,4,horizontal,cyan,Distractor2.bmp,red,Distractor2.bmp,blue,Distractor2.bmp,lime,Target2.bmp,purple,Distractor1.bmp,yellow,Distractor2.bmp,,,,TrialProc,,TrainingTrialList,1,2,-999999,1,396343,0,2,719,397062,Target2.bmp,lime,2,,,,4,2,43
KW_Experiment5A,30,1,"<?xml version=""1.0""?>\n<Clock xmlns:dt=""urn:schemas-microsoft-com:datatypes""><Description dt:dt=""string"">E-Prime Primary Realtime Clock</Description><StartTime><Timestamp dt:dt=""int"">0</Timestamp><DateUtc dt:dt=""string"">2018-10-18T18:53:20Z</DateUtc></StartTime><FrequencyChanges><FrequencyChange><Frequency dt:dt=""r8"">3215244</Frequency><Timestamp dt:dt=""r8"">7431061245760</Timestamp><Current dt:dt=""r8"">0</Current><DateUtc dt:dt=""string"">2018-10-18T18:53:20Z</DateUtc></FrequencyChange></FrequencyChanges></Clock>\n",KW_Experiment5A-30-1,59.944,1.0.0.105,1,768467236,Professional,2.0.10.353,2.0.10.353,10/18/2018,10/18/2018 18:53,14:53:20,2.0.10.248,2,2,1,2,,,,,,,,TrainingProc,BlockList,44,2,Distractor1.bmp,1,0,,0,1,398078,500,,0,0,yellow,500,2,500,,horizontal,yellow,Distractor2.bmp,red,Target2.bmp,purple,Distractor1.bmp,lime,Distractor1.bmp,blue,Distractor1.bmp,cyan,Distractor1.bmp,,,,TrialProc,2,TrainingTrialList,1,2,-999999,0,398578,0,2,1227,399805,Target2.bmp,red,2,,,,8,2,44
KW_Experiment5A,30,1,"<?xml version=""1.0""?>\n<Clock xmlns:dt=""urn:schemas-microsoft-com:datatypes""><Description dt:dt=""string"">E-Prime Primary Realtime Clock</Description><StartTime><Timestamp dt:dt=""int"">0</Timestamp><DateUtc dt:dt=""string"">2018-10-18T18:53:20Z</DateUtc></StartTime><FrequencyChanges><FrequencyChange><Frequency dt:dt=""r8"">3215244</Frequency><Timestamp dt:dt=""r8"">7431061245760</Timestamp><Current dt:dt=""r8"">0</Current><DateUtc dt:dt=""string"">2018-10-18T18:53:20Z</DateUtc></FrequencyChange></FrequencyChanges></Clock>\n",KW_Experiment5A-30-1,59.944,1.0.0.105,1,768467236,Professional,2.0.10.353,2.0.10.353,10/18/2018,10/18/2018 18:53,14:53:20,2.0.10.248,2,2,1,2,,,,,,,,TrainingProc,BlockList,45,2,Distractor1.bmp,1,0,,0,1,400830,601,,0,0,purple,600,3,600,5,horizontal,purple,Distractor1.bmp,lime,Target2.bmp,yellow,Distractor1.bmp,cyan,Distractor1.bmp,red,Distractor2.bmp,blue,Distractor2.bmp,,,,TrialProc,,TrainingTrialList,1,2,-999999,1,401431,0,2,614,402045,Target2.bmp,lime,2,,,,2,2,45
KW_Experiment5A,30,1,"<?xml version=""1.0""?>\n<Clock xmlns:dt=""urn:schemas-microsoft-com:datatypes""><Description dt:dt=""string"">E-Prime Primary Realtime Clock</Description><StartTime><Timestamp dt:dt=""int"">0</Timestamp><DateUtc dt:dt=""string"">2018-10-18T18:53:20Z</DateUtc></StartTime><FrequencyChanges><FrequencyChange><Frequency dt:dt=""r8"">3215244</Frequency><Timestamp dt:dt=""r8"">7431061245760</Timestamp><Current dt:dt=""r8"">0</Current><DateUtc dt:dt=""string"">2018-10-18T18:53:20Z</DateUtc></FrequencyChange></FrequencyChanges></Clock>\n",KW_Experiment5A-30-1,59.944,1.0.0.105,1,768467236,Professional,2.0.10.353,2.0.10.353,10/18/2018,10/18/2018 18:53,14:53:20,2.0.10.248,2,2,1,2,,,,,,,,TrainingProc,BlockList,46,2,Distractor2.bmp,2,0,,0,1,403066,400,,0,0,yellow,400,1,400,2,horizontal,yellow,Distractor2.bmp,blue,Distractor1.bmp,cyan,Distractor2.bmp,purple,Distractor1.bmp,red,Distractor1.bmp,lime,Target2.bmp,,,,TrialProc,,TrainingTrialList,1,2,-999999,0,403466,0,2,643,404109,Target2.bmp,lime,2,,,,6,2,46
KW_Experiment5A,30,1,"<?xml version=""1.0""?>\n<Clock xmlns:dt=""urn:schemas-microsoft-com:datatypes""><Description dt:dt=""string"">E-Prime Primary Realtime Clock</Description><StartTime><Timestamp dt:dt=""int"">0</Timestamp><DateUtc dt:dt=""string"">2018-10-18T18:53:20Z</DateUtc></StartTime><FrequencyChanges><FrequencyChange><Frequency dt:dt=""r8"">3215244</Frequency><Timestamp dt:dt=""r8"">7431061245760</Timestamp><Current dt:dt=""r8"">0</Current><DateUtc dt:dt=""string"">2018-10-18T18:53:20Z</DateUtc></FrequencyChange></FrequencyChanges></Clock>\n",KW_Experiment5A-30-1,59.944,1.0.0.105,1,768467236,Professional,2.0.10.353,2.0.10.353,10/18/2018,10/18/2018 18:53,14:53:20,2.0.10.248,2,2,1,2,,,,,,,,TrainingProc,BlockList,47,2,Distractor1.bmp,1,0,,0,1,405134,400,,0,0,red,400,1,400,1,horizontal,red,Distractor2.bmp,blue,Distractor1.bmp,lime,Target2.bmp,purple,Distractor1.bmp,yellow,Distractor1.bmp,cyan,Distractor1.bmp,,,,TrialProc,,TrainingTrialList,1,2,-999999,0,405534,0,2,599,406133,Target2.bmp,lime,2,,,,3,2,47
KW_Experiment5A,30,1,"<?xml version=""1.0""?>\n<Clock xmlns:dt=""urn:schemas-microsoft-com:datatypes""><Description dt:dt=""string"">E-Prime Primary Realtime Clock</Description><StartTime><Timestamp dt:dt=""int"">0</Timestamp><DateUtc dt:dt=""string"">2018-10-18T18:53:20Z</DateUtc></StartTime><FrequencyChanges><FrequencyChange><Frequency dt:dt=""r8"">3215244</Frequency><Timestamp dt:dt=""r8"">7431061245760</Timestamp><Current dt:dt=""r8"">0</Current><DateUtc dt:dt=""string"">2018-10-18T18:53:20Z</DateUtc></FrequencyChange></FrequencyChanges></Clock>\n",KW_Experiment5A-30-1,59.944,1.0.0.105,1,768467236,Professional,2.0.10.353,2.0.10.353,10/18/2018,10/18/2018 18:53,14:53:20,2.0.10.248,2,2,1,2,,,,,,,,TrainingProc,BlockList,48,2,Distractor1.bmp,1,0,,0,1,407153,500,,0,0,red,500,2,500,1,horizontal,red,Distractor2.bmp,yellow,Distractor1.bmp,lime,Target2.bmp,blue,Distractor1.bmp,purple,Distractor2.bmp,cyan,Distractor2.bmp,,,,TrialProc,,TrainingTrialList,1,2,-999999,0,407653,0,2,600,408253,Target2.bmp,lime,2,,,,3,2,48
KW_Experiment5A,30,1,"<?xml version=""1.0""?>\n<Clock xmlns:dt=""urn:schemas-microsoft-com:datatypes""><Description dt:dt=""string"">E-Prime Primary Realtime Clock</Description><StartTime><Timestamp dt:dt=""int"">0</Timestamp><DateUtc dt:dt=""string"">2018-10-18T18:53:20Z</DateUtc></StartTime><FrequencyChanges><FrequencyChange><Frequency dt:dt=""r8"">3215244</Frequency><Timestamp dt:dt=""r8"">7431061245760</Timestamp><Current dt:dt=""r8"">0</Current><DateUtc dt:dt=""string"">2018-10-18T18:53:20Z</DateUtc></FrequencyChange></FrequencyChanges></Clock>\n",KW_Experiment5A-30-1,59.944,1.0.0.105,1,768467236,Professional,2.0.10.353,2.0.10.353,10/18/2018,10/18/2018 18:53,14:53:20,2.0.10.248,3,2,1,3,,,,,,,,TrainingProc,BlockList,1,1,Distractor2.bmp,2,0,,0,23,413492,600,,0,0,purple,600,3,600,5,vertical,purple,Distractor2.bmp,lime,Target1.bmp,cyan,Distractor2.bmp,yellow,Distractor1.bmp,blue,Distractor1.bmp,red,Distractor1.bmp,,,,TrialProc,,TrainingTrialList,0,1,-999999,0,414092,0,2,793,414885,Target1.bmp,lime,1,,,,2,3,49
KW_Experiment5A,30,1,"<?xml version=""1.0""?>\n<Clock xmlns:dt=""urn:schemas-microsoft-com:datatypes""><Description dt:dt=""string"">E-Prime Primary Realtime Clock</Description><StartTime><Timestamp dt:dt=""int"">0</Timestamp><DateUtc dt:dt=""string"">2018-10-18T18:53:20Z</DateUtc></StartTime><FrequencyChanges><FrequencyChange><Frequency dt:dt=""r8"">3215244</Frequency><Timestamp dt:dt=""r8"">7431061245760</Timestamp><Current dt:dt=""r8"">0</Current><DateUtc dt:dt=""string"">2018-10-18T18:53:20Z</DateUtc></FrequencyChange></FrequencyChanges></Clock>\n",KW_Experiment5A-30-1,59.944,1.0.0.105,1,768467236,Professional,2.0.10.353,2.0.10.353,10/18/2018,10/18/2018 18:53,14:53:20,2.0.10.248,3,2,1,3,,,,,,,,TrainingProc,BlockList,2,1,Distractor1.bmp,1,0,,0,1,415911,600,,0,0,red,600,3,600,1,vertical,lime,Target1.bmp,red,Distractor1.bmp,yellow,Distractor2.bmp,cyan,Distractor2.bmp,purple,Distractor2.bmp,blue,Distractor2.bmp,,,,TrialProc,,TrainingTrialList,1,1,-999999,0,416511,0,1,518,417029,Target1.bmp,lime,1,,,,1,3,50
KW_Experiment5A,30,1,"<?xml version=""1.0""?>\n<Clock xmlns:dt=""urn:schemas-microsoft-com:datatypes""><Description dt:dt=""string"">E-Prime Primary Realtime Clock</Description><StartTime><Timestamp dt:dt=""int"">0</Timestamp><DateUtc dt:dt=""string"">2018-10-18T18:53:20Z</DateUtc></StartTime><FrequencyChanges><FrequencyChange><Frequency dt:dt=""r8"">3215244</Frequency><Timestamp dt:dt=""r8"">7431061245760</Timestamp><Current dt:dt=""r8"">0</Current><DateUtc dt:dt=""string"">2018-10-18T18:53:20Z</DateUtc></FrequencyChange></FrequencyChanges></Clock>\n",KW_Experiment5A-30-1,59.944,1.0.0.105,1,768467236,Professional,2.0.10.353,2.0.10.353,10/18/2018,10/18/2018 18:53,14:53:20,2.0.10.248,3,2,1,3,,,,,,,,TrainingProc,BlockList,3,2,Distractor1.bmp,1,0,,0,1,418046,601,,0,0,cyan,600,3,600,4,horizontal,cyan,Distractor2.bmp,blue,Distractor2.bmp,red,Distractor2.bmp,lime,Target2.bmp,purple,Distractor1.bmp,yellow,Distractor2.bmp,,,,TrialProc,,TrainingTrialList,1,2,-999999,1,418647,0,2,622,419269,Target2.bmp,lime,2,,,,4,3,51
KW_Experiment5A,30,1,"<?xml version=""1.0""?>\n<Clock xmlns:dt=""urn:schemas-microsoft-com:datatypes""><Description dt:dt=""string"">E-Prime Primary Realtime Clock</Description><StartTime><Timestamp dt:dt=""int"">0</Timestamp><DateUtc dt:dt=""string"">2018-10-18T18:53:20Z</DateUtc></StartTime><FrequencyChanges><FrequencyChange><Frequency dt:dt=""r8"">3215244</Frequency><Timestamp dt:dt=""r8"">7431061245760</Timestamp><Current dt:dt=""r8"">0</Current><DateUtc dt:dt=""string"">2018-10-18T18:53:20Z</DateUtc></FrequencyChange></FrequencyChanges></Clock>\n",KW_Experiment5A-30-1,59.944,1.0.0.105,1,768467236,Professional,2.0.10.353,2.0.10.353,10/18/2018,10/18/2018 18:53,14:53:20,2.0.10.248,3,2,1,3,,,,,,,,TrainingProc,BlockList,4,2,Distractor2.bmp,2,0,,0,1,420281,501,,0,0,blue,500,2,500,,horizontal,blue,Distractor2.bmp,cyan,Distractor2.bmp,lime,Distractor2.bmp,yellow,Distractor1.bmp,purple,Distractor1.bmp,red,Target2.bmp,,,,TrialProc,3,TrainingTrialList,0,2,-999999,1,420782,0,1,863,421645,Target2.bmp,red,2,,,,12,3,52
KW_Experiment5A,30,1,"<?xml version=""1.0""?>\n<Clock xmlns:dt=""urn:schemas-microsoft-com:datatypes""><Description dt:dt=""string"">E-Prime Primary Realtime Clock</Description><StartTime><Timestamp dt:dt=""int"">0</Timestamp><DateUtc dt:dt=""string"">2018-10-18T18:53:20Z</DateUtc></StartTime><FrequencyChanges><FrequencyChange><Frequency dt:dt=""r8"">3215244</Frequency><Timestamp dt:dt=""r8"">7431061245760</Timestamp><Current dt:dt=""r8"">0</Current><DateUtc dt:dt=""string"">2018-10-18T18:53:20Z</DateUtc></FrequencyChange></FrequencyChanges></Clock>\n",KW_Experiment5A-30-1,59.944,1.0.0.105,1,768467236,Professional,2.0.10.353,2.0.10.353,10/18/2018,10/18/2018 18:53,14:53:20,2.0.10.248,3,2,1,3,,,,,,,,TrainingProc,BlockList,5,2,Distractor2.bmp,2,0,,0,1,422667,601,,0,0,blue,600,3,600,,horizontal,blue,Distractor2.bmp,red,Target2.bmp,cyan,Distractor2.bmp,yellow,Distractor1.bmp,purple,Distractor1.bmp,lime,Distractor1.bmp,,,,TrialProc,3,TrainingTrialList,1,2,-999999,1,423268,0,2,961,424229,Target2.bmp,red,2,,,,8,3,53
KW_Experiment5A,30,1,"<?xml version=""1.0""?>\n<Clock xmlns:dt=""urn:schemas-microsoft-com:datatypes""><Description dt:dt=""string"">E-Prime Primary Realtime Clock</Description><StartTime><Timestamp dt:dt=""int"">0</Timestamp><DateUtc dt:dt=""string"">2018-10-18T18:53:20Z</DateUtc></StartTime><FrequencyChanges><FrequencyChange><Frequency dt:dt=""r8"">3215244</Frequency><Timestamp dt:dt=""r8"">7431061245760</Timestamp><Current dt:dt=""r8"">0</Current><DateUtc dt:dt=""string"">2018-10-18T18:53:20Z</DateUtc></FrequencyChange></FrequencyChanges></Clock>\n",KW_Experiment5A-30-1,59.944,1.0.0.105,1,768467236,Professional,2.0.10.353,2.0.10.353,10/18/2018,10/18/2018 18:53,14:53:20,2.0.10.248,3,2,1,3,,,,,,,,TrainingProc,BlockList,6,1,Distractor1.bmp,1,0,,0,1,425253,500,,0,0,red,500,2,500,1,vertical,red,Distractor1.bmp,cyan,Distractor1.bmp,yellow,Distractor1.bmp,lime,Target1.bmp,purple,Distractor1.bmp,blue,Distractor1.bmp,,,,TrialProc,,TrainingTrialList,1,1,-999999,0,425753,0,1,708,426461,Target1.bmp,lime,1,,,,4,3,54
KW_Experiment5A,30,1,"<?xml version=""1.0""?>\n<Clock xmlns:dt=""urn:schemas-microsoft-com:datatypes""><Description dt:dt=""string"">E-Prime Primary Realtime Clock</Description><StartTime><Timestamp dt:dt=""int"">0</Timestamp><DateUtc dt:dt=""string"">2018-10-18T18:53:20Z</DateUtc></StartTime><FrequencyChanges><FrequencyChange><Frequency dt:dt=""r8"">3215244</Frequency><Timestamp dt:dt=""r8"">7431061245760</Timestamp><Current dt:dt=""r8"">0</Current><DateUtc dt:dt=""string"">2018-10-18T18:53:20Z</DateUtc></FrequencyChange></FrequencyChanges></Clock>\n",KW_Experiment5A-30-1,59.944,1.0.0.105,1,768467236,Professional,2.0.10.353,2.0.10.353,10/18/2018,10/18/2018 18:53,14:53:20,2.0.10.248,3,2,1,3,,,,,,,,TrainingProc,BlockList,7,2,Distractor2.bmp,2,0,,0,1,427471,601,,0,0,cyan,600,3,600,4,horizontal,lime,Target2.bmp,cyan,Distractor2.bmp,red,Distractor2.bmp,blue,Distractor1.bmp,yellow,Distractor1.bmp,purple,Distractor1.bmp,,,,TrialProc,,TrainingTrialList,0,2,-999999,1,428072,0,1,501,428573,Target2.bmp,lime,2,,,,1,3,55
KW_Experiment5A,30,1,"<?xml version=""1.0""?>\n<Clock xmlns:dt=""urn:schemas-microsoft-com:datatypes""><Description dt:dt=""string"">E-Prime Primary Realtime Clock</Description><StartTime><Timestamp dt:dt=""int"">0</Timestamp><DateUtc dt:dt=""string"">2018-10-18T18:53:20Z</DateUtc></StartTime><FrequencyChanges><FrequencyChange><Frequency dt:dt=""r8"">3215244</Frequency><Timestamp dt:dt=""r8"">7431061245760</Timestamp><Current dt:dt=""r8"">0</Current><DateUtc dt:dt=""string"">2018-10-18T18:53:20Z</DateUtc></FrequencyChange></FrequencyChanges></Clock>\n",KW_Experiment5A-30-1,59.944,1.0.0.105,1,768467236,Professional,2.0.10.353,2.0.10.353,10/18/2018,10/18/2018 18:53,14:53:20,2.0.10.248,3,2,1,3,,,,,,,,TrainingProc,BlockList,8,2,Distractor1.bmp,1,0,,0,1,429590,400,,0,0,purple,400,1,400,,horizontal,purple,Distractor1.bmp,blue,Distractor2.bmp,red,Target2.bmp,cyan,Distractor1.bmp,yellow,Distractor1.bmp,lime,Distractor2.bmp,,,,TrialProc,5,TrainingTrialList,1,2,-999999,0,429990,0,2,743,430733,Target2.bmp,red,2,,,,9,3,56
KW_Experiment5A,30,1,"<?xml version=""1.0""?>\n<Clock xmlns:dt=""urn:schemas-microsoft-com:datatypes""><Description dt:dt=""string"">E-Prime Primary Realtime Clock</Description><StartTime><Timestamp dt:dt=""int"">0</Timestamp><DateUtc dt:dt=""string"">2018-10-18T18:53:20Z</DateUtc></StartTime><FrequencyChanges><FrequencyChange><Frequency dt:dt=""r8"">3215244</Frequency><Timestamp dt:dt=""r8"">7431061245760</Timestamp><Current dt:dt=""r8"">0</Current><DateUtc dt:dt=""string"">2018-10-18T18:53:20Z</DateUtc></FrequencyChange></FrequencyChanges></Clock>\n",KW_Experiment5A-30-1,59.944,1.0.0.105,1,768467236,Professional,2.0.10.353,2.0.10.353,10/18/2018,10/18/2018 18:53,14:53:20,2.0.10.248,3,2,1,3,,,,,,,,TrainingProc,BlockList,9,1,Distractor1.bmp,1,0,,0,1,431759,500,,0,0,yellow,500,2,500,2,vertical,yellow,Distractor1.bmp,blue,Distractor1.bmp,cyan,Distractor2.bmp,purple,Distractor1.bmp,red,Distractor1.bmp,lime,Target1.bmp,,,,TrialProc,,TrainingTrialList,1,1,-999999,0,432259,0,1,506,432765,Target1.bmp,lime,1,,,,6,3,57
KW_Experiment5A,30,1,"<?xml version=""1.0""?>\n<Clock xmlns:dt=""urn:schemas-microsoft-com:datatypes""><Description dt:dt=""string"">E-Prime Primary Realtime Clock</Description><StartTime><Timestamp dt:dt=""int"">0</Timestamp><DateUtc dt:dt=""string"">2018-10-18T18:53:20Z</DateUtc></StartTime><FrequencyChanges><FrequencyChange><Frequency dt:dt=""r8"">3215244</Frequency><Timestamp dt:dt=""r8"">7431061245760</Timestamp><Current dt:dt=""r8"">0</Current><DateUtc dt:dt=""string"">2018-10-18T18:53:20Z</DateUtc></FrequencyChange></FrequencyChanges></Clock>\n",KW_Experiment5A-30-1,59.944,1.0.0.105,1,768467236,Professional,2.0.10.353,2.0.10.353,10/18/2018,10/18/2018 18:53,14:53:20,2.0.10.248,3,2,1,3,,,,,,,,TrainingProc,BlockList,10,2,Distractor2.bmp,2,0,,0,1,433777,501,,0,0,blue,500,2,500,,horizontal,blue,Distractor2.bmp,lime,Distractor2.bmp,yellow,Distractor1.bmp,cyan,Distractor2.bmp,red,Target2.bmp,purple,Distractor2.bmp,,,,TrialProc,3,TrainingTrialList,1,2,-999999,1,434278,0,2,1175,435453,Target2.bmp,red,2,,,,11,3,58
KW_Experiment5A,30,1,"<?xml version=""1.0""?>\n<Clock xmlns:dt=""urn:schemas-microsoft-com:datatypes""><Description dt:dt=""string"">E-Prime Primary Realtime Clock</Description><StartTime><Timestamp dt:dt=""int"">0</Timestamp><DateUtc dt:dt=""string"">2018-10-18T18:53:20Z</DateUtc></StartTime><FrequencyChanges><FrequencyChange><Frequency dt:dt=""r8"">3215244</Frequency><Timestamp dt:dt=""r8"">7431061245760</Timestamp><Current dt:dt=""r8"">0</Current><DateUtc dt:dt=""string"">2018-10-18T18:53:20Z</DateUtc></FrequencyChange></FrequencyChanges></Clock>\n",KW_Experiment5A-30-1,59.944,1.0.0.105,1,768467236,Professional,2.0.10.353,2.0.10.353,10/18/2018,10/18/2018 18:53,14:53:20,2.0.10.248,3,2,1,3,,,,,,,,TrainingProc,BlockList,11,1,Distractor2.bmp,2,0,,0,1,436480,500,,0,0,red,500,2,500,1,vertical,red,Distractor2.bmp,yellow,Distractor2.bmp,lime,Target1.bmp,purple,Distractor2.bmp,blue,Distractor1.bmp,cyan,Distractor2.bmp,,,,TrialProc,,TrainingTrialList,1,1,-999999,0,436980,0,1,905,437885,Target1.bmp,lime,1,,,,3,3,59
KW_Experiment5A,30,1,"<?xml version=""1.0""?>\n<Clock xmlns:dt=""urn:schemas-microsoft-com:datatypes""><Description dt:dt=""string"">E-Prime Primary Realtime Clock</Description><StartTime><Timestamp dt:dt=""int"">0</Timestamp><DateUtc dt:dt=""string"">2018-10-18T18:53:20Z</DateUtc></StartTime><FrequencyChanges><FrequencyChange><Frequency dt:dt=""r8"">3215244</Frequency><Timestamp dt:dt=""r8"">7431061245760</Timestamp><Current dt:dt=""r8"">0</Current><DateUtc dt:dt=""string"">2018-10-18T18:53:20Z</DateUtc></FrequencyChange></FrequencyChanges></Clock>\n",KW_Experiment5A-30-1,59.944,1.0.0.105,1,768467236,Professional,2.0.10.353,2.0.10.353,10/18/2018,10/18/2018 18:53,14:53:20,2.0.10.248,3,2,1,3,,,,,,,,TrainingProc,BlockList,12,1,Distractor1.bmp,1,0,,0,1,438899,600,,0,0,cyan,600,3,600,4,vertical,cyan,Distractor1.bmp,red,Distractor1.bmp,purple,Distractor1.bmp,yellow,Distractor1.bmp,lime,Target1.bmp,blue,Distractor1.bmp,,,,TrialProc,,TrainingTrialList,1,1,-999999,0,439499,0,1,554,440053,Target1.bmp,lime,1,,,,5,3,60
KW_Experiment5A,30,1,"<?xml version=""1.0""?>\n<Clock xmlns:dt=""urn:schemas-microsoft-com:datatypes""><Description dt:dt=""string"">E-Prime Primary Realtime Clock</Description><StartTime><Timestamp dt:dt=""int"">0</Timestamp><DateUtc dt:dt=""string"">2018-10-18T18:53:20Z</DateUtc></StartTime><FrequencyChanges><FrequencyChange><Frequency dt:dt=""r8"">3215244</Frequency><Timestamp dt:dt=""r8"">7431061245760</Timestamp><Current dt:dt=""r8"">0</Current><DateUtc dt:dt=""string"">2018-10-18T18:53:20Z</DateUtc></FrequencyChange></FrequencyChanges></Clock>\n",KW_Experiment5A-30-1,59.944,1.0.0.105,1,768467236,Professional,2.0.10.353,2.0.10.353,10/18/2018,10/18/2018 18:53,14:53:20,2.0.10.248,3,2,1,3,,,,,,,,TrainingProc,BlockList,13,2,Distractor2.bmp,2,0,,0,1,441067,501,,0,0,yellow,500,2,500,2,horizontal,yellow,Distractor2.bmp,cyan,Distractor1.bmp,purple,Distractor2.bmp,blue,Distractor2.bmp,red,Distractor2.bmp,lime,Target2.bmp,,,,TrialProc,,TrainingTrialList,1,2,-999999,1,441568,0,2,669,442237,Target2.bmp,lime,2,,,,6,3,61
KW_Experiment5A,30,1,"<?xml version=""1.0""?>\n<Clock xmlns:dt=""urn:schemas-microsoft-com:datatypes""><Description dt:dt=""string"">E-Prime Primary Realtime Clock</Description><StartTime><Timestamp dt:dt=""int"">0</Timestamp><DateUtc dt:dt=""string"">2018-10-18T18:53:20Z</DateUtc></StartTime><FrequencyChanges><FrequencyChange><Frequency dt:dt=""r8"">3215244</Frequency><Timestamp dt:dt=""r8"">7431061245760</Timestamp><Current dt:dt=""r8"">0</Current><DateUtc dt:dt=""string"">2018-10-18T18:53:20Z</DateUtc></FrequencyChange></FrequencyChanges></Clock>\n",KW_Experiment5A-30-1,59.944,1.0.0.105,1,768467236,Professional,2.0.10.353,2.0.10.353,10/18/2018,10/18/2018 18:53,14:53:20,2.0.10.248,3,2,1,3,,,,,,,,TrainingProc,BlockList,14,1,Distractor1.bmp,1,0,,0,1,443253,600,,0,0,red,600,3,600,1,vertical,red,Distractor2.bmp,purple,Distractor2.bmp,yellow,Distractor1.bmp,lime,Target1.bmp,blue,Distractor1.bmp,cyan,Distractor2.bmp,,,,TrialProc,,TrainingTrialList,1,1,-999999,0,443853,0,1,600,444453,Target1.bmp,lime,1,,,,4,3,62
KW_Experiment5A,30,1,"<?xml version=""1.0""?>\n<Clock xmlns:dt=""urn:schemas-microsoft-com:datatypes""><Description dt:dt=""string"">E-Prime Primary Realtime Clock</Description><StartTime><Timestamp dt:dt=""int"">0</Timestamp><DateUtc dt:dt=""string"">2018-10-18T18:53:20Z</DateUtc></StartTime><FrequencyChanges><FrequencyChange><Frequency dt:dt=""r8"">3215244</Frequency><Timestamp dt:dt=""r8"">7431061245760</Timestamp><Current dt:dt=""r8"">0</Current><DateUtc dt:dt=""string"">2018-10-18T18:53:20Z</DateUtc></FrequencyChange></FrequencyChanges></Clock>\n",KW_Experiment5A-30-1,59.944,1.0.0.105,1,768467236,Professional,2.0.10.353,2.0.10.353,10/18/2018,10/18/2018 18:53,14:53:20,2.0.10.248,3,2,1,3,,,,,,,,TrainingProc,BlockList,15,2,Distractor2.bmp,2,0,,0,1,445471,401,,0,0,yellow,400,1,400,,horizontal,yellow,Distractor2.bmp,lime,Distractor1.bmp,purple,Distractor1.bmp,red,Target2.bmp,cyan,Distractor2.bmp,blue,Distractor1.bmp,,,,TrialProc,2,TrainingTrialList,1,2,-999999,1,445872,0,2,1461,447333,Target2.bmp,red,2,,,,10,3,63
KW_Experiment5A,30,1,"<?xml version=""1.0""?>\n<Clock xmlns:dt=""urn:schemas-microsoft-com:datatypes""><Description dt:dt=""string"">E-Prime Primary Realtime Clock</Description><StartTime><Timestamp dt:dt=""int"">0</Timestamp><DateUtc dt:dt=""string"">2018-10-18T18:53:20Z</DateUtc></StartTime><FrequencyChanges><FrequencyChange><Frequency dt:dt=""r8"">3215244</Frequency><Timestamp dt:dt=""r8"">7431061245760</Timestamp><Current dt:dt=""r8"">0</Current><DateUtc dt:dt=""string"">2018-10-18T18:53:20Z</DateUtc></FrequencyChange></FrequencyChanges></Clock>\n",KW_Experiment5A-30-1,59.944,1.0.0.105,1,768467236,Professional,2.0.10.353,2.0.10.353,10/18/2018,10/18/2018 18:53,14:53:20,2.0.10.248,3,2,1,3,,,,,,,,TrainingProc,BlockList,16,1,Distractor2.bmp,2,0,,0,1,448357,501,,0,0,blue,500,2,500,3,vertical,blue,Distractor1.bmp,purple,Distractor2.bmp,yellow,Distractor1.bmp,cyan,Distractor2.bmp,lime,Target1.bmp,red,Distractor2.bmp,,,,TrialProc,,TrainingTrialList,1,1,-999999,1,448858,0,1,555,449413,Target1.bmp,lime,1,,,,5,3,64
KW_Experiment5A,30,1,"<?xml version=""1.0""?>\n<Clock xmlns:dt=""urn:schemas-microsoft-com:datatypes""><Description dt:dt=""string"">E-Prime Primary Realtime Clock</Description><StartTime><Timestamp dt:dt=""int"">0</Timestamp><DateUtc dt:dt=""string"">2018-10-18T18:53:20Z</DateUtc></StartTime><FrequencyChanges><FrequencyChange><Frequency dt:dt=""r8"">3215244</Frequency><Timestamp dt:dt=""r8"">7431061245760</Timestamp><Current dt:dt=""r8"">0</Current><DateUtc dt:dt=""string"">2018-10-18T18:53:20Z</DateUtc></FrequencyChange></FrequencyChanges></Clock>\n",KW_Experiment5A-30-1,59.944,1.0.0.105,1,768467236,Professional,2.0.10.353,2.0.10.353,10/18/2018,10/18/2018 18:53,14:53:20,2.0.10.248,3,2,1,3,,,,,,,,TrainingProc,BlockList,17,1,Distractor2.bmp,2,0,,0,1,450426,600,,0,0,yellow,600,3,600,2,vertical,yellow,Distractor1.bmp,lime,Target1.bmp,cyan,Distractor2.bmp,purple,Distractor2.bmp,blue,Distractor1.bmp,red,Distractor2.bmp,,,,TrialProc,,TrainingTrialList,1,1,-999999,0,451026,0,1,691,451717,Target1.bmp,lime,1,,,,2,3,65
KW_Experiment5A,30,1,"<?xml version=""1.0""?>\n<Clock xmlns:dt=""urn:schemas-microsoft-com:datatypes""><Description dt:dt=""string"">E-Prime Primary Realtime Clock</Description><StartTime><Timestamp dt:dt=""int"">0</Timestamp><DateUtc dt:dt=""string"">2018-10-18T18:53:20Z</DateUtc></StartTime><FrequencyChanges><FrequencyChange><Frequency dt:dt=""r8"">3215244</Frequency><Timestamp dt:dt=""r8"">7431061245760</Timestamp><Current dt:dt=""r8"">0</Current><DateUtc dt:dt=""string"">2018-10-18T18:53:20Z</DateUtc></FrequencyChange></FrequencyChanges></Clock>\n",KW_Experiment5A-30-1,59.944,1.0.0.105,1,768467236,Professional,2.0.10.353,2.0.10.353,10/18/2018,10/18/2018 18:53,14:53:20,2.0.10.248,3,2,1,3,,,,,,,,TrainingProc,BlockList,18,2,Distractor1.bmp,1,0,,0,1,452728,601,,0,0,yellow,600,3,600,2,horizontal,yellow,Distractor1.bmp,red,Distractor2.bmp,purple,Distractor1.bmp,cyan,Distractor2.bmp,blue,Distractor2.bmp,lime,Target2.bmp,,,,TrialProc,,TrainingTrialList,1,2,-999999,1,453329,0,2,396,453725,Target2.bmp,lime,2,,,,6,3,66
KW_Experiment5A,30,1,"<?xml version=""1.0""?>\n<Clock xmlns:dt=""urn:schemas-microsoft-com:datatypes""><Description dt:dt=""string"">E-Prime Primary Realtime Clock</Description><StartTime><Timestamp dt:dt=""int"">0</Timestamp><DateUtc dt:dt=""string"">2018-10-18T18:53:20Z</DateUtc></StartTime><FrequencyChanges><FrequencyChange><Frequency dt:dt=""r8"">3215244</Frequency><Timestamp dt:dt=""r8"">7431061245760</Timestamp><Current dt:dt=""r8"">0</Current><DateUtc dt:dt=""string"">2018-10-18T18:53:20Z</DateUtc></FrequencyChange></FrequencyChanges></Clock>\n",KW_Experiment5A-30-1,59.944,1.0.0.105,1,768467236,Professional,2.0.10.353,2.0.10.353,10/18/2018,10/18/2018 18:53,14:53:20,2.0.10.248,3,2,1,3,,,,,,,,TrainingProc,BlockList,19,1,Distractor1.bmp,1,0,,0,1,454747,400,,0,0,blue,400,1,400,,vertical,red,Target1.bmp,yellow,Distractor1.bmp,purple,Distractor2.bmp,cyan,Distractor2.bmp,lime,Distractor1.bmp,blue,Distractor2.bmp,,,,TrialProc,3,TrainingTrialList,1,1,-999999,0,455147,0,1,1322,456469,Target1.bmp,red,1,,,,7,3,67
KW_Experiment5A,30,1,"<?xml version=""1.0""?>\n<Clock xmlns:dt=""urn:schemas-microsoft-com:datatypes""><Description dt:dt=""string"">E-Prime Primary Realtime Clock</Description><StartTime><Timestamp dt:dt=""int"">0</Timestamp><DateUtc dt:dt=""string"">2018-10-18T18:53:20Z</DateUtc></StartTime><FrequencyChanges><FrequencyChange><Frequency dt:dt=""r8"">3215244</Frequency><Timestamp dt:dt=""r8"">7431061245760</Timestamp><Current dt:dt=""r8"">0</Current><DateUtc dt:dt=""string"">2018-10-18T18:53:20Z</DateUtc></FrequencyChange></FrequencyChanges></Clock>\n",KW_Experiment5A-30-1,59.944,1.0.0.105,1,768467236,Professional,2.0.10.353,2.0.10.353,10/18/2018,10/18/2018 18:53,14:53:20,2.0.10.248,3,2,1,3,,,,,,,,TrainingProc,BlockList,20,2,Distractor1.bmp,1,0,,0,1,457482,601,,0,0,purple,600,3,600,5,horizontal,lime,Target2.bmp,purple,Distractor1.bmp,blue,Distractor2.bmp,red,Distractor2.bmp,cyan,Distractor1.bmp,yellow,Distractor2.bmp,,,,TrialProc,,TrainingTrialList,1,2,-999999,1,458083,0,2,546,458629,Target2.bmp,lime,2,,,,1,3,68
KW_Experiment5A,30,1,"<?xml version=""1.0""?>\n<Clock xmlns:dt=""urn:schemas-microsoft-com:datatypes""><Description dt:dt=""string"">E-Prime Primary Realtime Clock</Description><StartTime><Timestamp dt:dt=""int"">0</Timestamp><DateUtc dt:dt=""string"">2018-10-18T18:53:20Z</DateUtc></StartTime><FrequencyChanges><FrequencyChange><Frequency dt:dt=""r8"">3215244</Frequency><Timestamp dt:dt=""r8"">7431061245760</Timestamp><Current dt:dt=""r8"">0</Current><DateUtc dt:dt=""string"">2018-10-18T18:53:20Z</DateUtc></FrequencyChange></FrequencyChanges></Clock>\n",KW_Experiment5A-30-1,59.944,1.0.0.105,1,768467236,Professional,2.0.10.353,2.0.10.353,10/18/2018,10/18/2018 18:53,14:53:20,2.0.10.248,3,2,1,3,,,,,,,,TrainingProc,BlockList,21,1,Distractor1.bmp,1,0,,0,1,459651,400,,0,0,purple,400,1,400,5,vertical,purple,Distractor2.bmp,blue,Distractor1.bmp,lime,Target1.bmp,cyan,Distractor1.bmp,red,Distractor2.bmp,yellow,Distractor1.bmp,,,,TrialProc,,TrainingTrialList,1,1,-999999,0,460051,0,1,586,460637,Target1.bmp,lime,1,,,,3,3,69
KW_Experiment5A,30,1,"<?xml version=""1.0""?>\n<Clock xmlns:dt=""urn:schemas-microsoft-com:datatypes""><Description dt:dt=""string"">E-Prime Primary Realtime Clock</Description><StartTime><Timestamp dt:dt=""int"">0</Timestamp><DateUtc dt:dt=""string"">2018-10-18T18:53:20Z</DateUtc></StartTime><FrequencyChanges><FrequencyChange><Frequency dt:dt=""r8"">3215244</Frequency><Timestamp dt:dt=""r8"">7431061245760</Timestamp><Current dt:dt=""r8"">0</Current><DateUtc dt:dt=""string"">2018-10-18T18:53:20Z</DateUtc></FrequencyChange></FrequencyChanges></Clock>\n",KW_Experiment5A-30-1,59.944,1.0.0.105,1,768467236,Professional,2.0.10.353,2.0.10.353,10/18/2018,10/18/2018 18:53,14:53:20,2.0.10.248,3,2,1,3,,,,,,,,TrainingProc,BlockList,22,2,Distractor1.bmp,1,0,,0,1,461653,400,,0,0,red,400,1,400,1,horizontal,red,Distractor1.bmp,lime,Target2.bmp,purple,Distractor1.bmp,blue,Distractor1.bmp,yellow,Distractor2.bmp,cyan,Distractor2.bmp,,,,TrialProc,,TrainingTrialList,1,2,-999999,0,462053,0,2,648,462701,Target2.bmp,lime,2,,,,2,3,70
KW_Experiment5A,30,1,"<?xml version=""1.0""?>\n<Clock xmlns:dt=""urn:schemas-microsoft-com:datatypes""><Description dt:dt=""string"">E-Prime Primary Realtime Clock</Description><StartTime><Timestamp dt:dt=""int"">0</Timestamp><DateUtc dt:dt=""string"">2018-10-18T18:53:20Z</DateUtc></StartTime><FrequencyChanges><FrequencyChange><Frequency dt:dt=""r8"">3215244</Frequency><Timestamp dt:dt=""r8"">7431061245760</Timestamp><Current dt:dt=""r8"">0</Current><DateUtc dt:dt=""string"">2018-10-18T18:53:20Z</DateUtc></FrequencyChange></FrequencyChanges></Clock>\n",KW_Experiment5A-30-1,59.944,1.0.0.105,1,768467236,Professional,2.0.10.353,2.0.10.353,10/18/2018,10/18/2018 18:53,14:53:20,2.0.10.248,3,2,1,3,,,,,,,,TrainingProc,BlockList,23,2,Distractor2.bmp,2,0,,1,0,463721,601,,0,0,yellow,600,3,600,2,horizontal,yellow,Distractor1.bmp,purple,Distractor2.bmp,lime,Target2.bmp,red,Distractor2.bmp,cyan,Distractor1.bmp,blue,Distractor1.bmp,,,,TrialProc,,TrainingTrialList,1,2,-999999,1,464322,0,2,1251,465573,Target2.bmp,lime,2,,,,3,3,71
KW_Experiment5A,30,1,"<?xml version=""1.0""?>\n<Clock xmlns:dt=""urn:schemas-microsoft-com:datatypes""><Description dt:dt=""string"">E-Prime Primary Realtime Clock</Description><StartTime><Timestamp dt:dt=""int"">0</Timestamp><DateUtc dt:dt=""string"">2018-10-18T18:53:20Z</DateUtc></StartTime><FrequencyChanges><FrequencyChange><Frequency dt:dt=""r8"">3215244</Frequency><Timestamp dt:dt=""r8"">7431061245760</Timestamp><Current dt:dt=""r8"">0</Current><DateUtc dt:dt=""string"">2018-10-18T18:53:20Z</DateUtc></FrequencyChange></FrequencyChanges></Clock>\n",KW_Experiment5A-30-1,59.944,1.0.0.105,1,768467236,Professional,2.0.10.353,2.0.10.353,10/18/2018,10/18/2018 18:53,14:53:20,2.0.10.248,3,2,1,3,,,,,,,,TrainingProc,BlockList,24,2,Distractor1.bmp,1,0,,0,1,466591,600,,0,0,yellow,600,3,600,2,horizontal,yellow,Distractor2.bmp,purple,Distractor2.bmp,blue,Distractor1.bmp,red,Distractor2.bmp,lime,Target2.bmp,cyan,Distractor1.bmp,,,,TrialProc,,TrainingTrialList,1,2,-999999,0,467191,0,2,582,467773,Target2.bmp,lime,2,,,,5,3,72
KW_Experiment5A,30,1,"<?xml version=""1.0""?>\n<Clock xmlns:dt=""urn:schemas-microsoft-com:datatypes""><Description dt:dt=""string"">E-Prime Primary Realtime Clock</Description><StartTime><Timestamp dt:dt=""int"">0</Timestamp><DateUtc dt:dt=""string"">2018-10-18T18:53:20Z</DateUtc></StartTime><FrequencyChanges><FrequencyChange><Frequency dt:dt=""r8"">3215244</Frequency><Timestamp dt:dt=""r8"">7431061245760</Timestamp><Current dt:dt=""r8"">0</Current><DateUtc dt:dt=""string"">2018-10-18T18:53:20Z</DateUtc></FrequencyChange></FrequencyChanges></Clock>\n",KW_Experiment5A-30-1,59.944,1.0.0.105,1,768467236,Professional,2.0.10.353,2.0.10.353,10/18/2018,10/18/2018 18:53,14:53:20,2.0.10.248,3,2,1,3,,,,,,,,TrainingProc,BlockList,25,2,Distractor1.bmp,1,0,,0,1,468793,400,,0,0,purple,400,1,400,5,horizontal,purple,Distractor2.bmp,lime,Target2.bmp,red,Distractor1.bmp,cyan,Distractor1.bmp,yellow,Distractor1.bmp,blue,Distractor2.bmp,,,,TrialProc,,TrainingTrialList,1,2,-999999,0,469193,0,2,452,469645,Target2.bmp,lime,2,,,,2,4,73
KW_Experiment5A,30,1,"<?xml version=""1.0""?>\n<Clock xmlns:dt=""urn:schemas-microsoft-com:datatypes""><Description dt:dt=""string"">E-Prime Primary Realtime Clock</Description><StartTime><Timestamp dt:dt=""int"">0</Timestamp><DateUtc dt:dt=""string"">2018-10-18T18:53:20Z</DateUtc></StartTime><FrequencyChanges><FrequencyChange><Frequency dt:dt=""r8"">3215244</Frequency><Timestamp dt:dt=""r8"">7431061245760</Timestamp><Current dt:dt=""r8"">0</Current><DateUtc dt:dt=""string"">2018-10-18T18:53:20Z</DateUtc></FrequencyChange></FrequencyChanges></Clock>\n",KW_Experiment5A-30-1,59.944,1.0.0.105,1,768467236,Professional,2.0.10.353,2.0.10.353,10/18/2018,10/18/2018 18:53,14:53:20,2.0.10.248,3,2,1,3,,,,,,,,TrainingProc,BlockList,26,1,Distractor1.bmp,1,0,,0,1,470661,501,,0,0,red,500,2,500,1,vertical,red,Distractor1.bmp,purple,Distractor1.bmp,cyan,Distractor1.bmp,blue,Distractor1.bmp,yellow,Distractor1.bmp,lime,Target1.bmp,,,,TrialProc,,TrainingTrialList,1,1,-999999,1,471162,0,1,491,471653,Target1.bmp,lime,1,,,,6,4,74
KW_Experiment5A,30,1,"<?xml version=""1.0""?>\n<Clock xmlns:dt=""urn:schemas-microsoft-com:datatypes""><Description dt:dt=""string"">E-Prime Primary Realtime Clock</Description><StartTime><Timestamp dt:dt=""int"">0</Timestamp><DateUtc dt:dt=""string"">2018-10-18T18:53:20Z</DateUtc></StartTime><FrequencyChanges><FrequencyChange><Frequency dt:dt=""r8"">3215244</Frequency><Timestamp dt:dt=""r8"">7431061245760</Timestamp><Current dt:dt=""r8"">0</Current><DateUtc dt:dt=""string"">2018-10-18T18:53:20Z</DateUtc></FrequencyChange></FrequencyChanges></Clock>\n",KW_Experiment5A-30-1,59.944,1.0.0.105,1,768467236,Professional,2.0.10.353,2.0.10.353,10/18/2018,10/18/2018 18:53,14:53:20,2.0.10.248,3,2,1,3,,,,,,,,TrainingProc,BlockList,27,1,Distractor2.bmp,2,0,,0,1,472663,400,,0,0,yellow,400,1,400,2,vertical,lime,Target1.bmp,yellow,Distractor2.bmp,cyan,Distractor2.bmp,purple,Distractor1.bmp,red,Distractor2.bmp,blue,Distractor2.bmp,,,,TrialProc,,TrainingTrialList,1,1,-999999,0,473063,0,1,774,473837,Target1.bmp,lime,1,,,,1,4,75
KW_Experiment5A,30,1,"<?xml version=""1.0""?>\n<Clock xmlns:dt=""urn:schemas-microsoft-com:datatypes""><Description dt:dt=""string"">E-Prime Primary Realtime Clock</Description><StartTime><Timestamp dt:dt=""int"">0</Timestamp><DateUtc dt:dt=""string"">2018-10-18T18:53:20Z</DateUtc></StartTime><FrequencyChanges><FrequencyChange><Frequency dt:dt=""r8"">3215244</Frequency><Timestamp dt:dt=""r8"">7431061245760</Timestamp><Current dt:dt=""r8"">0</Current><DateUtc dt:dt=""string"">2018-10-18T18:53:20Z</DateUtc></FrequencyChange></FrequencyChanges></Clock>\n",KW_Experiment5A-30-1,59.944,1.0.0.105,1,768467236,Professional,2.0.10.353,2.0.10.353,10/18/2018,10/18/2018 18:53,14:53:20,2.0.10.248,3,2,1,3,,,,,,,,TrainingProc,BlockList,28,1,Distractor2.bmp,2,0,,0,1,474848,601,,0,0,blue,600,3,600,3,vertical,blue,Distractor2.bmp,yellow,Distractor2.bmp,purple,Distractor1.bmp,lime,Target1.bmp,red,Distractor2.bmp,cyan,Distractor1.bmp,,,,TrialProc,,TrainingTrialList,1,1,-999999,1,475449,0,1,572,476021,Target1.bmp,lime,1,,,,4,4,76
KW_Experiment5A,30,1,"<?xml version=""1.0""?>\n<Clock xmlns:dt=""urn:schemas-microsoft-com:datatypes""><Description dt:dt=""string"">E-Prime Primary Realtime Clock</Description><StartTime><Timestamp dt:dt=""int"">0</Timestamp><DateUtc dt:dt=""string"">2018-10-18T18:53:20Z</DateUtc></StartTime><FrequencyChanges><FrequencyChange><Frequency dt:dt=""r8"">3215244</Frequency><Timestamp dt:dt=""r8"">7431061245760</Timestamp><Current dt:dt=""r8"">0</Current><DateUtc dt:dt=""string"">2018-10-18T18:53:20Z</DateUtc></FrequencyChange></FrequencyChanges></Clock>\n",KW_Experiment5A-30-1,59.944,1.0.0.105,1,768467236,Professional,2.0.10.353,2.0.10.353,10/18/2018,10/18/2018 18:53,14:53:20,2.0.10.248,3,2,1,3,,,,,,,,TrainingProc,BlockList,29,2,Distractor1.bmp,1,0,,0,1,477034,400,,0,0,yellow,400,1,400,2,horizontal,yellow,Distractor2.bmp,red,Distractor2.bmp,purple,Distractor1.bmp,lime,Target2.bmp,cyan,Distractor1.bmp,blue,Distractor1.bmp,,,,TrialProc,,TrainingTrialList,1,2,-999999,0,477434,0,2,563,477997,Target2.bmp,lime,2,,,,4,4,77
KW_Experiment5A,30,1,"<?xml version=""1.0""?>\n<Clock xmlns:dt=""urn:schemas-microsoft-com:datatypes""><Description dt:dt=""string"">E-Prime Primary Realtime Clock</Description><StartTime><Timestamp dt:dt=""int"">0</Timestamp><DateUtc dt:dt=""string"">2018-10-18T18:53:20Z</DateUtc></StartTime><FrequencyChanges><FrequencyChange><Frequency dt:dt=""r8"">3215244</Frequency><Timestamp dt:dt=""r8"">7431061245760</Timestamp><Current dt:dt=""r8"">0</Current><DateUtc dt:dt=""string"">2018-10-18T18:53:20Z</DateUtc></FrequencyChange></FrequencyChanges></Clock>\n",KW_Experiment5A-30-1,59.944,1.0.0.105,1,768467236,Professional,2.0.10.353,2.0.10.353,10/18/2018,10/18/2018 18:53,14:53:20,2.0.10.248,3,2,1,3,,,,,,,,TrainingProc,BlockList,30,1,Distractor1.bmp,1,0,,0,1,479019,600,,0,0,yellow,600,3,600,2,vertical,yellow,Distractor1.bmp,red,Distractor1.bmp,blue,Distractor1.bmp,cyan,Distractor1.bmp,lime,Target1.bmp,purple,Distractor1.bmp,,,,TrialProc,,TrainingTrialList,0,1,-999999,0,479619,0,2,490,480109,Target1.bmp,lime,1,,,,5,4,78
KW_Experiment5A,30,1,"<?xml version=""1.0""?>\n<Clock xmlns:dt=""urn:schemas-microsoft-com:datatypes""><Description dt:dt=""string"">E-Prime Primary Realtime Clock</Description><StartTime><Timestamp dt:dt=""int"">0</Timestamp><DateUtc dt:dt=""string"">2018-10-18T18:53:20Z</DateUtc></StartTime><FrequencyChanges><FrequencyChange><Frequency dt:dt=""r8"">3215244</Frequency><Timestamp dt:dt=""r8"">7431061245760</Timestamp><Current dt:dt=""r8"">0</Current><DateUtc dt:dt=""string"">2018-10-18T18:53:20Z</DateUtc></FrequencyChange></FrequencyChanges></Clock>\n",KW_Experiment5A-30-1,59.944,1.0.0.105,1,768467236,Professional,2.0.10.353,2.0.10.353,10/18/2018,10/18/2018 18:53,14:53:20,2.0.10.248,3,2,1,3,,,,,,,,TrainingProc,BlockList,31,1,Distractor2.bmp,2,0,,0,1,481121,500,,0,0,yellow,500,2,500,2,vertical,yellow,Distractor2.bmp,cyan,Distractor2.bmp,red,Distractor1.bmp,blue,Distractor1.bmp,purple,Distractor1.bmp,lime,Target1.bmp,,,,TrialProc,,TrainingTrialList,1,1,-999999,0,481621,0,1,544,482165,Target1.bmp,lime,1,,,,6,4,79
KW_Experiment5A,30,1,"<?xml version=""1.0""?>\n<Clock xmlns:dt=""urn:schemas-microsoft-com:datatypes""><Description dt:dt=""string"">E-Prime Primary Realtime Clock</Description><StartTime><Timestamp dt:dt=""int"">0</Timestamp><DateUtc dt:dt=""string"">2018-10-18T18:53:20Z</DateUtc></StartTime><FrequencyChanges><FrequencyChange><Frequency dt:dt=""r8"">3215244</Frequency><Timestamp dt:dt=""r8"">7431061245760</Timestamp><Current dt:dt=""r8"">0</Current><DateUtc dt:dt=""string"">2018-10-18T18:53:20Z</DateUtc></FrequencyChange></FrequencyChanges></Clock>\n",KW_Experiment5A-30-1,59.944,1.0.0.105,1,768467236,Professional,2.0.10.353,2.0.10.353,10/18/2018,10/18/2018 18:53,14:53:20,2.0.10.248,3,2,1,3,,,,,,,,TrainingProc,BlockList,32,2,Distractor2.bmp,2,0,,1,0,483189,401,,0,0,yellow,400,1,400,2,horizontal,yellow,Distractor1.bmp,blue,Distractor1.bmp,purple,Distractor1.bmp,lime,Target2.bmp,cyan,Distractor2.bmp,red,Distractor2.bmp,,,,TrialProc,,TrainingTrialList,1,2,-999999,1,483590,0,2,535,484125,Target2.bmp,lime,2,,,,4,4,80
KW_Experiment5A,30,1,"<?xml version=""1.0""?>\n<Clock xmlns:dt=""urn:schemas-microsoft-com:datatypes""><Description dt:dt=""string"">E-Prime Primary Realtime Clock</Description><StartTime><Timestamp dt:dt=""int"">0</Timestamp><DateUtc dt:dt=""string"">2018-10-18T18:53:20Z</DateUtc></StartTime><FrequencyChanges><FrequencyChange><Frequency dt:dt=""r8"">3215244</Frequency><Timestamp dt:dt=""r8"">7431061245760</Timestamp><Current dt:dt=""r8"">0</Current><DateUtc dt:dt=""string"">2018-10-18T18:53:20Z</DateUtc></FrequencyChange></FrequencyChanges></Clock>\n",KW_Experiment5A-30-1,59.944,1.0.0.105,1,768467236,Professional,2.0.10.353,2.0.10.353,10/18/2018,10/18/2018 18:53,14:53:20,2.0.10.248,3,2,1,3,,,,,,,,TrainingProc,BlockList,33,2,Distractor1.bmp,1,0,,0,1,485141,601,,0,0,blue,600,3,600,3,horizontal,blue,Distractor2.bmp,cyan,Distractor1.bmp,lime,Target2.bmp,yellow,Distractor1.bmp,red,Distractor2.bmp,purple,Distractor2.bmp,,,,TrialProc,,TrainingTrialList,1,2,-999999,1,485742,0,2,551,486293,Target2.bmp,lime,2,,,,3,4,81
KW_Experiment5A,30,1,"<?xml version=""1.0""?>\n<Clock xmlns:dt=""urn:schemas-microsoft-com:datatypes""><Description dt:dt=""string"">E-Prime Primary Realtime Clock</Description><StartTime><Timestamp dt:dt=""int"">0</Timestamp><DateUtc dt:dt=""string"">2018-10-18T18:53:20Z</DateUtc></StartTime><FrequencyChanges><FrequencyChange><Frequency dt:dt=""r8"">3215244</Frequency><Timestamp dt:dt=""r8"">7431061245760</Timestamp><Current dt:dt=""r8"">0</Current><DateUtc dt:dt=""string"">2018-10-18T18:53:20Z</DateUtc></FrequencyChange></FrequencyChanges></Clock>\n",KW_Experiment5A-30-1,59.944,1.0.0.105,1,768467236,Professional,2.0.10.353,2.0.10.353,10/18/2018,10/18/2018 18:53,14:53:20,2.0.10.248,3,2,1,3,,,,,,,,TrainingProc,BlockList,34,2,Distractor2.bmp,2,0,,0,1,487310,400,,0,0,purple,400,1,400,,horizontal,purple,Distractor1.bmp,cyan,Distractor2.bmp,yellow,Distractor1.bmp,blue,Distractor2.bmp,red,Target2.bmp,lime,Distractor2.bmp,,,,TrialProc,5,TrainingTrialList,0,2,-999999,0,487710,0,1,607,488317,Target2.bmp,red,2,,,,11,4,82
KW_Experiment5A,30,1,"<?xml version=""1.0""?>\n<Clock xmlns:dt=""urn:schemas-microsoft-com:datatypes""><Description dt:dt=""string"">E-Prime Primary Realtime Clock</Description><StartTime><Timestamp dt:dt=""int"">0</Timestamp><DateUtc dt:dt=""string"">2018-10-18T18:53:20Z</DateUtc></StartTime><FrequencyChanges><FrequencyChange><Frequency dt:dt=""r8"">3215244</Frequency><Timestamp dt:dt=""r8"">7431061245760</Timestamp><Current dt:dt=""r8"">0</Current><DateUtc dt:dt=""string"">2018-10-18T18:53:20Z</DateUtc></FrequencyChange></FrequencyChanges></Clock>\n",KW_Experiment5A-30-1,59.944,1.0.0.105,1,768467236,Professional,2.0.10.353,2.0.10.353,10/18/2018,10/18/2018 18:53,14:53:20,2.0.10.248,3,2,1,3,,,,,,,,TrainingProc,BlockList,35,1,Distractor2.bmp,2,0,,0,0,489328,401,,0,0,cyan,400,1,400,,vertical,cyan,Distractor2.bmp,lime,Distractor2.bmp,yellow,Distractor2.bmp,blue,Distractor2.bmp,purple,Distractor1.bmp,red,Target1.bmp,,,,TrialProc,4,TrainingTrialList,1,1,-999999,1,489729,0,1,908,490637,Target1.bmp,red,1,,,,12,4,83
KW_Experiment5A,30,1,"<?xml version=""1.0""?>\n<Clock xmlns:dt=""urn:schemas-microsoft-com:datatypes""><Description dt:dt=""string"">E-Prime Primary Realtime Clock</Description><StartTime><Timestamp dt:dt=""int"">0</Timestamp><DateUtc dt:dt=""string"">2018-10-18T18:53:20Z</DateUtc></StartTime><FrequencyChanges><FrequencyChange><Frequency dt:dt=""r8"">3215244</Frequency><Timestamp dt:dt=""r8"">7431061245760</Timestamp><Current dt:dt=""r8"">0</Current><DateUtc dt:dt=""string"">2018-10-18T18:53:20Z</DateUtc></FrequencyChange></FrequencyChanges></Clock>\n",KW_Experiment5A-30-1,59.944,1.0.0.105,1,768467236,Professional,2.0.10.353,2.0.10.353,10/18/2018,10/18/2018 18:53,14:53:20,2.0.10.248,3,2,1,3,,,,,,,,TrainingProc,BlockList,36,1,Distractor2.bmp,2,0,,0,1,491647,501,,0,0,yellow,500,2,500,2,vertical,yellow,Distractor2.bmp,lime,Target1.bmp,blue,Distractor2.bmp,red,Distractor2.bmp,purple,Distractor2.bmp,cyan,Distractor2.bmp,,,,TrialProc,,TrainingTrialList,1,1,-999999,1,492148,0,1,897,493045,Target1.bmp,lime,1,,,,2,4,84
KW_Experiment5A,30,1,"<?xml version=""1.0""?>\n<Clock xmlns:dt=""urn:schemas-microsoft-com:datatypes""><Description dt:dt=""string"">E-Prime Primary Realtime Clock</Description><StartTime><Timestamp dt:dt=""int"">0</Timestamp><DateUtc dt:dt=""string"">2018-10-18T18:53:20Z</DateUtc></StartTime><FrequencyChanges><FrequencyChange><Frequency dt:dt=""r8"">3215244</Frequency><Timestamp dt:dt=""r8"">7431061245760</Timestamp><Current dt:dt=""r8"">0</Current><DateUtc dt:dt=""string"">2018-10-18T18:53:20Z</DateUtc></FrequencyChange></FrequencyChanges></Clock>\n",KW_Experiment5A-30-1,59.944,1.0.0.105,1,768467236,Professional,2.0.10.353,2.0.10.353,10/18/2018,10/18/2018 18:53,14:53:20,2.0.10.248,3,2,1,3,,,,,,,,TrainingProc,BlockList,37,1,Distractor2.bmp,2,0,,0,1,494066,601,,0,0,cyan,600,3,600,,vertical,red,Target1.bmp,yellow,Distractor2.bmp,blue,Distractor1.bmp,purple,Distractor2.bmp,lime,Distractor2.bmp,cyan,Distractor2.bmp,,,,TrialProc,4,TrainingTrialList,1,1,-999999,1,494667,0,1,1666,496333,Target1.bmp,red,1,,,,7,4,85
KW_Experiment5A,30,1,"<?xml version=""1.0""?>\n<Clock xmlns:dt=""urn:schemas-microsoft-com:datatypes""><Description dt:dt=""string"">E-Prime Primary Realtime Clock</Description><StartTime><Timestamp dt:dt=""int"">0</Timestamp><DateUtc dt:dt=""string"">2018-10-18T18:53:20Z</DateUtc></StartTime><FrequencyChanges><FrequencyChange><Frequency dt:dt=""r8"">3215244</Frequency><Timestamp dt:dt=""r8"">7431061245760</Timestamp><Current dt:dt=""r8"">0</Current><DateUtc dt:dt=""string"">2018-10-18T18:53:20Z</DateUtc></FrequencyChange></FrequencyChanges></Clock>\n",KW_Experiment5A-30-1,59.944,1.0.0.105,1,768467236,Professional,2.0.10.353,2.0.10.353,10/18/2018,10/18/2018 18:53,14:53:20,2.0.10.248,3,2,1,3,,,,,,,,TrainingProc,BlockList,38,1,Distractor2.bmp,2,0,,1,0,497352,501,,0,0,blue,500,2,500,3,vertical,blue,Distractor2.bmp,red,Distractor2.bmp,cyan,Distractor2.bmp,yellow,Distractor2.bmp,purple,Distractor2.bmp,lime,Target1.bmp,,,,TrialProc,,TrainingTrialList,1,1,-999999,1,497853,0,1,448,498301,Target1.bmp,lime,1,,,,6,4,86
KW_Experiment5A,30,1,"<?xml version=""1.0""?>\n<Clock xmlns:dt=""urn:schemas-microsoft-com:datatypes""><Description dt:dt=""string"">E-Prime Primary Realtime Clock</Description><StartTime><Timestamp dt:dt=""int"">0</Timestamp><DateUtc dt:dt=""string"">2018-10-18T18:53:20Z</DateUtc></StartTime><FrequencyChanges><FrequencyChange><Frequency dt:dt=""r8"">3215244</Frequency><Timestamp dt:dt=""r8"">7431061245760</Timestamp><Current dt:dt=""r8"">0</Current><DateUtc dt:dt=""string"">2018-10-18T18:53:20Z</DateUtc></FrequencyChange></FrequencyChanges></Clock>\n",KW_Experiment5A-30-1,59.944,1.0.0.105,1,768467236,Professional,2.0.10.353,2.0.10.353,10/18/2018,10/18/2018 18:53,14:53:20,2.0.10.248,3,2,1,3,,,,,,,,TrainingProc,BlockList,39,2,Distractor2.bmp,2,0,,0,1,499321,400,,0,0,lime,400,1,400,,horizontal,lime,Distractor2.bmp,red,Target2.bmp,purple,Distractor2.bmp,yellow,Distractor2.bmp,blue,Distractor2.bmp,cyan,Distractor2.bmp,,,,TrialProc,6,TrainingTrialList,1,2,-999999,0,499721,0,2,884,500605,Target2.bmp,red,2,,,,8,4,87
KW_Experiment5A,30,1,"<?xml version=""1.0""?>\n<Clock xmlns:dt=""urn:schemas-microsoft-com:datatypes""><Description dt:dt=""string"">E-Prime Primary Realtime Clock</Description><StartTime><Timestamp dt:dt=""int"">0</Timestamp><DateUtc dt:dt=""string"">2018-10-18T18:53:20Z</DateUtc></StartTime><FrequencyChanges><FrequencyChange><Frequency dt:dt=""r8"">3215244</Frequency><Timestamp dt:dt=""r8"">7431061245760</Timestamp><Current dt:dt=""r8"">0</Current><DateUtc dt:dt=""string"">2018-10-18T18:53:20Z</DateUtc></FrequencyChange></FrequencyChanges></Clock>\n",KW_Experiment5A-30-1,59.944,1.0.0.105,1,768467236,Professional,2.0.10.353,2.0.10.353,10/18/2018,10/18/2018 18:53,14:53:20,2.0.10.248,3,2,1,3,,,,,,,,TrainingProc,BlockList,40,2,Distractor2.bmp,2,0,,0,1,501623,501,,0,0,lime,500,2,500,,horizontal,lime,Distractor2.bmp,blue,Distractor2.bmp,red,Target2.bmp,purple,Distractor2.bmp,cyan,Distractor1.bmp,yellow,Distractor1.bmp,,,,TrialProc,6,TrainingTrialList,1,2,-999999,1,502124,0,2,673,502797,Target2.bmp,red,2,,,,9,4,88
KW_Experiment5A,30,1,"<?xml version=""1.0""?>\n<Clock xmlns:dt=""urn:schemas-microsoft-com:datatypes""><Description dt:dt=""string"">E-Prime Primary Realtime Clock</Description><StartTime><Timestamp dt:dt=""int"">0</Timestamp><DateUtc dt:dt=""string"">2018-10-18T18:53:20Z</DateUtc></StartTime><FrequencyChanges><FrequencyChange><Frequency dt:dt=""r8"">3215244</Frequency><Timestamp dt:dt=""r8"">7431061245760</Timestamp><Current dt:dt=""r8"">0</Current><DateUtc dt:dt=""string"">2018-10-18T18:53:20Z</DateUtc></FrequencyChange></FrequencyChanges></Clock>\n",KW_Experiment5A-30-1,59.944,1.0.0.105,1,768467236,Professional,2.0.10.353,2.0.10.353,10/18/2018,10/18/2018 18:53,14:53:20,2.0.10.248,3,2,1,3,,,,,,,,TrainingProc,BlockList,41,1,Distractor1.bmp,1,0,,0,0,503808,601,,0,0,purple,600,3,600,5,vertical,purple,Distractor2.bmp,cyan,Distractor1.bmp,lime,Target1.bmp,yellow,Distractor1.bmp,red,Distractor2.bmp,blue,Distractor2.bmp,,,,TrialProc,,TrainingTrialList,1,1,-999999,1,504409,0,1,667,505076,Target1.bmp,lime,1,,,,3,4,89
KW_Experiment5A,30,1,"<?xml version=""1.0""?>\n<Clock xmlns:dt=""urn:schemas-microsoft-com:datatypes""><Description dt:dt=""string"">E-Prime Primary Realtime Clock</Description><StartTime><Timestamp dt:dt=""int"">0</Timestamp><DateUtc dt:dt=""string"">2018-10-18T18:53:20Z</DateUtc></StartTime><FrequencyChanges><FrequencyChange><Frequency dt:dt=""r8"">3215244</Frequency><Timestamp dt:dt=""r8"">7431061245760</Timestamp><Current dt:dt=""r8"">0</Current><DateUtc dt:dt=""string"">2018-10-18T18:53:20Z</DateUtc></FrequencyChange></FrequencyChanges></Clock>\n",KW_Experiment5A-30-1,59.944,1.0.0.105,1,768467236,Professional,2.0.10.353,2.0.10.353,10/18/2018,10/18/2018 18:53,14:53:20,2.0.10.248,3,2,1,3,,,,,,,,TrainingProc,BlockList,42,1,Distractor2.bmp,2,0,,0,1,506094,500,,0,0,lime,500,2,500,,vertical,lime,Distractor1.bmp,blue,Distractor2.bmp,cyan,Distractor1.bmp,red,Target1.bmp,yellow,Distractor2.bmp,purple,Distractor2.bmp,,,,TrialProc,6,TrainingTrialList,1,1,-999999,0,506594,0,1,834,507428,Target1.bmp,red,1,,,,10,4,90
