ExperimentName,Subject,Session,Clock.Information,DataFile.Basename,Display.RefreshRate,ExperimentVersion,Group,RandomSeed,RuntimeCapabilities,RuntimeVersion,RuntimeVersionExpected,SessionDate,SessionStartDateTimeUtc,SessionTime,StudioVersion,Block,BlockList,BlockList.Cycle,BlockList.Sample,PostTestQ1.RESP,PostTestQ1CJ.RESP,PostTestQ2.RESP,PostTestQ2CJ.RESP,PostTestQ3.RESP,PostTestQ3CJ.RESP,PostTestSlide.RESP,Procedure[Block],Running[Block],Trial,CorrectResponse,Distractor,DistractorList,Fixation.ACC,Fixation.CRESP,Fixation.DurationError,Fixation.OnsetDelay,Fixation.OnsetTime,Fixation.OnsetToOnsetTime,Fixation.RESP,Fixation.RT,Fixation.RTTime,ItemColor,Jitter,JitterList,JitterTime,Lime0List,Orientation,Pos1Color,Pos1Item,Pos2Color,Pos2Item,Pos3Color,Pos3Item,Pos4Color,Pos4Item,Pos5Color,Pos5Item,Pos6Color,Pos6Item,PracticeTrialList,PracticeTrialList.Cycle,PracticeTrialList.Sample,Procedure[Trial],Red0List,Running[Trial],Stimulus.ACC,Stimulus.CRESP,Stimulus.DurationError,Stimulus.OnsetDelay,Stimulus.OnsetTime,Stimulus.OnsetToOnsetTime,Stimulus.RESP,Stimulus.RT,Stimulus.RTTime,Target,TargetColor,TargetList,TestTrialList,TestTrialList.Cycle,TestTrialList.Sample,TrainingTrialList,TrainingTrialList.Cycle,TrainingTrialList.Sample
KW_Experiment5A,36,1,"<?xml version=""1.0""?>\n<Clock xmlns:dt=""urn:schemas-microsoft-com:datatypes""><Description dt:dt=""string"">E-Prime Primary Realtime Clock</Description><StartTime><Timestamp dt:dt=""int"">0</Timestamp><DateUtc dt:dt=""string"">2018-10-18T20:57:10Z</DateUtc></StartTime><FrequencyChanges><FrequencyChange><Frequency dt:dt=""r8"">3215292</Frequency><Timestamp dt:dt=""r8"">6171523856253</Timestamp><Current dt:dt=""r8"">0</Current><DateUtc dt:dt=""string"">2018-10-18T20:57:10Z</DateUtc></FrequencyChange></FrequencyChanges></Clock>\n",KW_Experiment5A-36-1,59.946,1.0.0.105,1,-343524022,Professional,2.0.10.353,2.0.10.353,10/18/2018,10/18/2018 20:57,16:57:10,2.0.10.248,1,1,1,1,,,,,,,,PracticeProc,BlockList,1,1,Distractor1.bmp,1,0,,0,37,179482,501,,0,0,yellow,500,2,500,,vertical,cyan,Distractor1.bmp,blue,Distractor1.bmp,yellow,Distractor2.bmp,red,Target1.bmp,lime,Distractor1.bmp,purple,Distractor1.bmp,4,1,1,TrialProc,2,PracticeTrialList,1,1,-999999,1,179983,0,1,1718,181701,Target1.bmp,red,1,,,,,,
KW_Experiment5A,36,1,"<?xml version=""1.0""?>\n<Clock xmlns:dt=""urn:schemas-microsoft-com:datatypes""><Description dt:dt=""string"">E-Prime Primary Realtime Clock</Description><StartTime><Timestamp dt:dt=""int"">0</Timestamp><DateUtc dt:dt=""string"">2018-10-18T20:57:10Z</DateUtc></StartTime><FrequencyChanges><FrequencyChange><Frequency dt:dt=""r8"">3215292</Frequency><Timestamp dt:dt=""r8"">6171523856253</Timestamp><Current dt:dt=""r8"">0</Current><DateUtc dt:dt=""string"">2018-10-18T20:57:10Z</DateUtc></FrequencyChange></FrequencyChanges></Clock>\n",KW_Experiment5A-36-1,59.946,1.0.0.105,1,-343524022,Professional,2.0.10.353,2.0.10.353,10/18/2018,10/18/2018 20:57,16:57:10,2.0.10.248,1,1,1,1,,,,,,,,PracticeProc,BlockList,2,2,Distractor1.bmp,1,0,,0,1,182719,500,,0,0,yellow,500,2,500,2,horizontal,red,Distractor2.bmp,blue,Distractor1.bmp,cyan,Distractor1.bmp,yellow,Distractor2.bmp,lime,Target2.bmp,purple,Distractor1.bmp,5,1,2,TrialProc,,PracticeTrialList,1,2,-999999,0,183219,0,2,1226,184445,Target2.bmp,lime,2,,,,,,
KW_Experiment5A,36,1,"<?xml version=""1.0""?>\n<Clock xmlns:dt=""urn:schemas-microsoft-com:datatypes""><Description dt:dt=""string"">E-Prime Primary Realtime Clock</Description><StartTime><Timestamp dt:dt=""int"">0</Timestamp><DateUtc dt:dt=""string"">2018-10-18T20:57:10Z</DateUtc></StartTime><FrequencyChanges><FrequencyChange><Frequency dt:dt=""r8"">3215292</Frequency><Timestamp dt:dt=""r8"">6171523856253</Timestamp><Current dt:dt=""r8"">0</Current><DateUtc dt:dt=""string"">2018-10-18T20:57:10Z</DateUtc></FrequencyChange></FrequencyChanges></Clock>\n",KW_Experiment5A-36-1,59.946,1.0.0.105,1,-343524022,Professional,2.0.10.353,2.0.10.353,10/18/2018,10/18/2018 20:57,16:57:10,2.0.10.248,1,1,1,1,,,,,,,,PracticeProc,BlockList,3,2,Distractor2.bmp,2,0,,0,1,185471,601,,0,0,cyan,600,3,600,,horizontal,cyan,Distractor2.bmp,red,Target2.bmp,purple,Distractor2.bmp,yellow,Distractor1.bmp,lime,Distractor1.bmp,blue,Distractor2.bmp,2,1,3,TrialProc,4,PracticeTrialList,1,2,-999999,1,186072,0,2,1429,187501,Target2.bmp,red,2,,,,,,
KW_Experiment5A,36,1,"<?xml version=""1.0""?>\n<Clock xmlns:dt=""urn:schemas-microsoft-com:datatypes""><Description dt:dt=""string"">E-Prime Primary Realtime Clock</Description><StartTime><Timestamp dt:dt=""int"">0</Timestamp><DateUtc dt:dt=""string"">2018-10-18T20:57:10Z</DateUtc></StartTime><FrequencyChanges><FrequencyChange><Frequency dt:dt=""r8"">3215292</Frequency><Timestamp dt:dt=""r8"">6171523856253</Timestamp><Current dt:dt=""r8"">0</Current><DateUtc dt:dt=""string"">2018-10-18T20:57:10Z</DateUtc></FrequencyChange></FrequencyChanges></Clock>\n",KW_Experiment5A-36-1,59.946,1.0.0.105,1,-343524022,Professional,2.0.10.353,2.0.10.353,10/18/2018,10/18/2018 20:57,16:57:10,2.0.10.248,1,1,1,1,,,,,,,,PracticeProc,BlockList,4,1,Distractor2.bmp,2,0,,0,1,188524,400,,0,0,lime,400,1,400,,vertical,purple,Distractor2.bmp,blue,Distractor2.bmp,yellow,Distractor2.bmp,cyan,Distractor1.bmp,lime,Distractor2.bmp,red,Target1.bmp,6,1,4,TrialProc,6,PracticeTrialList,1,1,-999999,0,188924,0,1,809,189733,Target1.bmp,red,1,,,,,,
KW_Experiment5A,36,1,"<?xml version=""1.0""?>\n<Clock xmlns:dt=""urn:schemas-microsoft-com:datatypes""><Description dt:dt=""string"">E-Prime Primary Realtime Clock</Description><StartTime><Timestamp dt:dt=""int"">0</Timestamp><DateUtc dt:dt=""string"">2018-10-18T20:57:10Z</DateUtc></StartTime><FrequencyChanges><FrequencyChange><Frequency dt:dt=""r8"">3215292</Frequency><Timestamp dt:dt=""r8"">6171523856253</Timestamp><Current dt:dt=""r8"">0</Current><DateUtc dt:dt=""string"">2018-10-18T20:57:10Z</DateUtc></FrequencyChange></FrequencyChanges></Clock>\n",KW_Experiment5A-36-1,59.946,1.0.0.105,1,-343524022,Professional,2.0.10.353,2.0.10.353,10/18/2018,10/18/2018 20:57,16:57:10,2.0.10.248,1,1,1,1,,,,,,,,PracticeProc,BlockList,5,1,Distractor2.bmp,2,0,,0,1,190743,400,,0,0,red,400,1,400,1,vertical,lime,Target1.bmp,purple,Distractor2.bmp,yellow,Distractor1.bmp,blue,Distractor2.bmp,cyan,Distractor1.bmp,red,Distractor1.bmp,1,1,5,TrialProc,,PracticeTrialList,0,1,-999999,0,191143,0,2,830,191973,Target1.bmp,lime,1,,,,,,
KW_Experiment5A,36,1,"<?xml version=""1.0""?>\n<Clock xmlns:dt=""urn:schemas-microsoft-com:datatypes""><Description dt:dt=""string"">E-Prime Primary Realtime Clock</Description><StartTime><Timestamp dt:dt=""int"">0</Timestamp><DateUtc dt:dt=""string"">2018-10-18T20:57:10Z</DateUtc></StartTime><FrequencyChanges><FrequencyChange><Frequency dt:dt=""r8"">3215292</Frequency><Timestamp dt:dt=""r8"">6171523856253</Timestamp><Current dt:dt=""r8"">0</Current><DateUtc dt:dt=""string"">2018-10-18T20:57:10Z</DateUtc></FrequencyChange></FrequencyChanges></Clock>\n",KW_Experiment5A-36-1,59.946,1.0.0.105,1,-343524022,Professional,2.0.10.353,2.0.10.353,10/18/2018,10/18/2018 20:57,16:57:10,2.0.10.248,1,1,1,1,,,,,,,,PracticeProc,BlockList,6,2,Distractor1.bmp,1,0,,0,1,192995,600,,0,0,purple,600,3,600,5,horizontal,blue,Distractor1.bmp,purple,Distractor2.bmp,lime,Target2.bmp,red,Distractor1.bmp,yellow,Distractor2.bmp,cyan,Distractor1.bmp,3,1,6,TrialProc,,PracticeTrialList,1,2,-999999,0,193595,0,2,961,194556,Target2.bmp,lime,2,,,,,,
KW_Experiment5A,36,1,"<?xml version=""1.0""?>\n<Clock xmlns:dt=""urn:schemas-microsoft-com:datatypes""><Description dt:dt=""string"">E-Prime Primary Realtime Clock</Description><StartTime><Timestamp dt:dt=""int"">0</Timestamp><DateUtc dt:dt=""string"">2018-10-18T20:57:10Z</DateUtc></StartTime><FrequencyChanges><FrequencyChange><Frequency dt:dt=""r8"">3215292</Frequency><Timestamp dt:dt=""r8"">6171523856253</Timestamp><Current dt:dt=""r8"">0</Current><DateUtc dt:dt=""string"">2018-10-18T20:57:10Z</DateUtc></FrequencyChange></FrequencyChanges></Clock>\n",KW_Experiment5A-36-1,59.946,1.0.0.105,1,-343524022,Professional,2.0.10.353,2.0.10.353,10/18/2018,10/18/2018 20:57,16:57:10,2.0.10.248,2,2,1,2,,,,,,,,TrainingProc,BlockList,1,1,Distractor2.bmp,2,0,,0,32,202804,500,,0,0,blue,500,2,500,3,vertical,lime,Target1.bmp,blue,Distractor2.bmp,yellow,Distractor1.bmp,purple,Distractor1.bmp,red,Distractor2.bmp,cyan,Distractor2.bmp,,,,TrialProc,,TrainingTrialList,1,1,-999999,0,203304,0,1,1052,204356,Target1.bmp,lime,1,,,,1,1,1
KW_Experiment5A,36,1,"<?xml version=""1.0""?>\n<Clock xmlns:dt=""urn:schemas-microsoft-com:datatypes""><Description dt:dt=""string"">E-Prime Primary Realtime Clock</Description><StartTime><Timestamp dt:dt=""int"">0</Timestamp><DateUtc dt:dt=""string"">2018-10-18T20:57:10Z</DateUtc></StartTime><FrequencyChanges><FrequencyChange><Frequency dt:dt=""r8"">3215292</Frequency><Timestamp dt:dt=""r8"">6171523856253</Timestamp><Current dt:dt=""r8"">0</Current><DateUtc dt:dt=""string"">2018-10-18T20:57:10Z</DateUtc></FrequencyChange></FrequencyChanges></Clock>\n",KW_Experiment5A-36-1,59.946,1.0.0.105,1,-343524022,Professional,2.0.10.353,2.0.10.353,10/18/2018,10/18/2018 20:57,16:57:10,2.0.10.248,2,2,1,2,,,,,,,,TrainingProc,BlockList,2,2,Distractor1.bmp,1,0,,0,1,205373,400,,0,0,cyan,400,1,400,4,horizontal,cyan,Distractor1.bmp,blue,Distractor2.bmp,yellow,Distractor1.bmp,lime,Target2.bmp,purple,Distractor1.bmp,red,Distractor1.bmp,,,,TrialProc,,TrainingTrialList,0,2,-999999,0,205773,0,1,1319,207092,Target2.bmp,lime,2,,,,4,1,2
KW_Experiment5A,36,1,"<?xml version=""1.0""?>\n<Clock xmlns:dt=""urn:schemas-microsoft-com:datatypes""><Description dt:dt=""string"">E-Prime Primary Realtime Clock</Description><StartTime><Timestamp dt:dt=""int"">0</Timestamp><DateUtc dt:dt=""string"">2018-10-18T20:57:10Z</DateUtc></StartTime><FrequencyChanges><FrequencyChange><Frequency dt:dt=""r8"">3215292</Frequency><Timestamp dt:dt=""r8"">6171523856253</Timestamp><Current dt:dt=""r8"">0</Current><DateUtc dt:dt=""string"">2018-10-18T20:57:10Z</DateUtc></FrequencyChange></FrequencyChanges></Clock>\n",KW_Experiment5A-36-1,59.946,1.0.0.105,1,-343524022,Professional,2.0.10.353,2.0.10.353,10/18/2018,10/18/2018 20:57,16:57:10,2.0.10.248,2,2,1,2,,,,,,,,TrainingProc,BlockList,3,1,Distractor1.bmp,1,0,,0,1,208108,601,,0,0,blue,600,3,600,,vertical,blue,Distractor2.bmp,yellow,Distractor1.bmp,red,Target1.bmp,lime,Distractor1.bmp,purple,Distractor1.bmp,cyan,Distractor1.bmp,,,,TrialProc,3,TrainingTrialList,1,1,-999999,1,208709,0,1,727,209436,Target1.bmp,red,1,,,,9,1,3
KW_Experiment5A,36,1,"<?xml version=""1.0""?>\n<Clock xmlns:dt=""urn:schemas-microsoft-com:datatypes""><Description dt:dt=""string"">E-Prime Primary Realtime Clock</Description><StartTime><Timestamp dt:dt=""int"">0</Timestamp><DateUtc dt:dt=""string"">2018-10-18T20:57:10Z</DateUtc></StartTime><FrequencyChanges><FrequencyChange><Frequency dt:dt=""r8"">3215292</Frequency><Timestamp dt:dt=""r8"">6171523856253</Timestamp><Current dt:dt=""r8"">0</Current><DateUtc dt:dt=""string"">2018-10-18T20:57:10Z</DateUtc></FrequencyChange></FrequencyChanges></Clock>\n",KW_Experiment5A-36-1,59.946,1.0.0.105,1,-343524022,Professional,2.0.10.353,2.0.10.353,10/18/2018,10/18/2018 20:57,16:57:10,2.0.10.248,2,2,1,2,,,,,,,,TrainingProc,BlockList,4,2,Distractor1.bmp,1,0,,0,1,210461,500,,0,0,yellow,500,2,500,2,horizontal,yellow,Distractor1.bmp,lime,Target2.bmp,cyan,Distractor1.bmp,red,Distractor2.bmp,blue,Distractor1.bmp,purple,Distractor2.bmp,,,,TrialProc,,TrainingTrialList,1,2,-999999,0,210961,0,2,699,211660,Target2.bmp,lime,2,,,,2,1,4
KW_Experiment5A,36,1,"<?xml version=""1.0""?>\n<Clock xmlns:dt=""urn:schemas-microsoft-com:datatypes""><Description dt:dt=""string"">E-Prime Primary Realtime Clock</Description><StartTime><Timestamp dt:dt=""int"">0</Timestamp><DateUtc dt:dt=""string"">2018-10-18T20:57:10Z</DateUtc></StartTime><FrequencyChanges><FrequencyChange><Frequency dt:dt=""r8"">3215292</Frequency><Timestamp dt:dt=""r8"">6171523856253</Timestamp><Current dt:dt=""r8"">0</Current><DateUtc dt:dt=""string"">2018-10-18T20:57:10Z</DateUtc></FrequencyChange></FrequencyChanges></Clock>\n",KW_Experiment5A-36-1,59.946,1.0.0.105,1,-343524022,Professional,2.0.10.353,2.0.10.353,10/18/2018,10/18/2018 20:57,16:57:10,2.0.10.248,2,2,1,2,,,,,,,,TrainingProc,BlockList,5,2,Distractor1.bmp,1,0,,0,1,212679,601,,0,0,blue,600,3,600,,horizontal,blue,Distractor1.bmp,cyan,Distractor1.bmp,purple,Distractor1.bmp,lime,Distractor1.bmp,red,Target2.bmp,yellow,Distractor1.bmp,,,,TrialProc,3,TrainingTrialList,1,2,-999999,1,213280,0,2,940,214220,Target2.bmp,red,2,,,,11,1,5
KW_Experiment5A,36,1,"<?xml version=""1.0""?>\n<Clock xmlns:dt=""urn:schemas-microsoft-com:datatypes""><Description dt:dt=""string"">E-Prime Primary Realtime Clock</Description><StartTime><Timestamp dt:dt=""int"">0</Timestamp><DateUtc dt:dt=""string"">2018-10-18T20:57:10Z</DateUtc></StartTime><FrequencyChanges><FrequencyChange><Frequency dt:dt=""r8"">3215292</Frequency><Timestamp dt:dt=""r8"">6171523856253</Timestamp><Current dt:dt=""r8"">0</Current><DateUtc dt:dt=""string"">2018-10-18T20:57:10Z</DateUtc></FrequencyChange></FrequencyChanges></Clock>\n",KW_Experiment5A-36-1,59.946,1.0.0.105,1,-343524022,Professional,2.0.10.353,2.0.10.353,10/18/2018,10/18/2018 20:57,16:57:10,2.0.10.248,2,2,1,2,,,,,,,,TrainingProc,BlockList,6,1,Distractor2.bmp,2,0,,0,1,215232,400,,0,0,yellow,400,1,400,2,vertical,yellow,Distractor1.bmp,cyan,Distractor1.bmp,lime,Target1.bmp,blue,Distractor2.bmp,purple,Distractor2.bmp,red,Distractor2.bmp,,,,TrialProc,,TrainingTrialList,1,1,-999999,0,215632,0,1,924,216556,Target1.bmp,lime,1,,,,3,1,6
KW_Experiment5A,36,1,"<?xml version=""1.0""?>\n<Clock xmlns:dt=""urn:schemas-microsoft-com:datatypes""><Description dt:dt=""string"">E-Prime Primary Realtime Clock</Description><StartTime><Timestamp dt:dt=""int"">0</Timestamp><DateUtc dt:dt=""string"">2018-10-18T20:57:10Z</DateUtc></StartTime><FrequencyChanges><FrequencyChange><Frequency dt:dt=""r8"">3215292</Frequency><Timestamp dt:dt=""r8"">6171523856253</Timestamp><Current dt:dt=""r8"">0</Current><DateUtc dt:dt=""string"">2018-10-18T20:57:10Z</DateUtc></FrequencyChange></FrequencyChanges></Clock>\n",KW_Experiment5A-36-1,59.946,1.0.0.105,1,-343524022,Professional,2.0.10.353,2.0.10.353,10/18/2018,10/18/2018 20:57,16:57:10,2.0.10.248,2,2,1,2,,,,,,,,TrainingProc,BlockList,7,1,Distractor2.bmp,2,0,,0,1,217567,400,,0,0,red,400,1,400,1,vertical,red,Distractor2.bmp,blue,Distractor2.bmp,yellow,Distractor2.bmp,cyan,Distractor2.bmp,purple,Distractor2.bmp,lime,Target1.bmp,,,,TrialProc,,TrainingTrialList,1,1,-999999,0,217967,0,1,1453,219420,Target1.bmp,lime,1,,,,6,1,7
KW_Experiment5A,36,1,"<?xml version=""1.0""?>\n<Clock xmlns:dt=""urn:schemas-microsoft-com:datatypes""><Description dt:dt=""string"">E-Prime Primary Realtime Clock</Description><StartTime><Timestamp dt:dt=""int"">0</Timestamp><DateUtc dt:dt=""string"">2018-10-18T20:57:10Z</DateUtc></StartTime><FrequencyChanges><FrequencyChange><Frequency dt:dt=""r8"">3215292</Frequency><Timestamp dt:dt=""r8"">6171523856253</Timestamp><Current dt:dt=""r8"">0</Current><DateUtc dt:dt=""string"">2018-10-18T20:57:10Z</DateUtc></FrequencyChange></FrequencyChanges></Clock>\n",KW_Experiment5A-36-1,59.946,1.0.0.105,1,-343524022,Professional,2.0.10.353,2.0.10.353,10/18/2018,10/18/2018 20:57,16:57:10,2.0.10.248,2,2,1,2,,,,,,,,TrainingProc,BlockList,8,2,Distractor1.bmp,1,0,,0,1,220436,601,,0,0,cyan,600,3,600,4,horizontal,cyan,Distractor1.bmp,lime,Target2.bmp,red,Distractor1.bmp,purple,Distractor1.bmp,blue,Distractor2.bmp,yellow,Distractor1.bmp,,,,TrialProc,,TrainingTrialList,1,2,-999999,1,221037,0,2,615,221652,Target2.bmp,lime,2,,,,2,1,8
KW_Experiment5A,36,1,"<?xml version=""1.0""?>\n<Clock xmlns:dt=""urn:schemas-microsoft-com:datatypes""><Description dt:dt=""string"">E-Prime Primary Realtime Clock</Description><StartTime><Timestamp dt:dt=""int"">0</Timestamp><DateUtc dt:dt=""string"">2018-10-18T20:57:10Z</DateUtc></StartTime><FrequencyChanges><FrequencyChange><Frequency dt:dt=""r8"">3215292</Frequency><Timestamp dt:dt=""r8"">6171523856253</Timestamp><Current dt:dt=""r8"">0</Current><DateUtc dt:dt=""string"">2018-10-18T20:57:10Z</DateUtc></FrequencyChange></FrequencyChanges></Clock>\n",KW_Experiment5A-36-1,59.946,1.0.0.105,1,-343524022,Professional,2.0.10.353,2.0.10.353,10/18/2018,10/18/2018 20:57,16:57:10,2.0.10.248,2,2,1,2,,,,,,,,TrainingProc,BlockList,9,1,Distractor1.bmp,1,0,,0,1,222672,500,,0,0,blue,500,2,500,3,vertical,blue,Distractor1.bmp,yellow,Distractor1.bmp,purple,Distractor2.bmp,red,Distractor2.bmp,cyan,Distractor2.bmp,lime,Target1.bmp,,,,TrialProc,,TrainingTrialList,1,1,-999999,0,223172,0,1,712,223884,Target1.bmp,lime,1,,,,6,1,9
KW_Experiment5A,36,1,"<?xml version=""1.0""?>\n<Clock xmlns:dt=""urn:schemas-microsoft-com:datatypes""><Description dt:dt=""string"">E-Prime Primary Realtime Clock</Description><StartTime><Timestamp dt:dt=""int"">0</Timestamp><DateUtc dt:dt=""string"">2018-10-18T20:57:10Z</DateUtc></StartTime><FrequencyChanges><FrequencyChange><Frequency dt:dt=""r8"">3215292</Frequency><Timestamp dt:dt=""r8"">6171523856253</Timestamp><Current dt:dt=""r8"">0</Current><DateUtc dt:dt=""string"">2018-10-18T20:57:10Z</DateUtc></FrequencyChange></FrequencyChanges></Clock>\n",KW_Experiment5A-36-1,59.946,1.0.0.105,1,-343524022,Professional,2.0.10.353,2.0.10.353,10/18/2018,10/18/2018 20:57,16:57:10,2.0.10.248,2,2,1,2,,,,,,,,TrainingProc,BlockList,10,1,Distractor1.bmp,1,0,,0,1,224907,601,,0,0,cyan,600,3,600,,vertical,cyan,Distractor1.bmp,yellow,Distractor1.bmp,purple,Distractor1.bmp,red,Target1.bmp,lime,Distractor1.bmp,blue,Distractor1.bmp,,,,TrialProc,4,TrainingTrialList,1,1,-999999,1,225508,0,1,592,226100,Target1.bmp,red,1,,,,10,1,10
KW_Experiment5A,36,1,"<?xml version=""1.0""?>\n<Clock xmlns:dt=""urn:schemas-microsoft-com:datatypes""><Description dt:dt=""string"">E-Prime Primary Realtime Clock</Description><StartTime><Timestamp dt:dt=""int"">0</Timestamp><DateUtc dt:dt=""string"">2018-10-18T20:57:10Z</DateUtc></StartTime><FrequencyChanges><FrequencyChange><Frequency dt:dt=""r8"">3215292</Frequency><Timestamp dt:dt=""r8"">6171523856253</Timestamp><Current dt:dt=""r8"">0</Current><DateUtc dt:dt=""string"">2018-10-18T20:57:10Z</DateUtc></FrequencyChange></FrequencyChanges></Clock>\n",KW_Experiment5A-36-1,59.946,1.0.0.105,1,-343524022,Professional,2.0.10.353,2.0.10.353,10/18/2018,10/18/2018 20:57,16:57:10,2.0.10.248,2,2,1,2,,,,,,,,TrainingProc,BlockList,11,2,Distractor1.bmp,1,0,,0,1,227126,600,,0,0,cyan,600,3,600,4,horizontal,lime,Target2.bmp,cyan,Distractor1.bmp,red,Distractor1.bmp,yellow,Distractor2.bmp,blue,Distractor1.bmp,purple,Distractor1.bmp,,,,TrialProc,,TrainingTrialList,1,2,-999999,0,227726,0,2,710,228436,Target2.bmp,lime,2,,,,1,1,11
KW_Experiment5A,36,1,"<?xml version=""1.0""?>\n<Clock xmlns:dt=""urn:schemas-microsoft-com:datatypes""><Description dt:dt=""string"">E-Prime Primary Realtime Clock</Description><StartTime><Timestamp dt:dt=""int"">0</Timestamp><DateUtc dt:dt=""string"">2018-10-18T20:57:10Z</DateUtc></StartTime><FrequencyChanges><FrequencyChange><Frequency dt:dt=""r8"">3215292</Frequency><Timestamp dt:dt=""r8"">6171523856253</Timestamp><Current dt:dt=""r8"">0</Current><DateUtc dt:dt=""string"">2018-10-18T20:57:10Z</DateUtc></FrequencyChange></FrequencyChanges></Clock>\n",KW_Experiment5A-36-1,59.946,1.0.0.105,1,-343524022,Professional,2.0.10.353,2.0.10.353,10/18/2018,10/18/2018 20:57,16:57:10,2.0.10.248,2,2,1,2,,,,,,,,TrainingProc,BlockList,12,1,Distractor1.bmp,1,0,,0,1,229461,601,,0,0,purple,600,3,600,,vertical,purple,Distractor1.bmp,blue,Distractor1.bmp,cyan,Distractor1.bmp,lime,Distractor2.bmp,yellow,Distractor1.bmp,red,Target1.bmp,,,,TrialProc,5,TrainingTrialList,1,1,-999999,1,230062,0,1,662,230724,Target1.bmp,red,1,,,,12,1,12
KW_Experiment5A,36,1,"<?xml version=""1.0""?>\n<Clock xmlns:dt=""urn:schemas-microsoft-com:datatypes""><Description dt:dt=""string"">E-Prime Primary Realtime Clock</Description><StartTime><Timestamp dt:dt=""int"">0</Timestamp><DateUtc dt:dt=""string"">2018-10-18T20:57:10Z</DateUtc></StartTime><FrequencyChanges><FrequencyChange><Frequency dt:dt=""r8"">3215292</Frequency><Timestamp dt:dt=""r8"">6171523856253</Timestamp><Current dt:dt=""r8"">0</Current><DateUtc dt:dt=""string"">2018-10-18T20:57:10Z</DateUtc></FrequencyChange></FrequencyChanges></Clock>\n",KW_Experiment5A-36-1,59.946,1.0.0.105,1,-343524022,Professional,2.0.10.353,2.0.10.353,10/18/2018,10/18/2018 20:57,16:57:10,2.0.10.248,2,2,1,2,,,,,,,,TrainingProc,BlockList,13,2,Distractor1.bmp,1,0,,0,1,231747,500,,0,0,blue,500,2,500,3,horizontal,blue,Distractor2.bmp,lime,Target2.bmp,cyan,Distractor1.bmp,yellow,Distractor1.bmp,purple,Distractor1.bmp,red,Distractor1.bmp,,,,TrialProc,,TrainingTrialList,1,2,-999999,0,232247,0,2,805,233052,Target2.bmp,lime,2,,,,2,1,13
KW_Experiment5A,36,1,"<?xml version=""1.0""?>\n<Clock xmlns:dt=""urn:schemas-microsoft-com:datatypes""><Description dt:dt=""string"">E-Prime Primary Realtime Clock</Description><StartTime><Timestamp dt:dt=""int"">0</Timestamp><DateUtc dt:dt=""string"">2018-10-18T20:57:10Z</DateUtc></StartTime><FrequencyChanges><FrequencyChange><Frequency dt:dt=""r8"">3215292</Frequency><Timestamp dt:dt=""r8"">6171523856253</Timestamp><Current dt:dt=""r8"">0</Current><DateUtc dt:dt=""string"">2018-10-18T20:57:10Z</DateUtc></FrequencyChange></FrequencyChanges></Clock>\n",KW_Experiment5A-36-1,59.946,1.0.0.105,1,-343524022,Professional,2.0.10.353,2.0.10.353,10/18/2018,10/18/2018 20:57,16:57:10,2.0.10.248,2,2,1,2,,,,,,,,TrainingProc,BlockList,14,1,Distractor2.bmp,2,0,,0,1,234065,601,,0,0,blue,600,3,600,3,vertical,blue,Distractor2.bmp,purple,Distractor1.bmp,red,Distractor2.bmp,yellow,Distractor2.bmp,lime,Target1.bmp,cyan,Distractor2.bmp,,,,TrialProc,,TrainingTrialList,1,1,-999999,1,234666,0,1,497,235163,Target1.bmp,lime,1,,,,5,1,14
KW_Experiment5A,36,1,"<?xml version=""1.0""?>\n<Clock xmlns:dt=""urn:schemas-microsoft-com:datatypes""><Description dt:dt=""string"">E-Prime Primary Realtime Clock</Description><StartTime><Timestamp dt:dt=""int"">0</Timestamp><DateUtc dt:dt=""string"">2018-10-18T20:57:10Z</DateUtc></StartTime><FrequencyChanges><FrequencyChange><Frequency dt:dt=""r8"">3215292</Frequency><Timestamp dt:dt=""r8"">6171523856253</Timestamp><Current dt:dt=""r8"">0</Current><DateUtc dt:dt=""string"">2018-10-18T20:57:10Z</DateUtc></FrequencyChange></FrequencyChanges></Clock>\n",KW_Experiment5A-36-1,59.946,1.0.0.105,1,-343524022,Professional,2.0.10.353,2.0.10.353,10/18/2018,10/18/2018 20:57,16:57:10,2.0.10.248,2,2,1,2,,,,,,,,TrainingProc,BlockList,15,2,Distractor1.bmp,1,0,,0,1,236184,500,,0,0,yellow,500,2,500,2,horizontal,yellow,Distractor1.bmp,red,Distractor2.bmp,lime,Target2.bmp,cyan,Distractor1.bmp,purple,Distractor1.bmp,blue,Distractor1.bmp,,,,TrialProc,,TrainingTrialList,1,2,-999999,0,236684,0,2,703,237387,Target2.bmp,lime,2,,,,3,1,15
KW_Experiment5A,36,1,"<?xml version=""1.0""?>\n<Clock xmlns:dt=""urn:schemas-microsoft-com:datatypes""><Description dt:dt=""string"">E-Prime Primary Realtime Clock</Description><StartTime><Timestamp dt:dt=""int"">0</Timestamp><DateUtc dt:dt=""string"">2018-10-18T20:57:10Z</DateUtc></StartTime><FrequencyChanges><FrequencyChange><Frequency dt:dt=""r8"">3215292</Frequency><Timestamp dt:dt=""r8"">6171523856253</Timestamp><Current dt:dt=""r8"">0</Current><DateUtc dt:dt=""string"">2018-10-18T20:57:10Z</DateUtc></FrequencyChange></FrequencyChanges></Clock>\n",KW_Experiment5A-36-1,59.946,1.0.0.105,1,-343524022,Professional,2.0.10.353,2.0.10.353,10/18/2018,10/18/2018 20:57,16:57:10,2.0.10.248,2,2,1,2,,,,,,,,TrainingProc,BlockList,16,1,Distractor2.bmp,2,0,,0,1,238403,400,,0,0,red,400,1,400,1,vertical,lime,Target1.bmp,red,Distractor2.bmp,purple,Distractor1.bmp,yellow,Distractor1.bmp,blue,Distractor2.bmp,cyan,Distractor1.bmp,,,,TrialProc,,TrainingTrialList,1,1,-999999,0,238803,0,1,424,239227,Target1.bmp,lime,1,,,,1,1,16
KW_Experiment5A,36,1,"<?xml version=""1.0""?>\n<Clock xmlns:dt=""urn:schemas-microsoft-com:datatypes""><Description dt:dt=""string"">E-Prime Primary Realtime Clock</Description><StartTime><Timestamp dt:dt=""int"">0</Timestamp><DateUtc dt:dt=""string"">2018-10-18T20:57:10Z</DateUtc></StartTime><FrequencyChanges><FrequencyChange><Frequency dt:dt=""r8"">3215292</Frequency><Timestamp dt:dt=""r8"">6171523856253</Timestamp><Current dt:dt=""r8"">0</Current><DateUtc dt:dt=""string"">2018-10-18T20:57:10Z</DateUtc></FrequencyChange></FrequencyChanges></Clock>\n",KW_Experiment5A-36-1,59.946,1.0.0.105,1,-343524022,Professional,2.0.10.353,2.0.10.353,10/18/2018,10/18/2018 20:57,16:57:10,2.0.10.248,2,2,1,2,,,,,,,,TrainingProc,BlockList,17,2,Distractor2.bmp,2,0,,0,1,240238,600,,0,0,purple,600,3,600,5,horizontal,purple,Distractor2.bmp,yellow,Distractor1.bmp,lime,Target2.bmp,blue,Distractor2.bmp,red,Distractor2.bmp,cyan,Distractor2.bmp,,,,TrialProc,,TrainingTrialList,1,2,-999999,0,240838,0,2,733,241571,Target2.bmp,lime,2,,,,3,1,17
KW_Experiment5A,36,1,"<?xml version=""1.0""?>\n<Clock xmlns:dt=""urn:schemas-microsoft-com:datatypes""><Description dt:dt=""string"">E-Prime Primary Realtime Clock</Description><StartTime><Timestamp dt:dt=""int"">0</Timestamp><DateUtc dt:dt=""string"">2018-10-18T20:57:10Z</DateUtc></StartTime><FrequencyChanges><FrequencyChange><Frequency dt:dt=""r8"">3215292</Frequency><Timestamp dt:dt=""r8"">6171523856253</Timestamp><Current dt:dt=""r8"">0</Current><DateUtc dt:dt=""string"">2018-10-18T20:57:10Z</DateUtc></FrequencyChange></FrequencyChanges></Clock>\n",KW_Experiment5A-36-1,59.946,1.0.0.105,1,-343524022,Professional,2.0.10.353,2.0.10.353,10/18/2018,10/18/2018 20:57,16:57:10,2.0.10.248,2,2,1,2,,,,,,,,TrainingProc,BlockList,18,1,Distractor1.bmp,1,0,,0,1,242590,500,,0,0,purple,500,2,500,,vertical,red,Target1.bmp,blue,Distractor1.bmp,lime,Distractor1.bmp,cyan,Distractor2.bmp,yellow,Distractor2.bmp,purple,Distractor2.bmp,,,,TrialProc,5,TrainingTrialList,1,1,-999999,0,243090,0,1,689,243779,Target1.bmp,red,1,,,,7,1,18
KW_Experiment5A,36,1,"<?xml version=""1.0""?>\n<Clock xmlns:dt=""urn:schemas-microsoft-com:datatypes""><Description dt:dt=""string"">E-Prime Primary Realtime Clock</Description><StartTime><Timestamp dt:dt=""int"">0</Timestamp><DateUtc dt:dt=""string"">2018-10-18T20:57:10Z</DateUtc></StartTime><FrequencyChanges><FrequencyChange><Frequency dt:dt=""r8"">3215292</Frequency><Timestamp dt:dt=""r8"">6171523856253</Timestamp><Current dt:dt=""r8"">0</Current><DateUtc dt:dt=""string"">2018-10-18T20:57:10Z</DateUtc></FrequencyChange></FrequencyChanges></Clock>\n",KW_Experiment5A-36-1,59.946,1.0.0.105,1,-343524022,Professional,2.0.10.353,2.0.10.353,10/18/2018,10/18/2018 20:57,16:57:10,2.0.10.248,2,2,1,2,,,,,,,,TrainingProc,BlockList,19,1,Distractor1.bmp,1,0,,0,1,244792,600,,0,0,purple,600,3,600,5,vertical,purple,Distractor1.bmp,cyan,Distractor2.bmp,blue,Distractor2.bmp,yellow,Distractor2.bmp,red,Distractor2.bmp,lime,Target1.bmp,,,,TrialProc,,TrainingTrialList,1,1,-999999,0,245392,0,1,707,246099,Target1.bmp,lime,1,,,,6,1,19
KW_Experiment5A,36,1,"<?xml version=""1.0""?>\n<Clock xmlns:dt=""urn:schemas-microsoft-com:datatypes""><Description dt:dt=""string"">E-Prime Primary Realtime Clock</Description><StartTime><Timestamp dt:dt=""int"">0</Timestamp><DateUtc dt:dt=""string"">2018-10-18T20:57:10Z</DateUtc></StartTime><FrequencyChanges><FrequencyChange><Frequency dt:dt=""r8"">3215292</Frequency><Timestamp dt:dt=""r8"">6171523856253</Timestamp><Current dt:dt=""r8"">0</Current><DateUtc dt:dt=""string"">2018-10-18T20:57:10Z</DateUtc></FrequencyChange></FrequencyChanges></Clock>\n",KW_Experiment5A-36-1,59.946,1.0.0.105,1,-343524022,Professional,2.0.10.353,2.0.10.353,10/18/2018,10/18/2018 20:57,16:57:10,2.0.10.248,2,2,1,2,,,,,,,,TrainingProc,BlockList,20,1,Distractor2.bmp,2,0,,0,1,247127,401,,0,0,cyan,400,1,400,4,vertical,cyan,Distractor2.bmp,blue,Distractor1.bmp,yellow,Distractor2.bmp,purple,Distractor1.bmp,lime,Target1.bmp,red,Distractor2.bmp,,,,TrialProc,,TrainingTrialList,1,1,-999999,1,247528,0,1,675,248203,Target1.bmp,lime,1,,,,5,1,20
KW_Experiment5A,36,1,"<?xml version=""1.0""?>\n<Clock xmlns:dt=""urn:schemas-microsoft-com:datatypes""><Description dt:dt=""string"">E-Prime Primary Realtime Clock</Description><StartTime><Timestamp dt:dt=""int"">0</Timestamp><DateUtc dt:dt=""string"">2018-10-18T20:57:10Z</DateUtc></StartTime><FrequencyChanges><FrequencyChange><Frequency dt:dt=""r8"">3215292</Frequency><Timestamp dt:dt=""r8"">6171523856253</Timestamp><Current dt:dt=""r8"">0</Current><DateUtc dt:dt=""string"">2018-10-18T20:57:10Z</DateUtc></FrequencyChange></FrequencyChanges></Clock>\n",KW_Experiment5A-36-1,59.946,1.0.0.105,1,-343524022,Professional,2.0.10.353,2.0.10.353,10/18/2018,10/18/2018 20:57,16:57:10,2.0.10.248,2,2,1,2,,,,,,,,TrainingProc,BlockList,21,1,Distractor2.bmp,2,0,,0,1,249212,401,,0,0,yellow,400,1,400,2,vertical,yellow,Distractor2.bmp,cyan,Distractor2.bmp,blue,Distractor2.bmp,lime,Target1.bmp,red,Distractor2.bmp,purple,Distractor2.bmp,,,,TrialProc,,TrainingTrialList,1,1,-999999,1,249613,0,1,566,250179,Target1.bmp,lime,1,,,,4,1,21
KW_Experiment5A,36,1,"<?xml version=""1.0""?>\n<Clock xmlns:dt=""urn:schemas-microsoft-com:datatypes""><Description dt:dt=""string"">E-Prime Primary Realtime Clock</Description><StartTime><Timestamp dt:dt=""int"">0</Timestamp><DateUtc dt:dt=""string"">2018-10-18T20:57:10Z</DateUtc></StartTime><FrequencyChanges><FrequencyChange><Frequency dt:dt=""r8"">3215292</Frequency><Timestamp dt:dt=""r8"">6171523856253</Timestamp><Current dt:dt=""r8"">0</Current><DateUtc dt:dt=""string"">2018-10-18T20:57:10Z</DateUtc></FrequencyChange></FrequencyChanges></Clock>\n",KW_Experiment5A-36-1,59.946,1.0.0.105,1,-343524022,Professional,2.0.10.353,2.0.10.353,10/18/2018,10/18/2018 20:57,16:57:10,2.0.10.248,2,2,1,2,,,,,,,,TrainingProc,BlockList,22,2,Distractor1.bmp,1,0,,0,1,251198,400,,0,0,blue,400,1,400,3,horizontal,blue,Distractor1.bmp,cyan,Distractor2.bmp,purple,Distractor1.bmp,yellow,Distractor2.bmp,lime,Target2.bmp,red,Distractor1.bmp,,,,TrialProc,,TrainingTrialList,1,2,-999999,0,251598,0,2,821,252419,Target2.bmp,lime,2,,,,5,1,22
KW_Experiment5A,36,1,"<?xml version=""1.0""?>\n<Clock xmlns:dt=""urn:schemas-microsoft-com:datatypes""><Description dt:dt=""string"">E-Prime Primary Realtime Clock</Description><StartTime><Timestamp dt:dt=""int"">0</Timestamp><DateUtc dt:dt=""string"">2018-10-18T20:57:10Z</DateUtc></StartTime><FrequencyChanges><FrequencyChange><Frequency dt:dt=""r8"">3215292</Frequency><Timestamp dt:dt=""r8"">6171523856253</Timestamp><Current dt:dt=""r8"">0</Current><DateUtc dt:dt=""string"">2018-10-18T20:57:10Z</DateUtc></FrequencyChange></FrequencyChanges></Clock>\n",KW_Experiment5A-36-1,59.946,1.0.0.105,1,-343524022,Professional,2.0.10.353,2.0.10.353,10/18/2018,10/18/2018 20:57,16:57:10,2.0.10.248,2,2,1,2,,,,,,,,TrainingProc,BlockList,23,1,Distractor2.bmp,2,0,,0,1,253433,400,,0,0,blue,400,1,400,,vertical,blue,Distractor1.bmp,red,Target1.bmp,purple,Distractor2.bmp,yellow,Distractor2.bmp,cyan,Distractor1.bmp,lime,Distractor2.bmp,,,,TrialProc,3,TrainingTrialList,1,1,-999999,0,253833,0,1,626,254459,Target1.bmp,red,1,,,,8,1,23
KW_Experiment5A,36,1,"<?xml version=""1.0""?>\n<Clock xmlns:dt=""urn:schemas-microsoft-com:datatypes""><Description dt:dt=""string"">E-Prime Primary Realtime Clock</Description><StartTime><Timestamp dt:dt=""int"">0</Timestamp><DateUtc dt:dt=""string"">2018-10-18T20:57:10Z</DateUtc></StartTime><FrequencyChanges><FrequencyChange><Frequency dt:dt=""r8"">3215292</Frequency><Timestamp dt:dt=""r8"">6171523856253</Timestamp><Current dt:dt=""r8"">0</Current><DateUtc dt:dt=""string"">2018-10-18T20:57:10Z</DateUtc></FrequencyChange></FrequencyChanges></Clock>\n",KW_Experiment5A-36-1,59.946,1.0.0.105,1,-343524022,Professional,2.0.10.353,2.0.10.353,10/18/2018,10/18/2018 20:57,16:57:10,2.0.10.248,2,2,1,2,,,,,,,,TrainingProc,BlockList,24,1,Distractor1.bmp,1,0,,0,1,255485,500,,0,0,yellow,500,2,500,2,vertical,yellow,Distractor2.bmp,blue,Distractor2.bmp,red,Distractor1.bmp,lime,Target1.bmp,purple,Distractor1.bmp,cyan,Distractor2.bmp,,,,TrialProc,,TrainingTrialList,1,1,-999999,0,255985,0,1,490,256475,Target1.bmp,lime,1,,,,4,1,24
KW_Experiment5A,36,1,"<?xml version=""1.0""?>\n<Clock xmlns:dt=""urn:schemas-microsoft-com:datatypes""><Description dt:dt=""string"">E-Prime Primary Realtime Clock</Description><StartTime><Timestamp dt:dt=""int"">0</Timestamp><DateUtc dt:dt=""string"">2018-10-18T20:57:10Z</DateUtc></StartTime><FrequencyChanges><FrequencyChange><Frequency dt:dt=""r8"">3215292</Frequency><Timestamp dt:dt=""r8"">6171523856253</Timestamp><Current dt:dt=""r8"">0</Current><DateUtc dt:dt=""string"">2018-10-18T20:57:10Z</DateUtc></FrequencyChange></FrequencyChanges></Clock>\n",KW_Experiment5A-36-1,59.946,1.0.0.105,1,-343524022,Professional,2.0.10.353,2.0.10.353,10/18/2018,10/18/2018 20:57,16:57:10,2.0.10.248,2,2,1,2,,,,,,,,TrainingProc,BlockList,25,1,Distractor2.bmp,2,0,,0,1,257487,500,,0,0,lime,500,2,500,,vertical,lime,Distractor1.bmp,blue,Distractor1.bmp,yellow,Distractor2.bmp,red,Target1.bmp,cyan,Distractor2.bmp,purple,Distractor2.bmp,,,,TrialProc,6,TrainingTrialList,1,1,-999999,0,257987,0,1,480,258467,Target1.bmp,red,1,,,,10,2,25
KW_Experiment5A,36,1,"<?xml version=""1.0""?>\n<Clock xmlns:dt=""urn:schemas-microsoft-com:datatypes""><Description dt:dt=""string"">E-Prime Primary Realtime Clock</Description><StartTime><Timestamp dt:dt=""int"">0</Timestamp><DateUtc dt:dt=""string"">2018-10-18T20:57:10Z</DateUtc></StartTime><FrequencyChanges><FrequencyChange><Frequency dt:dt=""r8"">3215292</Frequency><Timestamp dt:dt=""r8"">6171523856253</Timestamp><Current dt:dt=""r8"">0</Current><DateUtc dt:dt=""string"">2018-10-18T20:57:10Z</DateUtc></FrequencyChange></FrequencyChanges></Clock>\n",KW_Experiment5A-36-1,59.946,1.0.0.105,1,-343524022,Professional,2.0.10.353,2.0.10.353,10/18/2018,10/18/2018 20:57,16:57:10,2.0.10.248,2,2,1,2,,,,,,,,TrainingProc,BlockList,26,1,Distractor2.bmp,2,0,,0,1,259488,401,,0,0,cyan,400,1,400,4,vertical,cyan,Distractor1.bmp,purple,Distractor1.bmp,red,Distractor1.bmp,lime,Target1.bmp,blue,Distractor2.bmp,yellow,Distractor1.bmp,,,,TrialProc,,TrainingTrialList,1,1,-999999,1,259889,0,1,642,260531,Target1.bmp,lime,1,,,,4,2,26
KW_Experiment5A,36,1,"<?xml version=""1.0""?>\n<Clock xmlns:dt=""urn:schemas-microsoft-com:datatypes""><Description dt:dt=""string"">E-Prime Primary Realtime Clock</Description><StartTime><Timestamp dt:dt=""int"">0</Timestamp><DateUtc dt:dt=""string"">2018-10-18T20:57:10Z</DateUtc></StartTime><FrequencyChanges><FrequencyChange><Frequency dt:dt=""r8"">3215292</Frequency><Timestamp dt:dt=""r8"">6171523856253</Timestamp><Current dt:dt=""r8"">0</Current><DateUtc dt:dt=""string"">2018-10-18T20:57:10Z</DateUtc></FrequencyChange></FrequencyChanges></Clock>\n",KW_Experiment5A-36-1,59.946,1.0.0.105,1,-343524022,Professional,2.0.10.353,2.0.10.353,10/18/2018,10/18/2018 20:57,16:57:10,2.0.10.248,2,2,1,2,,,,,,,,TrainingProc,BlockList,27,2,Distractor1.bmp,1,0,,0,1,261540,601,,0,0,yellow,600,3,600,,horizontal,yellow,Distractor1.bmp,blue,Distractor2.bmp,lime,Distractor2.bmp,purple,Distractor1.bmp,red,Target2.bmp,cyan,Distractor1.bmp,,,,TrialProc,2,TrainingTrialList,1,2,-999999,1,262141,0,2,630,262771,Target2.bmp,red,2,,,,11,2,27
KW_Experiment5A,36,1,"<?xml version=""1.0""?>\n<Clock xmlns:dt=""urn:schemas-microsoft-com:datatypes""><Description dt:dt=""string"">E-Prime Primary Realtime Clock</Description><StartTime><Timestamp dt:dt=""int"">0</Timestamp><DateUtc dt:dt=""string"">2018-10-18T20:57:10Z</DateUtc></StartTime><FrequencyChanges><FrequencyChange><Frequency dt:dt=""r8"">3215292</Frequency><Timestamp dt:dt=""r8"">6171523856253</Timestamp><Current dt:dt=""r8"">0</Current><DateUtc dt:dt=""string"">2018-10-18T20:57:10Z</DateUtc></FrequencyChange></FrequencyChanges></Clock>\n",KW_Experiment5A-36-1,59.946,1.0.0.105,1,-343524022,Professional,2.0.10.353,2.0.10.353,10/18/2018,10/18/2018 20:57,16:57:10,2.0.10.248,2,2,1,2,,,,,,,,TrainingProc,BlockList,28,1,Distractor1.bmp,1,0,,0,1,263792,501,,0,0,red,500,2,500,1,vertical,red,Distractor2.bmp,cyan,Distractor1.bmp,lime,Target1.bmp,yellow,Distractor1.bmp,blue,Distractor2.bmp,purple,Distractor2.bmp,,,,TrialProc,,TrainingTrialList,1,1,-999999,1,264293,0,1,774,265067,Target1.bmp,lime,1,,,,3,2,28
KW_Experiment5A,36,1,"<?xml version=""1.0""?>\n<Clock xmlns:dt=""urn:schemas-microsoft-com:datatypes""><Description dt:dt=""string"">E-Prime Primary Realtime Clock</Description><StartTime><Timestamp dt:dt=""int"">0</Timestamp><DateUtc dt:dt=""string"">2018-10-18T20:57:10Z</DateUtc></StartTime><FrequencyChanges><FrequencyChange><Frequency dt:dt=""r8"">3215292</Frequency><Timestamp dt:dt=""r8"">6171523856253</Timestamp><Current dt:dt=""r8"">0</Current><DateUtc dt:dt=""string"">2018-10-18T20:57:10Z</DateUtc></FrequencyChange></FrequencyChanges></Clock>\n",KW_Experiment5A-36-1,59.946,1.0.0.105,1,-343524022,Professional,2.0.10.353,2.0.10.353,10/18/2018,10/18/2018 20:57,16:57:10,2.0.10.248,2,2,1,2,,,,,,,,TrainingProc,BlockList,29,1,Distractor2.bmp,2,0,,0,1,266078,600,,0,0,cyan,600,3,600,4,vertical,cyan,Distractor2.bmp,red,Distractor1.bmp,yellow,Distractor2.bmp,blue,Distractor2.bmp,lime,Target1.bmp,purple,Distractor2.bmp,,,,TrialProc,,TrainingTrialList,1,1,-999999,0,266678,0,1,501,267179,Target1.bmp,lime,1,,,,5,2,29
KW_Experiment5A,36,1,"<?xml version=""1.0""?>\n<Clock xmlns:dt=""urn:schemas-microsoft-com:datatypes""><Description dt:dt=""string"">E-Prime Primary Realtime Clock</Description><StartTime><Timestamp dt:dt=""int"">0</Timestamp><DateUtc dt:dt=""string"">2018-10-18T20:57:10Z</DateUtc></StartTime><FrequencyChanges><FrequencyChange><Frequency dt:dt=""r8"">3215292</Frequency><Timestamp dt:dt=""r8"">6171523856253</Timestamp><Current dt:dt=""r8"">0</Current><DateUtc dt:dt=""string"">2018-10-18T20:57:10Z</DateUtc></FrequencyChange></FrequencyChanges></Clock>\n",KW_Experiment5A-36-1,59.946,1.0.0.105,1,-343524022,Professional,2.0.10.353,2.0.10.353,10/18/2018,10/18/2018 20:57,16:57:10,2.0.10.248,2,2,1,2,,,,,,,,TrainingProc,BlockList,30,1,Distractor2.bmp,2,0,,0,1,268196,401,,0,0,blue,400,1,400,3,vertical,blue,Distractor2.bmp,lime,Target1.bmp,red,Distractor2.bmp,yellow,Distractor1.bmp,cyan,Distractor2.bmp,purple,Distractor1.bmp,,,,TrialProc,,TrainingTrialList,1,1,-999999,1,268597,0,1,438,269035,Target1.bmp,lime,1,,,,2,2,30
KW_Experiment5A,36,1,"<?xml version=""1.0""?>\n<Clock xmlns:dt=""urn:schemas-microsoft-com:datatypes""><Description dt:dt=""string"">E-Prime Primary Realtime Clock</Description><StartTime><Timestamp dt:dt=""int"">0</Timestamp><DateUtc dt:dt=""string"">2018-10-18T20:57:10Z</DateUtc></StartTime><FrequencyChanges><FrequencyChange><Frequency dt:dt=""r8"">3215292</Frequency><Timestamp dt:dt=""r8"">6171523856253</Timestamp><Current dt:dt=""r8"">0</Current><DateUtc dt:dt=""string"">2018-10-18T20:57:10Z</DateUtc></FrequencyChange></FrequencyChanges></Clock>\n",KW_Experiment5A-36-1,59.946,1.0.0.105,1,-343524022,Professional,2.0.10.353,2.0.10.353,10/18/2018,10/18/2018 20:57,16:57:10,2.0.10.248,2,2,1,2,,,,,,,,TrainingProc,BlockList,31,2,Distractor1.bmp,1,0,,0,1,270048,601,,0,0,red,600,3,600,1,horizontal,lime,Target2.bmp,red,Distractor1.bmp,blue,Distractor1.bmp,cyan,Distractor1.bmp,yellow,Distractor2.bmp,purple,Distractor2.bmp,,,,TrialProc,,TrainingTrialList,0,2,-999999,1,270649,0,1,426,271075,Target2.bmp,lime,2,,,,1,2,31
KW_Experiment5A,36,1,"<?xml version=""1.0""?>\n<Clock xmlns:dt=""urn:schemas-microsoft-com:datatypes""><Description dt:dt=""string"">E-Prime Primary Realtime Clock</Description><StartTime><Timestamp dt:dt=""int"">0</Timestamp><DateUtc dt:dt=""string"">2018-10-18T20:57:10Z</DateUtc></StartTime><FrequencyChanges><FrequencyChange><Frequency dt:dt=""r8"">3215292</Frequency><Timestamp dt:dt=""r8"">6171523856253</Timestamp><Current dt:dt=""r8"">0</Current><DateUtc dt:dt=""string"">2018-10-18T20:57:10Z</DateUtc></FrequencyChange></FrequencyChanges></Clock>\n",KW_Experiment5A-36-1,59.946,1.0.0.105,1,-343524022,Professional,2.0.10.353,2.0.10.353,10/18/2018,10/18/2018 20:57,16:57:10,2.0.10.248,2,2,1,2,,,,,,,,TrainingProc,BlockList,32,1,Distractor2.bmp,2,0,,0,1,272100,400,,0,0,cyan,400,1,400,4,vertical,cyan,Distractor2.bmp,blue,Distractor2.bmp,yellow,Distractor1.bmp,red,Distractor2.bmp,lime,Target1.bmp,purple,Distractor2.bmp,,,,TrialProc,,TrainingTrialList,1,1,-999999,0,272500,0,1,495,272995,Target1.bmp,lime,1,,,,5,2,32
KW_Experiment5A,36,1,"<?xml version=""1.0""?>\n<Clock xmlns:dt=""urn:schemas-microsoft-com:datatypes""><Description dt:dt=""string"">E-Prime Primary Realtime Clock</Description><StartTime><Timestamp dt:dt=""int"">0</Timestamp><DateUtc dt:dt=""string"">2018-10-18T20:57:10Z</DateUtc></StartTime><FrequencyChanges><FrequencyChange><Frequency dt:dt=""r8"">3215292</Frequency><Timestamp dt:dt=""r8"">6171523856253</Timestamp><Current dt:dt=""r8"">0</Current><DateUtc dt:dt=""string"">2018-10-18T20:57:10Z</DateUtc></FrequencyChange></FrequencyChanges></Clock>\n",KW_Experiment5A-36-1,59.946,1.0.0.105,1,-343524022,Professional,2.0.10.353,2.0.10.353,10/18/2018,10/18/2018 20:57,16:57:10,2.0.10.248,2,2,1,2,,,,,,,,TrainingProc,BlockList,33,2,Distractor1.bmp,1,0,,0,1,274018,501,,0,0,red,500,2,500,1,horizontal,red,Distractor1.bmp,yellow,Distractor2.bmp,lime,Target2.bmp,blue,Distractor1.bmp,cyan,Distractor1.bmp,purple,Distractor2.bmp,,,,TrialProc,,TrainingTrialList,1,2,-999999,1,274519,0,2,523,275042,Target2.bmp,lime,2,,,,3,2,33
KW_Experiment5A,36,1,"<?xml version=""1.0""?>\n<Clock xmlns:dt=""urn:schemas-microsoft-com:datatypes""><Description dt:dt=""string"">E-Prime Primary Realtime Clock</Description><StartTime><Timestamp dt:dt=""int"">0</Timestamp><DateUtc dt:dt=""string"">2018-10-18T20:57:10Z</DateUtc></StartTime><FrequencyChanges><FrequencyChange><Frequency dt:dt=""r8"">3215292</Frequency><Timestamp dt:dt=""r8"">6171523856253</Timestamp><Current dt:dt=""r8"">0</Current><DateUtc dt:dt=""string"">2018-10-18T20:57:10Z</DateUtc></FrequencyChange></FrequencyChanges></Clock>\n",KW_Experiment5A-36-1,59.946,1.0.0.105,1,-343524022,Professional,2.0.10.353,2.0.10.353,10/18/2018,10/18/2018 20:57,16:57:10,2.0.10.248,2,2,1,2,,,,,,,,TrainingProc,BlockList,34,2,Distractor1.bmp,1,0,,0,0,276053,601,,0,0,blue,600,3,600,3,horizontal,blue,Distractor1.bmp,red,Distractor1.bmp,purple,Distractor2.bmp,lime,Target2.bmp,cyan,Distractor1.bmp,yellow,Distractor2.bmp,,,,TrialProc,,TrainingTrialList,1,2,-999999,1,276654,0,2,772,277426,Target2.bmp,lime,2,,,,4,2,34
KW_Experiment5A,36,1,"<?xml version=""1.0""?>\n<Clock xmlns:dt=""urn:schemas-microsoft-com:datatypes""><Description dt:dt=""string"">E-Prime Primary Realtime Clock</Description><StartTime><Timestamp dt:dt=""int"">0</Timestamp><DateUtc dt:dt=""string"">2018-10-18T20:57:10Z</DateUtc></StartTime><FrequencyChanges><FrequencyChange><Frequency dt:dt=""r8"">3215292</Frequency><Timestamp dt:dt=""r8"">6171523856253</Timestamp><Current dt:dt=""r8"">0</Current><DateUtc dt:dt=""string"">2018-10-18T20:57:10Z</DateUtc></FrequencyChange></FrequencyChanges></Clock>\n",KW_Experiment5A-36-1,59.946,1.0.0.105,1,-343524022,Professional,2.0.10.353,2.0.10.353,10/18/2018,10/18/2018 20:57,16:57:10,2.0.10.248,2,2,1,2,,,,,,,,TrainingProc,BlockList,35,1,Distractor2.bmp,2,0,,0,1,278439,500,,0,0,blue,500,2,500,3,vertical,blue,Distractor1.bmp,yellow,Distractor1.bmp,red,Distractor2.bmp,cyan,Distractor2.bmp,lime,Target1.bmp,purple,Distractor2.bmp,,,,TrialProc,,TrainingTrialList,1,1,-999999,0,278939,0,1,463,279402,Target1.bmp,lime,1,,,,5,2,35
KW_Experiment5A,36,1,"<?xml version=""1.0""?>\n<Clock xmlns:dt=""urn:schemas-microsoft-com:datatypes""><Description dt:dt=""string"">E-Prime Primary Realtime Clock</Description><StartTime><Timestamp dt:dt=""int"">0</Timestamp><DateUtc dt:dt=""string"">2018-10-18T20:57:10Z</DateUtc></StartTime><FrequencyChanges><FrequencyChange><Frequency dt:dt=""r8"">3215292</Frequency><Timestamp dt:dt=""r8"">6171523856253</Timestamp><Current dt:dt=""r8"">0</Current><DateUtc dt:dt=""string"">2018-10-18T20:57:10Z</DateUtc></FrequencyChange></FrequencyChanges></Clock>\n",KW_Experiment5A-36-1,59.946,1.0.0.105,1,-343524022,Professional,2.0.10.353,2.0.10.353,10/18/2018,10/18/2018 20:57,16:57:10,2.0.10.248,2,2,1,2,,,,,,,,TrainingProc,BlockList,36,2,Distractor2.bmp,2,0,,0,1,280424,400,,0,0,yellow,400,1,400,,horizontal,yellow,Distractor2.bmp,red,Target2.bmp,purple,Distractor2.bmp,lime,Distractor2.bmp,blue,Distractor1.bmp,cyan,Distractor2.bmp,,,,TrialProc,2,TrainingTrialList,1,2,-999999,0,280824,0,2,450,281274,Target2.bmp,red,2,,,,8,2,36
KW_Experiment5A,36,1,"<?xml version=""1.0""?>\n<Clock xmlns:dt=""urn:schemas-microsoft-com:datatypes""><Description dt:dt=""string"">E-Prime Primary Realtime Clock</Description><StartTime><Timestamp dt:dt=""int"">0</Timestamp><DateUtc dt:dt=""string"">2018-10-18T20:57:10Z</DateUtc></StartTime><FrequencyChanges><FrequencyChange><Frequency dt:dt=""r8"">3215292</Frequency><Timestamp dt:dt=""r8"">6171523856253</Timestamp><Current dt:dt=""r8"">0</Current><DateUtc dt:dt=""string"">2018-10-18T20:57:10Z</DateUtc></FrequencyChange></FrequencyChanges></Clock>\n",KW_Experiment5A-36-1,59.946,1.0.0.105,1,-343524022,Professional,2.0.10.353,2.0.10.353,10/18/2018,10/18/2018 20:57,16:57:10,2.0.10.248,2,2,1,2,,,,,,,,TrainingProc,BlockList,37,2,Distractor2.bmp,2,0,,1,0,282292,501,,0,0,red,500,2,500,1,horizontal,red,Distractor2.bmp,yellow,Distractor2.bmp,blue,Distractor2.bmp,cyan,Distractor2.bmp,purple,Distractor1.bmp,lime,Target2.bmp,,,,TrialProc,,TrainingTrialList,0,2,-999999,1,282793,0,1,377,283170,Target2.bmp,lime,2,,,,6,2,37
KW_Experiment5A,36,1,"<?xml version=""1.0""?>\n<Clock xmlns:dt=""urn:schemas-microsoft-com:datatypes""><Description dt:dt=""string"">E-Prime Primary Realtime Clock</Description><StartTime><Timestamp dt:dt=""int"">0</Timestamp><DateUtc dt:dt=""string"">2018-10-18T20:57:10Z</DateUtc></StartTime><FrequencyChanges><FrequencyChange><Frequency dt:dt=""r8"">3215292</Frequency><Timestamp dt:dt=""r8"">6171523856253</Timestamp><Current dt:dt=""r8"">0</Current><DateUtc dt:dt=""string"">2018-10-18T20:57:10Z</DateUtc></FrequencyChange></FrequencyChanges></Clock>\n",KW_Experiment5A-36-1,59.946,1.0.0.105,1,-343524022,Professional,2.0.10.353,2.0.10.353,10/18/2018,10/18/2018 20:57,16:57:10,2.0.10.248,2,2,1,2,,,,,,,,TrainingProc,BlockList,38,2,Distractor1.bmp,1,0,,0,1,284194,601,,0,0,cyan,600,3,600,,horizontal,cyan,Distractor1.bmp,blue,Distractor2.bmp,yellow,Distractor2.bmp,purple,Distractor2.bmp,lime,Distractor2.bmp,red,Target2.bmp,,,,TrialProc,4,TrainingTrialList,0,2,-999999,1,284795,0,1,735,285530,Target2.bmp,red,2,,,,12,2,38
KW_Experiment5A,36,1,"<?xml version=""1.0""?>\n<Clock xmlns:dt=""urn:schemas-microsoft-com:datatypes""><Description dt:dt=""string"">E-Prime Primary Realtime Clock</Description><StartTime><Timestamp dt:dt=""int"">0</Timestamp><DateUtc dt:dt=""string"">2018-10-18T20:57:10Z</DateUtc></StartTime><FrequencyChanges><FrequencyChange><Frequency dt:dt=""r8"">3215292</Frequency><Timestamp dt:dt=""r8"">6171523856253</Timestamp><Current dt:dt=""r8"">0</Current><DateUtc dt:dt=""string"">2018-10-18T20:57:10Z</DateUtc></FrequencyChange></FrequencyChanges></Clock>\n",KW_Experiment5A-36-1,59.946,1.0.0.105,1,-343524022,Professional,2.0.10.353,2.0.10.353,10/18/2018,10/18/2018 20:57,16:57:10,2.0.10.248,2,2,1,2,,,,,,,,TrainingProc,BlockList,39,1,Distractor2.bmp,2,0,,0,1,286546,501,,0,0,blue,500,2,500,3,vertical,blue,Distractor2.bmp,lime,Target1.bmp,yellow,Distractor2.bmp,cyan,Distractor2.bmp,red,Distractor2.bmp,purple,Distractor2.bmp,,,,TrialProc,,TrainingTrialList,0,1,-999999,1,287047,0,2,715,287762,Target1.bmp,lime,1,,,,2,2,39
KW_Experiment5A,36,1,"<?xml version=""1.0""?>\n<Clock xmlns:dt=""urn:schemas-microsoft-com:datatypes""><Description dt:dt=""string"">E-Prime Primary Realtime Clock</Description><StartTime><Timestamp dt:dt=""int"">0</Timestamp><DateUtc dt:dt=""string"">2018-10-18T20:57:10Z</DateUtc></StartTime><FrequencyChanges><FrequencyChange><Frequency dt:dt=""r8"">3215292</Frequency><Timestamp dt:dt=""r8"">6171523856253</Timestamp><Current dt:dt=""r8"">0</Current><DateUtc dt:dt=""string"">2018-10-18T20:57:10Z</DateUtc></FrequencyChange></FrequencyChanges></Clock>\n",KW_Experiment5A-36-1,59.946,1.0.0.105,1,-343524022,Professional,2.0.10.353,2.0.10.353,10/18/2018,10/18/2018 20:57,16:57:10,2.0.10.248,2,2,1,2,,,,,,,,TrainingProc,BlockList,40,1,Distractor1.bmp,1,0,,0,1,288782,600,,0,0,blue,600,3,600,3,vertical,blue,Distractor2.bmp,red,Distractor2.bmp,yellow,Distractor2.bmp,lime,Target1.bmp,purple,Distractor1.bmp,cyan,Distractor1.bmp,,,,TrialProc,,TrainingTrialList,1,1,-999999,0,289382,0,1,1052,290434,Target1.bmp,lime,1,,,,4,2,40
KW_Experiment5A,36,1,"<?xml version=""1.0""?>\n<Clock xmlns:dt=""urn:schemas-microsoft-com:datatypes""><Description dt:dt=""string"">E-Prime Primary Realtime Clock</Description><StartTime><Timestamp dt:dt=""int"">0</Timestamp><DateUtc dt:dt=""string"">2018-10-18T20:57:10Z</DateUtc></StartTime><FrequencyChanges><FrequencyChange><Frequency dt:dt=""r8"">3215292</Frequency><Timestamp dt:dt=""r8"">6171523856253</Timestamp><Current dt:dt=""r8"">0</Current><DateUtc dt:dt=""string"">2018-10-18T20:57:10Z</DateUtc></FrequencyChange></FrequencyChanges></Clock>\n",KW_Experiment5A-36-1,59.946,1.0.0.105,1,-343524022,Professional,2.0.10.353,2.0.10.353,10/18/2018,10/18/2018 20:57,16:57:10,2.0.10.248,2,2,1,2,,,,,,,,TrainingProc,BlockList,41,1,Distractor1.bmp,1,0,,0,1,291451,400,,0,0,red,400,1,400,1,vertical,red,Distractor2.bmp,cyan,Distractor2.bmp,lime,Target1.bmp,purple,Distractor1.bmp,yellow,Distractor2.bmp,blue,Distractor2.bmp,,,,TrialProc,,TrainingTrialList,1,1,-999999,0,291851,0,1,895,292746,Target1.bmp,lime,1,,,,3,2,41
KW_Experiment5A,36,1,"<?xml version=""1.0""?>\n<Clock xmlns:dt=""urn:schemas-microsoft-com:datatypes""><Description dt:dt=""string"">E-Prime Primary Realtime Clock</Description><StartTime><Timestamp dt:dt=""int"">0</Timestamp><DateUtc dt:dt=""string"">2018-10-18T20:57:10Z</DateUtc></StartTime><FrequencyChanges><FrequencyChange><Frequency dt:dt=""r8"">3215292</Frequency><Timestamp dt:dt=""r8"">6171523856253</Timestamp><Current dt:dt=""r8"">0</Current><DateUtc dt:dt=""string"">2018-10-18T20:57:10Z</DateUtc></FrequencyChange></FrequencyChanges></Clock>\n",KW_Experiment5A-36-1,59.946,1.0.0.105,1,-343524022,Professional,2.0.10.353,2.0.10.353,10/18/2018,10/18/2018 20:57,16:57:10,2.0.10.248,2,2,1,2,,,,,,,,TrainingProc,BlockList,42,2,Distractor2.bmp,2,0,,0,1,293770,400,,0,0,blue,400,1,400,,horizontal,blue,Distractor2.bmp,lime,Distractor1.bmp,red,Target2.bmp,yellow,Distractor2.bmp,cyan,Distractor2.bmp,purple,Distractor2.bmp,,,,TrialProc,3,TrainingTrialList,1,2,-999999,0,294170,0,2,560,294730,Target2.bmp,red,2,,,,9,2,42
KW_Experiment5A,36,1,"<?xml version=""1.0""?>\n<Clock xmlns:dt=""urn:schemas-microsoft-com:datatypes""><Description dt:dt=""string"">E-Prime Primary Realtime Clock</Description><StartTime><Timestamp dt:dt=""int"">0</Timestamp><DateUtc dt:dt=""string"">2018-10-18T20:57:10Z</DateUtc></StartTime><FrequencyChanges><FrequencyChange><Frequency dt:dt=""r8"">3215292</Frequency><Timestamp dt:dt=""r8"">6171523856253</Timestamp><Current dt:dt=""r8"">0</Current><DateUtc dt:dt=""string"">2018-10-18T20:57:10Z</DateUtc></FrequencyChange></FrequencyChanges></Clock>\n",KW_Experiment5A-36-1,59.946,1.0.0.105,1,-343524022,Professional,2.0.10.353,2.0.10.353,10/18/2018,10/18/2018 20:57,16:57:10,2.0.10.248,2,2,1,2,,,,,,,,TrainingProc,BlockList,43,1,Distractor2.bmp,2,0,,0,1,295755,600,,0,0,yellow,600,3,600,,vertical,red,Target1.bmp,purple,Distractor2.bmp,blue,Distractor1.bmp,lime,Distractor2.bmp,cyan,Distractor2.bmp,yellow,Distractor2.bmp,,,,TrialProc,2,TrainingTrialList,1,1,-999999,0,296355,0,1,631,296986,Target1.bmp,red,1,,,,7,2,43
KW_Experiment5A,36,1,"<?xml version=""1.0""?>\n<Clock xmlns:dt=""urn:schemas-microsoft-com:datatypes""><Description dt:dt=""string"">E-Prime Primary Realtime Clock</Description><StartTime><Timestamp dt:dt=""int"">0</Timestamp><DateUtc dt:dt=""string"">2018-10-18T20:57:10Z</DateUtc></StartTime><FrequencyChanges><FrequencyChange><Frequency dt:dt=""r8"">3215292</Frequency><Timestamp dt:dt=""r8"">6171523856253</Timestamp><Current dt:dt=""r8"">0</Current><DateUtc dt:dt=""string"">2018-10-18T20:57:10Z</DateUtc></FrequencyChange></FrequencyChanges></Clock>\n",KW_Experiment5A-36-1,59.946,1.0.0.105,1,-343524022,Professional,2.0.10.353,2.0.10.353,10/18/2018,10/18/2018 20:57,16:57:10,2.0.10.248,2,2,1,2,,,,,,,,TrainingProc,BlockList,44,2,Distractor2.bmp,2,0,,0,1,298007,500,,0,0,red,500,2,500,1,horizontal,red,Distractor2.bmp,purple,Distractor1.bmp,cyan,Distractor2.bmp,blue,Distractor1.bmp,yellow,Distractor2.bmp,lime,Target2.bmp,,,,TrialProc,,TrainingTrialList,1,2,-999999,0,298507,0,2,855,299362,Target2.bmp,lime,2,,,,6,2,44
KW_Experiment5A,36,1,"<?xml version=""1.0""?>\n<Clock xmlns:dt=""urn:schemas-microsoft-com:datatypes""><Description dt:dt=""string"">E-Prime Primary Realtime Clock</Description><StartTime><Timestamp dt:dt=""int"">0</Timestamp><DateUtc dt:dt=""string"">2018-10-18T20:57:10Z</DateUtc></StartTime><FrequencyChanges><FrequencyChange><Frequency dt:dt=""r8"">3215292</Frequency><Timestamp dt:dt=""r8"">6171523856253</Timestamp><Current dt:dt=""r8"">0</Current><DateUtc dt:dt=""string"">2018-10-18T20:57:10Z</DateUtc></FrequencyChange></FrequencyChanges></Clock>\n",KW_Experiment5A-36-1,59.946,1.0.0.105,1,-343524022,Professional,2.0.10.353,2.0.10.353,10/18/2018,10/18/2018 20:57,16:57:10,2.0.10.248,2,2,1,2,,,,,,,,TrainingProc,BlockList,45,1,Distractor2.bmp,2,0,,0,1,300376,400,,0,0,cyan,400,1,400,4,vertical,cyan,Distractor2.bmp,purple,Distractor2.bmp,blue,Distractor2.bmp,yellow,Distractor1.bmp,red,Distractor2.bmp,lime,Target1.bmp,,,,TrialProc,,TrainingTrialList,1,1,-999999,0,300776,0,1,682,301458,Target1.bmp,lime,1,,,,6,2,45
KW_Experiment5A,36,1,"<?xml version=""1.0""?>\n<Clock xmlns:dt=""urn:schemas-microsoft-com:datatypes""><Description dt:dt=""string"">E-Prime Primary Realtime Clock</Description><StartTime><Timestamp dt:dt=""int"">0</Timestamp><DateUtc dt:dt=""string"">2018-10-18T20:57:10Z</DateUtc></StartTime><FrequencyChanges><FrequencyChange><Frequency dt:dt=""r8"">3215292</Frequency><Timestamp dt:dt=""r8"">6171523856253</Timestamp><Current dt:dt=""r8"">0</Current><DateUtc dt:dt=""string"">2018-10-18T20:57:10Z</DateUtc></FrequencyChange></FrequencyChanges></Clock>\n",KW_Experiment5A-36-1,59.946,1.0.0.105,1,-343524022,Professional,2.0.10.353,2.0.10.353,10/18/2018,10/18/2018 20:57,16:57:10,2.0.10.248,2,2,1,2,,,,,,,,TrainingProc,BlockList,46,2,Distractor1.bmp,1,0,,1,0,302477,601,,0,0,blue,600,3,600,3,horizontal,lime,Target2.bmp,blue,Distractor1.bmp,red,Distractor1.bmp,cyan,Distractor2.bmp,yellow,Distractor1.bmp,purple,Distractor1.bmp,,,,TrialProc,,TrainingTrialList,1,2,-999999,1,303078,0,2,764,303842,Target2.bmp,lime,2,,,,1,2,46
KW_Experiment5A,36,1,"<?xml version=""1.0""?>\n<Clock xmlns:dt=""urn:schemas-microsoft-com:datatypes""><Description dt:dt=""string"">E-Prime Primary Realtime Clock</Description><StartTime><Timestamp dt:dt=""int"">0</Timestamp><DateUtc dt:dt=""string"">2018-10-18T20:57:10Z</DateUtc></StartTime><FrequencyChanges><FrequencyChange><Frequency dt:dt=""r8"">3215292</Frequency><Timestamp dt:dt=""r8"">6171523856253</Timestamp><Current dt:dt=""r8"">0</Current><DateUtc dt:dt=""string"">2018-10-18T20:57:10Z</DateUtc></FrequencyChange></FrequencyChanges></Clock>\n",KW_Experiment5A-36-1,59.946,1.0.0.105,1,-343524022,Professional,2.0.10.353,2.0.10.353,10/18/2018,10/18/2018 20:57,16:57:10,2.0.10.248,2,2,1,2,,,,,,,,TrainingProc,BlockList,47,1,Distractor1.bmp,1,0,,0,1,304863,500,,0,0,cyan,500,2,500,4,vertical,lime,Target1.bmp,cyan,Distractor1.bmp,red,Distractor1.bmp,blue,Distractor2.bmp,purple,Distractor2.bmp,yellow,Distractor1.bmp,,,,TrialProc,,TrainingTrialList,1,1,-999999,0,305363,0,1,791,306154,Target1.bmp,lime,1,,,,1,2,47
KW_Experiment5A,36,1,"<?xml version=""1.0""?>\n<Clock xmlns:dt=""urn:schemas-microsoft-com:datatypes""><Description dt:dt=""string"">E-Prime Primary Realtime Clock</Description><StartTime><Timestamp dt:dt=""int"">0</Timestamp><DateUtc dt:dt=""string"">2018-10-18T20:57:10Z</DateUtc></StartTime><FrequencyChanges><FrequencyChange><Frequency dt:dt=""r8"">3215292</Frequency><Timestamp dt:dt=""r8"">6171523856253</Timestamp><Current dt:dt=""r8"">0</Current><DateUtc dt:dt=""string"">2018-10-18T20:57:10Z</DateUtc></FrequencyChange></FrequencyChanges></Clock>\n",KW_Experiment5A-36-1,59.946,1.0.0.105,1,-343524022,Professional,2.0.10.353,2.0.10.353,10/18/2018,10/18/2018 20:57,16:57:10,2.0.10.248,2,2,1,2,,,,,,,,TrainingProc,BlockList,48,2,Distractor2.bmp,2,0,,0,1,307165,601,,0,0,red,600,3,600,1,horizontal,red,Distractor2.bmp,lime,Target2.bmp,blue,Distractor2.bmp,cyan,Distractor1.bmp,yellow,Distractor1.bmp,purple,Distractor2.bmp,,,,TrialProc,,TrainingTrialList,1,2,-999999,1,307766,0,2,580,308346,Target2.bmp,lime,2,,,,2,2,48
KW_Experiment5A,36,1,"<?xml version=""1.0""?>\n<Clock xmlns:dt=""urn:schemas-microsoft-com:datatypes""><Description dt:dt=""string"">E-Prime Primary Realtime Clock</Description><StartTime><Timestamp dt:dt=""int"">0</Timestamp><DateUtc dt:dt=""string"">2018-10-18T20:57:10Z</DateUtc></StartTime><FrequencyChanges><FrequencyChange><Frequency dt:dt=""r8"">3215292</Frequency><Timestamp dt:dt=""r8"">6171523856253</Timestamp><Current dt:dt=""r8"">0</Current><DateUtc dt:dt=""string"">2018-10-18T20:57:10Z</DateUtc></FrequencyChange></FrequencyChanges></Clock>\n",KW_Experiment5A-36-1,59.946,1.0.0.105,1,-343524022,Professional,2.0.10.353,2.0.10.353,10/18/2018,10/18/2018 20:57,16:57:10,2.0.10.248,3,2,1,3,,,,,,,,TrainingProc,BlockList,1,2,Distractor1.bmp,1,0,,0,23,311185,401,,0,0,blue,400,1,400,3,horizontal,blue,Distractor1.bmp,purple,Distractor1.bmp,cyan,Distractor1.bmp,yellow,Distractor2.bmp,lime,Target2.bmp,red,Distractor1.bmp,,,,TrialProc,,TrainingTrialList,1,2,-999999,1,311586,0,2,640,312226,Target2.bmp,lime,2,,,,5,3,49
KW_Experiment5A,36,1,"<?xml version=""1.0""?>\n<Clock xmlns:dt=""urn:schemas-microsoft-com:datatypes""><Description dt:dt=""string"">E-Prime Primary Realtime Clock</Description><StartTime><Timestamp dt:dt=""int"">0</Timestamp><DateUtc dt:dt=""string"">2018-10-18T20:57:10Z</DateUtc></StartTime><FrequencyChanges><FrequencyChange><Frequency dt:dt=""r8"">3215292</Frequency><Timestamp dt:dt=""r8"">6171523856253</Timestamp><Current dt:dt=""r8"">0</Current><DateUtc dt:dt=""string"">2018-10-18T20:57:10Z</DateUtc></FrequencyChange></FrequencyChanges></Clock>\n",KW_Experiment5A-36-1,59.946,1.0.0.105,1,-343524022,Professional,2.0.10.353,2.0.10.353,10/18/2018,10/18/2018 20:57,16:57:10,2.0.10.248,3,2,1,3,,,,,,,,TrainingProc,BlockList,2,1,Distractor1.bmp,1,0,,0,1,313237,401,,0,0,lime,400,1,400,,vertical,lime,Distractor1.bmp,blue,Distractor1.bmp,yellow,Distractor1.bmp,purple,Distractor1.bmp,cyan,Distractor2.bmp,red,Target1.bmp,,,,TrialProc,6,TrainingTrialList,1,1,-999999,1,313638,0,1,508,314146,Target1.bmp,red,1,,,,12,3,50
KW_Experiment5A,36,1,"<?xml version=""1.0""?>\n<Clock xmlns:dt=""urn:schemas-microsoft-com:datatypes""><Description dt:dt=""string"">E-Prime Primary Realtime Clock</Description><StartTime><Timestamp dt:dt=""int"">0</Timestamp><DateUtc dt:dt=""string"">2018-10-18T20:57:10Z</DateUtc></StartTime><FrequencyChanges><FrequencyChange><Frequency dt:dt=""r8"">3215292</Frequency><Timestamp dt:dt=""r8"">6171523856253</Timestamp><Current dt:dt=""r8"">0</Current><DateUtc dt:dt=""string"">2018-10-18T20:57:10Z</DateUtc></FrequencyChange></FrequencyChanges></Clock>\n",KW_Experiment5A-36-1,59.946,1.0.0.105,1,-343524022,Professional,2.0.10.353,2.0.10.353,10/18/2018,10/18/2018 20:57,16:57:10,2.0.10.248,3,2,1,3,,,,,,,,TrainingProc,BlockList,3,2,Distractor2.bmp,2,0,,0,1,315156,400,,0,0,blue,400,1,400,3,horizontal,blue,Distractor1.bmp,lime,Target2.bmp,red,Distractor2.bmp,yellow,Distractor2.bmp,cyan,Distractor1.bmp,purple,Distractor1.bmp,,,,TrialProc,,TrainingTrialList,1,2,-999999,0,315556,0,2,381,315937,Target2.bmp,lime,2,,,,2,3,51
KW_Experiment5A,36,1,"<?xml version=""1.0""?>\n<Clock xmlns:dt=""urn:schemas-microsoft-com:datatypes""><Description dt:dt=""string"">E-Prime Primary Realtime Clock</Description><StartTime><Timestamp dt:dt=""int"">0</Timestamp><DateUtc dt:dt=""string"">2018-10-18T20:57:10Z</DateUtc></StartTime><FrequencyChanges><FrequencyChange><Frequency dt:dt=""r8"">3215292</Frequency><Timestamp dt:dt=""r8"">6171523856253</Timestamp><Current dt:dt=""r8"">0</Current><DateUtc dt:dt=""string"">2018-10-18T20:57:10Z</DateUtc></FrequencyChange></FrequencyChanges></Clock>\n",KW_Experiment5A-36-1,59.946,1.0.0.105,1,-343524022,Professional,2.0.10.353,2.0.10.353,10/18/2018,10/18/2018 20:57,16:57:10,2.0.10.248,3,2,1,3,,,,,,,,TrainingProc,BlockList,4,1,Distractor1.bmp,1,0,,0,1,316957,601,,0,0,purple,600,3,600,,vertical,purple,Distractor2.bmp,yellow,Distractor1.bmp,cyan,Distractor2.bmp,lime,Distractor2.bmp,red,Target1.bmp,blue,Distractor1.bmp,,,,TrialProc,5,TrainingTrialList,1,1,-999999,1,317558,0,1,523,318081,Target1.bmp,red,1,,,,11,3,52
KW_Experiment5A,36,1,"<?xml version=""1.0""?>\n<Clock xmlns:dt=""urn:schemas-microsoft-com:datatypes""><Description dt:dt=""string"">E-Prime Primary Realtime Clock</Description><StartTime><Timestamp dt:dt=""int"">0</Timestamp><DateUtc dt:dt=""string"">2018-10-18T20:57:10Z</DateUtc></StartTime><FrequencyChanges><FrequencyChange><Frequency dt:dt=""r8"">3215292</Frequency><Timestamp dt:dt=""r8"">6171523856253</Timestamp><Current dt:dt=""r8"">0</Current><DateUtc dt:dt=""string"">2018-10-18T20:57:10Z</DateUtc></FrequencyChange></FrequencyChanges></Clock>\n",KW_Experiment5A-36-1,59.946,1.0.0.105,1,-343524022,Professional,2.0.10.353,2.0.10.353,10/18/2018,10/18/2018 20:57,16:57:10,2.0.10.248,3,2,1,3,,,,,,,,TrainingProc,BlockList,5,2,Distractor2.bmp,2,0,,0,1,319093,400,,0,0,yellow,400,1,400,2,horizontal,yellow,Distractor1.bmp,lime,Target2.bmp,blue,Distractor2.bmp,purple,Distractor2.bmp,cyan,Distractor2.bmp,red,Distractor1.bmp,,,,TrialProc,,TrainingTrialList,1,2,-999999,0,319493,0,2,476,319969,Target2.bmp,lime,2,,,,2,3,53
KW_Experiment5A,36,1,"<?xml version=""1.0""?>\n<Clock xmlns:dt=""urn:schemas-microsoft-com:datatypes""><Description dt:dt=""string"">E-Prime Primary Realtime Clock</Description><StartTime><Timestamp dt:dt=""int"">0</Timestamp><DateUtc dt:dt=""string"">2018-10-18T20:57:10Z</DateUtc></StartTime><FrequencyChanges><FrequencyChange><Frequency dt:dt=""r8"">3215292</Frequency><Timestamp dt:dt=""r8"">6171523856253</Timestamp><Current dt:dt=""r8"">0</Current><DateUtc dt:dt=""string"">2018-10-18T20:57:10Z</DateUtc></FrequencyChange></FrequencyChanges></Clock>\n",KW_Experiment5A-36-1,59.946,1.0.0.105,1,-343524022,Professional,2.0.10.353,2.0.10.353,10/18/2018,10/18/2018 20:57,16:57:10,2.0.10.248,3,2,1,3,,,,,,,,TrainingProc,BlockList,6,2,Distractor2.bmp,2,0,,0,1,320994,601,,0,0,red,600,3,600,1,horizontal,red,Distractor1.bmp,cyan,Distractor2.bmp,purple,Distractor2.bmp,lime,Target2.bmp,blue,Distractor2.bmp,yellow,Distractor2.bmp,,,,TrialProc,,TrainingTrialList,1,2,-999999,1,321595,0,2,758,322353,Target2.bmp,lime,2,,,,4,3,54
KW_Experiment5A,36,1,"<?xml version=""1.0""?>\n<Clock xmlns:dt=""urn:schemas-microsoft-com:datatypes""><Description dt:dt=""string"">E-Prime Primary Realtime Clock</Description><StartTime><Timestamp dt:dt=""int"">0</Timestamp><DateUtc dt:dt=""string"">2018-10-18T20:57:10Z</DateUtc></StartTime><FrequencyChanges><FrequencyChange><Frequency dt:dt=""r8"">3215292</Frequency><Timestamp dt:dt=""r8"">6171523856253</Timestamp><Current dt:dt=""r8"">0</Current><DateUtc dt:dt=""string"">2018-10-18T20:57:10Z</DateUtc></FrequencyChange></FrequencyChanges></Clock>\n",KW_Experiment5A-36-1,59.946,1.0.0.105,1,-343524022,Professional,2.0.10.353,2.0.10.353,10/18/2018,10/18/2018 20:57,16:57:10,2.0.10.248,3,2,1,3,,,,,,,,TrainingProc,BlockList,7,2,Distractor1.bmp,1,0,,0,1,323363,601,,0,0,cyan,600,3,600,4,horizontal,cyan,Distractor1.bmp,blue,Distractor2.bmp,purple,Distractor1.bmp,red,Distractor2.bmp,yellow,Distractor1.bmp,lime,Target2.bmp,,,,TrialProc,,TrainingTrialList,1,2,-999999,1,323964,0,2,557,324521,Target2.bmp,lime,2,,,,6,3,55
KW_Experiment5A,36,1,"<?xml version=""1.0""?>\n<Clock xmlns:dt=""urn:schemas-microsoft-com:datatypes""><Description dt:dt=""string"">E-Prime Primary Realtime Clock</Description><StartTime><Timestamp dt:dt=""int"">0</Timestamp><DateUtc dt:dt=""string"">2018-10-18T20:57:10Z</DateUtc></StartTime><FrequencyChanges><FrequencyChange><Frequency dt:dt=""r8"">3215292</Frequency><Timestamp dt:dt=""r8"">6171523856253</Timestamp><Current dt:dt=""r8"">0</Current><DateUtc dt:dt=""string"">2018-10-18T20:57:10Z</DateUtc></FrequencyChange></FrequencyChanges></Clock>\n",KW_Experiment5A-36-1,59.946,1.0.0.105,1,-343524022,Professional,2.0.10.353,2.0.10.353,10/18/2018,10/18/2018 20:57,16:57:10,2.0.10.248,3,2,1,3,,,,,,,,TrainingProc,BlockList,8,2,Distractor2.bmp,2,0,,0,1,325532,600,,0,0,purple,600,3,600,,horizontal,red,Target2.bmp,blue,Distractor2.bmp,lime,Distractor2.bmp,yellow,Distractor1.bmp,cyan,Distractor1.bmp,purple,Distractor2.bmp,,,,TrialProc,5,TrainingTrialList,1,2,-999999,0,326132,0,2,621,326753,Target2.bmp,red,2,,,,7,3,56
KW_Experiment5A,36,1,"<?xml version=""1.0""?>\n<Clock xmlns:dt=""urn:schemas-microsoft-com:datatypes""><Description dt:dt=""string"">E-Prime Primary Realtime Clock</Description><StartTime><Timestamp dt:dt=""int"">0</Timestamp><DateUtc dt:dt=""string"">2018-10-18T20:57:10Z</DateUtc></StartTime><FrequencyChanges><FrequencyChange><Frequency dt:dt=""r8"">3215292</Frequency><Timestamp dt:dt=""r8"">6171523856253</Timestamp><Current dt:dt=""r8"">0</Current><DateUtc dt:dt=""string"">2018-10-18T20:57:10Z</DateUtc></FrequencyChange></FrequencyChanges></Clock>\n",KW_Experiment5A-36-1,59.946,1.0.0.105,1,-343524022,Professional,2.0.10.353,2.0.10.353,10/18/2018,10/18/2018 20:57,16:57:10,2.0.10.248,3,2,1,3,,,,,,,,TrainingProc,BlockList,9,1,Distractor2.bmp,2,0,,0,1,327767,601,,0,0,cyan,600,3,600,,vertical,cyan,Distractor2.bmp,purple,Distractor1.bmp,lime,Distractor2.bmp,red,Target1.bmp,yellow,Distractor2.bmp,blue,Distractor2.bmp,,,,TrialProc,4,TrainingTrialList,1,1,-999999,1,328368,0,1,633,329001,Target1.bmp,red,1,,,,10,3,57
KW_Experiment5A,36,1,"<?xml version=""1.0""?>\n<Clock xmlns:dt=""urn:schemas-microsoft-com:datatypes""><Description dt:dt=""string"">E-Prime Primary Realtime Clock</Description><StartTime><Timestamp dt:dt=""int"">0</Timestamp><DateUtc dt:dt=""string"">2018-10-18T20:57:10Z</DateUtc></StartTime><FrequencyChanges><FrequencyChange><Frequency dt:dt=""r8"">3215292</Frequency><Timestamp dt:dt=""r8"">6171523856253</Timestamp><Current dt:dt=""r8"">0</Current><DateUtc dt:dt=""string"">2018-10-18T20:57:10Z</DateUtc></FrequencyChange></FrequencyChanges></Clock>\n",KW_Experiment5A-36-1,59.946,1.0.0.105,1,-343524022,Professional,2.0.10.353,2.0.10.353,10/18/2018,10/18/2018 20:57,16:57:10,2.0.10.248,3,2,1,3,,,,,,,,TrainingProc,BlockList,10,2,Distractor2.bmp,2,0,,0,1,330019,601,,0,0,cyan,600,3,600,4,horizontal,cyan,Distractor2.bmp,purple,Distractor2.bmp,blue,Distractor1.bmp,yellow,Distractor1.bmp,red,Distractor1.bmp,lime,Target2.bmp,,,,TrialProc,,TrainingTrialList,0,2,-999999,1,330620,0,1,565,331185,Target2.bmp,lime,2,,,,6,3,58
KW_Experiment5A,36,1,"<?xml version=""1.0""?>\n<Clock xmlns:dt=""urn:schemas-microsoft-com:datatypes""><Description dt:dt=""string"">E-Prime Primary Realtime Clock</Description><StartTime><Timestamp dt:dt=""int"">0</Timestamp><DateUtc dt:dt=""string"">2018-10-18T20:57:10Z</DateUtc></StartTime><FrequencyChanges><FrequencyChange><Frequency dt:dt=""r8"">3215292</Frequency><Timestamp dt:dt=""r8"">6171523856253</Timestamp><Current dt:dt=""r8"">0</Current><DateUtc dt:dt=""string"">2018-10-18T20:57:10Z</DateUtc></FrequencyChange></FrequencyChanges></Clock>\n",KW_Experiment5A-36-1,59.946,1.0.0.105,1,-343524022,Professional,2.0.10.353,2.0.10.353,10/18/2018,10/18/2018 20:57,16:57:10,2.0.10.248,3,2,1,3,,,,,,,,TrainingProc,BlockList,11,2,Distractor2.bmp,2,0,,1,0,332204,501,,0,0,yellow,500,2,500,2,horizontal,yellow,Distractor2.bmp,purple,Distractor1.bmp,lime,Target2.bmp,cyan,Distractor2.bmp,blue,Distractor1.bmp,red,Distractor2.bmp,,,,TrialProc,,TrainingTrialList,1,2,-999999,1,332705,0,2,688,333393,Target2.bmp,lime,2,,,,3,3,59
KW_Experiment5A,36,1,"<?xml version=""1.0""?>\n<Clock xmlns:dt=""urn:schemas-microsoft-com:datatypes""><Description dt:dt=""string"">E-Prime Primary Realtime Clock</Description><StartTime><Timestamp dt:dt=""int"">0</Timestamp><DateUtc dt:dt=""string"">2018-10-18T20:57:10Z</DateUtc></StartTime><FrequencyChanges><FrequencyChange><Frequency dt:dt=""r8"">3215292</Frequency><Timestamp dt:dt=""r8"">6171523856253</Timestamp><Current dt:dt=""r8"">0</Current><DateUtc dt:dt=""string"">2018-10-18T20:57:10Z</DateUtc></FrequencyChange></FrequencyChanges></Clock>\n",KW_Experiment5A-36-1,59.946,1.0.0.105,1,-343524022,Professional,2.0.10.353,2.0.10.353,10/18/2018,10/18/2018 20:57,16:57:10,2.0.10.248,3,2,1,3,,,,,,,,TrainingProc,BlockList,12,2,Distractor1.bmp,1,0,,0,1,334407,600,,0,0,yellow,600,3,600,2,horizontal,yellow,Distractor2.bmp,purple,Distractor1.bmp,lime,Target2.bmp,blue,Distractor1.bmp,red,Distractor1.bmp,cyan,Distractor1.bmp,,,,TrialProc,,TrainingTrialList,1,2,-999999,0,335007,0,2,434,335441,Target2.bmp,lime,2,,,,3,3,60
KW_Experiment5A,36,1,"<?xml version=""1.0""?>\n<Clock xmlns:dt=""urn:schemas-microsoft-com:datatypes""><Description dt:dt=""string"">E-Prime Primary Realtime Clock</Description><StartTime><Timestamp dt:dt=""int"">0</Timestamp><DateUtc dt:dt=""string"">2018-10-18T20:57:10Z</DateUtc></StartTime><FrequencyChanges><FrequencyChange><Frequency dt:dt=""r8"">3215292</Frequency><Timestamp dt:dt=""r8"">6171523856253</Timestamp><Current dt:dt=""r8"">0</Current><DateUtc dt:dt=""string"">2018-10-18T20:57:10Z</DateUtc></FrequencyChange></FrequencyChanges></Clock>\n",KW_Experiment5A-36-1,59.946,1.0.0.105,1,-343524022,Professional,2.0.10.353,2.0.10.353,10/18/2018,10/18/2018 20:57,16:57:10,2.0.10.248,3,2,1,3,,,,,,,,TrainingProc,BlockList,13,2,Distractor2.bmp,2,0,,0,1,336458,401,,0,0,blue,400,1,400,3,horizontal,blue,Distractor2.bmp,yellow,Distractor2.bmp,red,Distractor2.bmp,lime,Target2.bmp,purple,Distractor2.bmp,cyan,Distractor2.bmp,,,,TrialProc,,TrainingTrialList,1,2,-999999,1,336859,0,2,710,337569,Target2.bmp,lime,2,,,,4,3,61
KW_Experiment5A,36,1,"<?xml version=""1.0""?>\n<Clock xmlns:dt=""urn:schemas-microsoft-com:datatypes""><Description dt:dt=""string"">E-Prime Primary Realtime Clock</Description><StartTime><Timestamp dt:dt=""int"">0</Timestamp><DateUtc dt:dt=""string"">2018-10-18T20:57:10Z</DateUtc></StartTime><FrequencyChanges><FrequencyChange><Frequency dt:dt=""r8"">3215292</Frequency><Timestamp dt:dt=""r8"">6171523856253</Timestamp><Current dt:dt=""r8"">0</Current><DateUtc dt:dt=""string"">2018-10-18T20:57:10Z</DateUtc></FrequencyChange></FrequencyChanges></Clock>\n",KW_Experiment5A-36-1,59.946,1.0.0.105,1,-343524022,Professional,2.0.10.353,2.0.10.353,10/18/2018,10/18/2018 20:57,16:57:10,2.0.10.248,3,2,1,3,,,,,,,,TrainingProc,BlockList,14,2,Distractor1.bmp,1,0,,0,1,338594,600,,0,0,red,600,3,600,1,horizontal,red,Distractor1.bmp,blue,Distractor1.bmp,purple,Distractor1.bmp,cyan,Distractor2.bmp,yellow,Distractor2.bmp,lime,Target2.bmp,,,,TrialProc,,TrainingTrialList,0,2,-999999,0,339194,0,1,535,339729,Target2.bmp,lime,2,,,,6,3,62
KW_Experiment5A,36,1,"<?xml version=""1.0""?>\n<Clock xmlns:dt=""urn:schemas-microsoft-com:datatypes""><Description dt:dt=""string"">E-Prime Primary Realtime Clock</Description><StartTime><Timestamp dt:dt=""int"">0</Timestamp><DateUtc dt:dt=""string"">2018-10-18T20:57:10Z</DateUtc></StartTime><FrequencyChanges><FrequencyChange><Frequency dt:dt=""r8"">3215292</Frequency><Timestamp dt:dt=""r8"">6171523856253</Timestamp><Current dt:dt=""r8"">0</Current><DateUtc dt:dt=""string"">2018-10-18T20:57:10Z</DateUtc></FrequencyChange></FrequencyChanges></Clock>\n",KW_Experiment5A-36-1,59.946,1.0.0.105,1,-343524022,Professional,2.0.10.353,2.0.10.353,10/18/2018,10/18/2018 20:57,16:57:10,2.0.10.248,3,2,1,3,,,,,,,,TrainingProc,BlockList,15,2,Distractor1.bmp,1,0,,0,1,340746,400,,0,0,yellow,400,1,400,2,horizontal,yellow,Distractor1.bmp,red,Distractor1.bmp,lime,Target2.bmp,purple,Distractor1.bmp,cyan,Distractor1.bmp,blue,Distractor1.bmp,,,,TrialProc,,TrainingTrialList,1,2,-999999,0,341146,0,2,511,341657,Target2.bmp,lime,2,,,,3,3,63
KW_Experiment5A,36,1,"<?xml version=""1.0""?>\n<Clock xmlns:dt=""urn:schemas-microsoft-com:datatypes""><Description dt:dt=""string"">E-Prime Primary Realtime Clock</Description><StartTime><Timestamp dt:dt=""int"">0</Timestamp><DateUtc dt:dt=""string"">2018-10-18T20:57:10Z</DateUtc></StartTime><FrequencyChanges><FrequencyChange><Frequency dt:dt=""r8"">3215292</Frequency><Timestamp dt:dt=""r8"">6171523856253</Timestamp><Current dt:dt=""r8"">0</Current><DateUtc dt:dt=""string"">2018-10-18T20:57:10Z</DateUtc></FrequencyChange></FrequencyChanges></Clock>\n",KW_Experiment5A-36-1,59.946,1.0.0.105,1,-343524022,Professional,2.0.10.353,2.0.10.353,10/18/2018,10/18/2018 20:57,16:57:10,2.0.10.248,3,2,1,3,,,,,,,,TrainingProc,BlockList,16,1,Distractor2.bmp,2,0,,0,1,342681,400,,0,0,blue,400,1,400,,vertical,blue,Distractor2.bmp,purple,Distractor1.bmp,red,Target1.bmp,cyan,Distractor2.bmp,yellow,Distractor1.bmp,lime,Distractor1.bmp,,,,TrialProc,3,TrainingTrialList,1,1,-999999,0,343081,0,1,760,343841,Target1.bmp,red,1,,,,9,3,64
KW_Experiment5A,36,1,"<?xml version=""1.0""?>\n<Clock xmlns:dt=""urn:schemas-microsoft-com:datatypes""><Description dt:dt=""string"">E-Prime Primary Realtime Clock</Description><StartTime><Timestamp dt:dt=""int"">0</Timestamp><DateUtc dt:dt=""string"">2018-10-18T20:57:10Z</DateUtc></StartTime><FrequencyChanges><FrequencyChange><Frequency dt:dt=""r8"">3215292</Frequency><Timestamp dt:dt=""r8"">6171523856253</Timestamp><Current dt:dt=""r8"">0</Current><DateUtc dt:dt=""string"">2018-10-18T20:57:10Z</DateUtc></FrequencyChange></FrequencyChanges></Clock>\n",KW_Experiment5A-36-1,59.946,1.0.0.105,1,-343524022,Professional,2.0.10.353,2.0.10.353,10/18/2018,10/18/2018 20:57,16:57:10,2.0.10.248,3,2,1,3,,,,,,,,TrainingProc,BlockList,17,2,Distractor1.bmp,1,0,,0,1,344866,601,,0,0,blue,600,3,600,3,horizontal,lime,Target2.bmp,blue,Distractor1.bmp,cyan,Distractor1.bmp,purple,Distractor1.bmp,red,Distractor1.bmp,yellow,Distractor1.bmp,,,,TrialProc,,TrainingTrialList,1,2,-999999,1,345467,0,2,566,346033,Target2.bmp,lime,2,,,,1,3,65
KW_Experiment5A,36,1,"<?xml version=""1.0""?>\n<Clock xmlns:dt=""urn:schemas-microsoft-com:datatypes""><Description dt:dt=""string"">E-Prime Primary Realtime Clock</Description><StartTime><Timestamp dt:dt=""int"">0</Timestamp><DateUtc dt:dt=""string"">2018-10-18T20:57:10Z</DateUtc></StartTime><FrequencyChanges><FrequencyChange><Frequency dt:dt=""r8"">3215292</Frequency><Timestamp dt:dt=""r8"">6171523856253</Timestamp><Current dt:dt=""r8"">0</Current><DateUtc dt:dt=""string"">2018-10-18T20:57:10Z</DateUtc></FrequencyChange></FrequencyChanges></Clock>\n",KW_Experiment5A-36-1,59.946,1.0.0.105,1,-343524022,Professional,2.0.10.353,2.0.10.353,10/18/2018,10/18/2018 20:57,16:57:10,2.0.10.248,3,2,1,3,,,,,,,,TrainingProc,BlockList,18,1,Distractor1.bmp,1,0,,0,1,347051,501,,0,0,red,500,2,500,1,vertical,lime,Target1.bmp,red,Distractor1.bmp,yellow,Distractor1.bmp,blue,Distractor2.bmp,purple,Distractor1.bmp,cyan,Distractor1.bmp,,,,TrialProc,,TrainingTrialList,1,1,-999999,1,347552,0,1,585,348137,Target1.bmp,lime,1,,,,1,3,66
KW_Experiment5A,36,1,"<?xml version=""1.0""?>\n<Clock xmlns:dt=""urn:schemas-microsoft-com:datatypes""><Description dt:dt=""string"">E-Prime Primary Realtime Clock</Description><StartTime><Timestamp dt:dt=""int"">0</Timestamp><DateUtc dt:dt=""string"">2018-10-18T20:57:10Z</DateUtc></StartTime><FrequencyChanges><FrequencyChange><Frequency dt:dt=""r8"">3215292</Frequency><Timestamp dt:dt=""r8"">6171523856253</Timestamp><Current dt:dt=""r8"">0</Current><DateUtc dt:dt=""string"">2018-10-18T20:57:10Z</DateUtc></FrequencyChange></FrequencyChanges></Clock>\n",KW_Experiment5A-36-1,59.946,1.0.0.105,1,-343524022,Professional,2.0.10.353,2.0.10.353,10/18/2018,10/18/2018 20:57,16:57:10,2.0.10.248,3,2,1,3,,,,,,,,TrainingProc,BlockList,19,1,Distractor1.bmp,1,0,,0,1,349153,501,,0,0,purple,500,2,500,5,vertical,purple,Distractor1.bmp,lime,Target1.bmp,cyan,Distractor1.bmp,yellow,Distractor2.bmp,blue,Distractor1.bmp,red,Distractor2.bmp,,,,TrialProc,,TrainingTrialList,1,1,-999999,1,349654,0,1,603,350257,Target1.bmp,lime,1,,,,2,3,67
KW_Experiment5A,36,1,"<?xml version=""1.0""?>\n<Clock xmlns:dt=""urn:schemas-microsoft-com:datatypes""><Description dt:dt=""string"">E-Prime Primary Realtime Clock</Description><StartTime><Timestamp dt:dt=""int"">0</Timestamp><DateUtc dt:dt=""string"">2018-10-18T20:57:10Z</DateUtc></StartTime><FrequencyChanges><FrequencyChange><Frequency dt:dt=""r8"">3215292</Frequency><Timestamp dt:dt=""r8"">6171523856253</Timestamp><Current dt:dt=""r8"">0</Current><DateUtc dt:dt=""string"">2018-10-18T20:57:10Z</DateUtc></FrequencyChange></FrequencyChanges></Clock>\n",KW_Experiment5A-36-1,59.946,1.0.0.105,1,-343524022,Professional,2.0.10.353,2.0.10.353,10/18/2018,10/18/2018 20:57,16:57:10,2.0.10.248,3,2,1,3,,,,,,,,TrainingProc,BlockList,20,1,Distractor2.bmp,2,0,,0,1,351272,400,,0,0,red,400,1,400,1,vertical,red,Distractor1.bmp,blue,Distractor2.bmp,cyan,Distractor2.bmp,yellow,Distractor2.bmp,lime,Target1.bmp,purple,Distractor2.bmp,,,,TrialProc,,TrainingTrialList,1,1,-999999,0,351672,0,1,641,352313,Target1.bmp,lime,1,,,,5,3,68
KW_Experiment5A,36,1,"<?xml version=""1.0""?>\n<Clock xmlns:dt=""urn:schemas-microsoft-com:datatypes""><Description dt:dt=""string"">E-Prime Primary Realtime Clock</Description><StartTime><Timestamp dt:dt=""int"">0</Timestamp><DateUtc dt:dt=""string"">2018-10-18T20:57:10Z</DateUtc></StartTime><FrequencyChanges><FrequencyChange><Frequency dt:dt=""r8"">3215292</Frequency><Timestamp dt:dt=""r8"">6171523856253</Timestamp><Current dt:dt=""r8"">0</Current><DateUtc dt:dt=""string"">2018-10-18T20:57:10Z</DateUtc></FrequencyChange></FrequencyChanges></Clock>\n",KW_Experiment5A-36-1,59.946,1.0.0.105,1,-343524022,Professional,2.0.10.353,2.0.10.353,10/18/2018,10/18/2018 20:57,16:57:10,2.0.10.248,3,2,1,3,,,,,,,,TrainingProc,BlockList,21,2,Distractor1.bmp,1,0,,0,1,353324,500,,0,0,yellow,500,2,500,,horizontal,yellow,Distractor2.bmp,red,Target2.bmp,blue,Distractor1.bmp,cyan,Distractor1.bmp,lime,Distractor1.bmp,purple,Distractor2.bmp,,,,TrialProc,2,TrainingTrialList,1,2,-999999,0,353824,0,2,417,354241,Target2.bmp,red,2,,,,8,3,69
KW_Experiment5A,36,1,"<?xml version=""1.0""?>\n<Clock xmlns:dt=""urn:schemas-microsoft-com:datatypes""><Description dt:dt=""string"">E-Prime Primary Realtime Clock</Description><StartTime><Timestamp dt:dt=""int"">0</Timestamp><DateUtc dt:dt=""string"">2018-10-18T20:57:10Z</DateUtc></StartTime><FrequencyChanges><FrequencyChange><Frequency dt:dt=""r8"">3215292</Frequency><Timestamp dt:dt=""r8"">6171523856253</Timestamp><Current dt:dt=""r8"">0</Current><DateUtc dt:dt=""string"">2018-10-18T20:57:10Z</DateUtc></FrequencyChange></FrequencyChanges></Clock>\n",KW_Experiment5A-36-1,59.946,1.0.0.105,1,-343524022,Professional,2.0.10.353,2.0.10.353,10/18/2018,10/18/2018 20:57,16:57:10,2.0.10.248,3,2,1,3,,,,,,,,TrainingProc,BlockList,22,1,Distractor2.bmp,2,0,,0,1,355259,400,,0,0,blue,400,1,400,3,vertical,blue,Distractor2.bmp,yellow,Distractor2.bmp,cyan,Distractor2.bmp,purple,Distractor1.bmp,lime,Target1.bmp,red,Distractor2.bmp,,,,TrialProc,,TrainingTrialList,1,1,-999999,0,355659,0,1,470,356129,Target1.bmp,lime,1,,,,5,3,70
KW_Experiment5A,36,1,"<?xml version=""1.0""?>\n<Clock xmlns:dt=""urn:schemas-microsoft-com:datatypes""><Description dt:dt=""string"">E-Prime Primary Realtime Clock</Description><StartTime><Timestamp dt:dt=""int"">0</Timestamp><DateUtc dt:dt=""string"">2018-10-18T20:57:10Z</DateUtc></StartTime><FrequencyChanges><FrequencyChange><Frequency dt:dt=""r8"">3215292</Frequency><Timestamp dt:dt=""r8"">6171523856253</Timestamp><Current dt:dt=""r8"">0</Current><DateUtc dt:dt=""string"">2018-10-18T20:57:10Z</DateUtc></FrequencyChange></FrequencyChanges></Clock>\n",KW_Experiment5A-36-1,59.946,1.0.0.105,1,-343524022,Professional,2.0.10.353,2.0.10.353,10/18/2018,10/18/2018 20:57,16:57:10,2.0.10.248,3,2,1,3,,,,,,,,TrainingProc,BlockList,23,2,Distractor1.bmp,1,0,,0,1,357144,600,,0,0,red,600,3,600,1,horizontal,lime,Target2.bmp,red,Distractor1.bmp,yellow,Distractor2.bmp,blue,Distractor2.bmp,purple,Distractor2.bmp,cyan,Distractor2.bmp,,,,TrialProc,,TrainingTrialList,1,2,-999999,0,357744,0,2,616,358360,Target2.bmp,lime,2,,,,1,3,71
KW_Experiment5A,36,1,"<?xml version=""1.0""?>\n<Clock xmlns:dt=""urn:schemas-microsoft-com:datatypes""><Description dt:dt=""string"">E-Prime Primary Realtime Clock</Description><StartTime><Timestamp dt:dt=""int"">0</Timestamp><DateUtc dt:dt=""string"">2018-10-18T20:57:10Z</DateUtc></StartTime><FrequencyChanges><FrequencyChange><Frequency dt:dt=""r8"">3215292</Frequency><Timestamp dt:dt=""r8"">6171523856253</Timestamp><Current dt:dt=""r8"">0</Current><DateUtc dt:dt=""string"">2018-10-18T20:57:10Z</DateUtc></FrequencyChange></FrequencyChanges></Clock>\n",KW_Experiment5A-36-1,59.946,1.0.0.105,1,-343524022,Professional,2.0.10.353,2.0.10.353,10/18/2018,10/18/2018 20:57,16:57:10,2.0.10.248,3,2,1,3,,,,,,,,TrainingProc,BlockList,24,1,Distractor1.bmp,1,0,,0,1,359379,601,,0,0,red,600,3,600,1,vertical,red,Distractor2.bmp,cyan,Distractor1.bmp,blue,Distractor2.bmp,lime,Target1.bmp,purple,Distractor1.bmp,yellow,Distractor2.bmp,,,,TrialProc,,TrainingTrialList,1,1,-999999,1,359980,0,1,764,360744,Target1.bmp,lime,1,,,,4,3,72
KW_Experiment5A,36,1,"<?xml version=""1.0""?>\n<Clock xmlns:dt=""urn:schemas-microsoft-com:datatypes""><Description dt:dt=""string"">E-Prime Primary Realtime Clock</Description><StartTime><Timestamp dt:dt=""int"">0</Timestamp><DateUtc dt:dt=""string"">2018-10-18T20:57:10Z</DateUtc></StartTime><FrequencyChanges><FrequencyChange><Frequency dt:dt=""r8"">3215292</Frequency><Timestamp dt:dt=""r8"">6171523856253</Timestamp><Current dt:dt=""r8"">0</Current><DateUtc dt:dt=""string"">2018-10-18T20:57:10Z</DateUtc></FrequencyChange></FrequencyChanges></Clock>\n",KW_Experiment5A-36-1,59.946,1.0.0.105,1,-343524022,Professional,2.0.10.353,2.0.10.353,10/18/2018,10/18/2018 20:57,16:57:10,2.0.10.248,3,2,1,3,,,,,,,,TrainingProc,BlockList,25,1,Distractor1.bmp,1,0,,0,1,361765,400,,0,0,yellow,400,1,400,2,vertical,yellow,Distractor1.bmp,blue,Distractor2.bmp,red,Distractor2.bmp,purple,Distractor2.bmp,cyan,Distractor1.bmp,lime,Target1.bmp,,,,TrialProc,,TrainingTrialList,1,1,-999999,0,362165,0,1,595,362760,Target1.bmp,lime,1,,,,6,4,73
KW_Experiment5A,36,1,"<?xml version=""1.0""?>\n<Clock xmlns:dt=""urn:schemas-microsoft-com:datatypes""><Description dt:dt=""string"">E-Prime Primary Realtime Clock</Description><StartTime><Timestamp dt:dt=""int"">0</Timestamp><DateUtc dt:dt=""string"">2018-10-18T20:57:10Z</DateUtc></StartTime><FrequencyChanges><FrequencyChange><Frequency dt:dt=""r8"">3215292</Frequency><Timestamp dt:dt=""r8"">6171523856253</Timestamp><Current dt:dt=""r8"">0</Current><DateUtc dt:dt=""string"">2018-10-18T20:57:10Z</DateUtc></FrequencyChange></FrequencyChanges></Clock>\n",KW_Experiment5A-36-1,59.946,1.0.0.105,1,-343524022,Professional,2.0.10.353,2.0.10.353,10/18/2018,10/18/2018 20:57,16:57:10,2.0.10.248,3,2,1,3,,,,,,,,TrainingProc,BlockList,26,1,Distractor2.bmp,2,0,,0,1,363783,601,,0,0,red,600,3,600,1,vertical,red,Distractor2.bmp,blue,Distractor1.bmp,cyan,Distractor2.bmp,yellow,Distractor1.bmp,lime,Target1.bmp,purple,Distractor2.bmp,,,,TrialProc,,TrainingTrialList,1,1,-999999,1,364384,0,1,512,364896,Target1.bmp,lime,1,,,,5,4,74
KW_Experiment5A,36,1,"<?xml version=""1.0""?>\n<Clock xmlns:dt=""urn:schemas-microsoft-com:datatypes""><Description dt:dt=""string"">E-Prime Primary Realtime Clock</Description><StartTime><Timestamp dt:dt=""int"">0</Timestamp><DateUtc dt:dt=""string"">2018-10-18T20:57:10Z</DateUtc></StartTime><FrequencyChanges><FrequencyChange><Frequency dt:dt=""r8"">3215292</Frequency><Timestamp dt:dt=""r8"">6171523856253</Timestamp><Current dt:dt=""r8"">0</Current><DateUtc dt:dt=""string"">2018-10-18T20:57:10Z</DateUtc></FrequencyChange></FrequencyChanges></Clock>\n",KW_Experiment5A-36-1,59.946,1.0.0.105,1,-343524022,Professional,2.0.10.353,2.0.10.353,10/18/2018,10/18/2018 20:57,16:57:10,2.0.10.248,3,2,1,3,,,,,,,,TrainingProc,BlockList,27,2,Distractor2.bmp,2,0,,1,0,365918,401,,0,0,cyan,400,1,400,4,horizontal,cyan,Distractor2.bmp,blue,Distractor2.bmp,red,Distractor1.bmp,lime,Target2.bmp,yellow,Distractor2.bmp,purple,Distractor1.bmp,,,,TrialProc,,TrainingTrialList,1,2,-999999,1,366319,0,2,553,366872,Target2.bmp,lime,2,,,,4,4,75
KW_Experiment5A,36,1,"<?xml version=""1.0""?>\n<Clock xmlns:dt=""urn:schemas-microsoft-com:datatypes""><Description dt:dt=""string"">E-Prime Primary Realtime Clock</Description><StartTime><Timestamp dt:dt=""int"">0</Timestamp><DateUtc dt:dt=""string"">2018-10-18T20:57:10Z</DateUtc></StartTime><FrequencyChanges><FrequencyChange><Frequency dt:dt=""r8"">3215292</Frequency><Timestamp dt:dt=""r8"">6171523856253</Timestamp><Current dt:dt=""r8"">0</Current><DateUtc dt:dt=""string"">2018-10-18T20:57:10Z</DateUtc></FrequencyChange></FrequencyChanges></Clock>\n",KW_Experiment5A-36-1,59.946,1.0.0.105,1,-343524022,Professional,2.0.10.353,2.0.10.353,10/18/2018,10/18/2018 20:57,16:57:10,2.0.10.248,3,2,1,3,,,,,,,,TrainingProc,BlockList,28,1,Distractor2.bmp,2,0,,0,1,367887,400,,0,0,blue,400,1,400,,vertical,blue,Distractor1.bmp,cyan,Distractor2.bmp,yellow,Distractor1.bmp,lime,Distractor1.bmp,red,Target1.bmp,purple,Distractor2.bmp,,,,TrialProc,3,TrainingTrialList,1,1,-999999,0,368287,0,1,745,369032,Target1.bmp,red,1,,,,11,4,76
KW_Experiment5A,36,1,"<?xml version=""1.0""?>\n<Clock xmlns:dt=""urn:schemas-microsoft-com:datatypes""><Description dt:dt=""string"">E-Prime Primary Realtime Clock</Description><StartTime><Timestamp dt:dt=""int"">0</Timestamp><DateUtc dt:dt=""string"">2018-10-18T20:57:10Z</DateUtc></StartTime><FrequencyChanges><FrequencyChange><Frequency dt:dt=""r8"">3215292</Frequency><Timestamp dt:dt=""r8"">6171523856253</Timestamp><Current dt:dt=""r8"">0</Current><DateUtc dt:dt=""string"">2018-10-18T20:57:10Z</DateUtc></FrequencyChange></FrequencyChanges></Clock>\n",KW_Experiment5A-36-1,59.946,1.0.0.105,1,-343524022,Professional,2.0.10.353,2.0.10.353,10/18/2018,10/18/2018 20:57,16:57:10,2.0.10.248,3,2,1,3,,,,,,,,TrainingProc,BlockList,29,2,Distractor1.bmp,1,0,,0,1,370056,400,,0,0,yellow,400,1,400,2,horizontal,yellow,Distractor1.bmp,blue,Distractor2.bmp,lime,Target2.bmp,purple,Distractor1.bmp,cyan,Distractor2.bmp,red,Distractor1.bmp,,,,TrialProc,,TrainingTrialList,1,2,-999999,0,370456,0,2,408,370864,Target2.bmp,lime,2,,,,3,4,77
KW_Experiment5A,36,1,"<?xml version=""1.0""?>\n<Clock xmlns:dt=""urn:schemas-microsoft-com:datatypes""><Description dt:dt=""string"">E-Prime Primary Realtime Clock</Description><StartTime><Timestamp dt:dt=""int"">0</Timestamp><DateUtc dt:dt=""string"">2018-10-18T20:57:10Z</DateUtc></StartTime><FrequencyChanges><FrequencyChange><Frequency dt:dt=""r8"">3215292</Frequency><Timestamp dt:dt=""r8"">6171523856253</Timestamp><Current dt:dt=""r8"">0</Current><DateUtc dt:dt=""string"">2018-10-18T20:57:10Z</DateUtc></FrequencyChange></FrequencyChanges></Clock>\n",KW_Experiment5A-36-1,59.946,1.0.0.105,1,-343524022,Professional,2.0.10.353,2.0.10.353,10/18/2018,10/18/2018 20:57,16:57:10,2.0.10.248,3,2,1,3,,,,,,,,TrainingProc,BlockList,30,2,Distractor2.bmp,2,0,,0,1,371874,500,,0,0,red,500,2,500,1,horizontal,red,Distractor2.bmp,purple,Distractor1.bmp,cyan,Distractor2.bmp,yellow,Distractor1.bmp,lime,Target2.bmp,blue,Distractor2.bmp,,,,TrialProc,,TrainingTrialList,0,2,-999999,0,372374,0,1,426,372800,Target2.bmp,lime,2,,,,5,4,78
KW_Experiment5A,36,1,"<?xml version=""1.0""?>\n<Clock xmlns:dt=""urn:schemas-microsoft-com:datatypes""><Description dt:dt=""string"">E-Prime Primary Realtime Clock</Description><StartTime><Timestamp dt:dt=""int"">0</Timestamp><DateUtc dt:dt=""string"">2018-10-18T20:57:10Z</DateUtc></StartTime><FrequencyChanges><FrequencyChange><Frequency dt:dt=""r8"">3215292</Frequency><Timestamp dt:dt=""r8"">6171523856253</Timestamp><Current dt:dt=""r8"">0</Current><DateUtc dt:dt=""string"">2018-10-18T20:57:10Z</DateUtc></FrequencyChange></FrequencyChanges></Clock>\n",KW_Experiment5A-36-1,59.946,1.0.0.105,1,-343524022,Professional,2.0.10.353,2.0.10.353,10/18/2018,10/18/2018 20:57,16:57:10,2.0.10.248,3,2,1,3,,,,,,,,TrainingProc,BlockList,31,1,Distractor1.bmp,1,0,,0,1,373826,500,,0,0,red,500,2,500,1,vertical,red,Distractor1.bmp,cyan,Distractor1.bmp,purple,Distractor2.bmp,yellow,Distractor2.bmp,blue,Distractor2.bmp,lime,Target1.bmp,,,,TrialProc,,TrainingTrialList,1,1,-999999,0,374326,0,1,666,374992,Target1.bmp,lime,1,,,,6,4,79
KW_Experiment5A,36,1,"<?xml version=""1.0""?>\n<Clock xmlns:dt=""urn:schemas-microsoft-com:datatypes""><Description dt:dt=""string"">E-Prime Primary Realtime Clock</Description><StartTime><Timestamp dt:dt=""int"">0</Timestamp><DateUtc dt:dt=""string"">2018-10-18T20:57:10Z</DateUtc></StartTime><FrequencyChanges><FrequencyChange><Frequency dt:dt=""r8"">3215292</Frequency><Timestamp dt:dt=""r8"">6171523856253</Timestamp><Current dt:dt=""r8"">0</Current><DateUtc dt:dt=""string"">2018-10-18T20:57:10Z</DateUtc></FrequencyChange></FrequencyChanges></Clock>\n",KW_Experiment5A-36-1,59.946,1.0.0.105,1,-343524022,Professional,2.0.10.353,2.0.10.353,10/18/2018,10/18/2018 20:57,16:57:10,2.0.10.248,3,2,1,3,,,,,,,,TrainingProc,BlockList,32,1,Distractor2.bmp,2,0,,0,1,376011,500,,0,0,purple,500,2,500,,vertical,purple,Distractor2.bmp,blue,Distractor1.bmp,lime,Distractor1.bmp,yellow,Distractor2.bmp,cyan,Distractor2.bmp,red,Target1.bmp,,,,TrialProc,5,TrainingTrialList,1,1,-999999,0,376511,0,1,681,377192,Target1.bmp,red,1,,,,12,4,80
KW_Experiment5A,36,1,"<?xml version=""1.0""?>\n<Clock xmlns:dt=""urn:schemas-microsoft-com:datatypes""><Description dt:dt=""string"">E-Prime Primary Realtime Clock</Description><StartTime><Timestamp dt:dt=""int"">0</Timestamp><DateUtc dt:dt=""string"">2018-10-18T20:57:10Z</DateUtc></StartTime><FrequencyChanges><FrequencyChange><Frequency dt:dt=""r8"">3215292</Frequency><Timestamp dt:dt=""r8"">6171523856253</Timestamp><Current dt:dt=""r8"">0</Current><DateUtc dt:dt=""string"">2018-10-18T20:57:10Z</DateUtc></FrequencyChange></FrequencyChanges></Clock>\n",KW_Experiment5A-36-1,59.946,1.0.0.105,1,-343524022,Professional,2.0.10.353,2.0.10.353,10/18/2018,10/18/2018 20:57,16:57:10,2.0.10.248,3,2,1,3,,,,,,,,TrainingProc,BlockList,33,1,Distractor2.bmp,2,0,,0,1,378213,400,,0,0,purple,400,1,400,5,vertical,lime,Target1.bmp,purple,Distractor2.bmp,red,Distractor1.bmp,cyan,Distractor1.bmp,yellow,Distractor2.bmp,blue,Distractor1.bmp,,,,TrialProc,,TrainingTrialList,1,1,-999999,0,378613,0,1,883,379496,Target1.bmp,lime,1,,,,1,4,81
KW_Experiment5A,36,1,"<?xml version=""1.0""?>\n<Clock xmlns:dt=""urn:schemas-microsoft-com:datatypes""><Description dt:dt=""string"">E-Prime Primary Realtime Clock</Description><StartTime><Timestamp dt:dt=""int"">0</Timestamp><DateUtc dt:dt=""string"">2018-10-18T20:57:10Z</DateUtc></StartTime><FrequencyChanges><FrequencyChange><Frequency dt:dt=""r8"">3215292</Frequency><Timestamp dt:dt=""r8"">6171523856253</Timestamp><Current dt:dt=""r8"">0</Current><DateUtc dt:dt=""string"">2018-10-18T20:57:10Z</DateUtc></FrequencyChange></FrequencyChanges></Clock>\n",KW_Experiment5A-36-1,59.946,1.0.0.105,1,-343524022,Professional,2.0.10.353,2.0.10.353,10/18/2018,10/18/2018 20:57,16:57:10,2.0.10.248,3,2,1,3,,,,,,,,TrainingProc,BlockList,34,1,Distractor1.bmp,1,0,,0,1,380515,601,,0,0,purple,600,3,600,5,vertical,purple,Distractor1.bmp,red,Distractor1.bmp,cyan,Distractor1.bmp,blue,Distractor1.bmp,lime,Target1.bmp,yellow,Distractor1.bmp,,,,TrialProc,,TrainingTrialList,1,1,-999999,1,381116,0,1,644,381760,Target1.bmp,lime,1,,,,5,4,82
KW_Experiment5A,36,1,"<?xml version=""1.0""?>\n<Clock xmlns:dt=""urn:schemas-microsoft-com:datatypes""><Description dt:dt=""string"">E-Prime Primary Realtime Clock</Description><StartTime><Timestamp dt:dt=""int"">0</Timestamp><DateUtc dt:dt=""string"">2018-10-18T20:57:10Z</DateUtc></StartTime><FrequencyChanges><FrequencyChange><Frequency dt:dt=""r8"">3215292</Frequency><Timestamp dt:dt=""r8"">6171523856253</Timestamp><Current dt:dt=""r8"">0</Current><DateUtc dt:dt=""string"">2018-10-18T20:57:10Z</DateUtc></FrequencyChange></FrequencyChanges></Clock>\n",KW_Experiment5A-36-1,59.946,1.0.0.105,1,-343524022,Professional,2.0.10.353,2.0.10.353,10/18/2018,10/18/2018 20:57,16:57:10,2.0.10.248,3,2,1,3,,,,,,,,TrainingProc,BlockList,35,1,Distractor2.bmp,2,0,,0,1,382784,500,,0,0,red,500,2,500,1,vertical,red,Distractor1.bmp,cyan,Distractor1.bmp,lime,Target1.bmp,blue,Distractor2.bmp,purple,Distractor1.bmp,yellow,Distractor2.bmp,,,,TrialProc,,TrainingTrialList,1,1,-999999,0,383284,0,1,484,383768,Target1.bmp,lime,1,,,,3,4,83
KW_Experiment5A,36,1,"<?xml version=""1.0""?>\n<Clock xmlns:dt=""urn:schemas-microsoft-com:datatypes""><Description dt:dt=""string"">E-Prime Primary Realtime Clock</Description><StartTime><Timestamp dt:dt=""int"">0</Timestamp><DateUtc dt:dt=""string"">2018-10-18T20:57:10Z</DateUtc></StartTime><FrequencyChanges><FrequencyChange><Frequency dt:dt=""r8"">3215292</Frequency><Timestamp dt:dt=""r8"">6171523856253</Timestamp><Current dt:dt=""r8"">0</Current><DateUtc dt:dt=""string"">2018-10-18T20:57:10Z</DateUtc></FrequencyChange></FrequencyChanges></Clock>\n",KW_Experiment5A-36-1,59.946,1.0.0.105,1,-343524022,Professional,2.0.10.353,2.0.10.353,10/18/2018,10/18/2018 20:57,16:57:10,2.0.10.248,3,2,1,3,,,,,,,,TrainingProc,BlockList,36,2,Distractor2.bmp,2,0,,0,1,384786,500,,0,0,yellow,500,2,500,2,horizontal,yellow,Distractor2.bmp,blue,Distractor1.bmp,cyan,Distractor2.bmp,red,Distractor2.bmp,purple,Distractor1.bmp,lime,Target2.bmp,,,,TrialProc,,TrainingTrialList,1,2,-999999,0,385286,0,2,618,385904,Target2.bmp,lime,2,,,,6,4,84
KW_Experiment5A,36,1,"<?xml version=""1.0""?>\n<Clock xmlns:dt=""urn:schemas-microsoft-com:datatypes""><Description dt:dt=""string"">E-Prime Primary Realtime Clock</Description><StartTime><Timestamp dt:dt=""int"">0</Timestamp><DateUtc dt:dt=""string"">2018-10-18T20:57:10Z</DateUtc></StartTime><FrequencyChanges><FrequencyChange><Frequency dt:dt=""r8"">3215292</Frequency><Timestamp dt:dt=""r8"">6171523856253</Timestamp><Current dt:dt=""r8"">0</Current><DateUtc dt:dt=""string"">2018-10-18T20:57:10Z</DateUtc></FrequencyChange></FrequencyChanges></Clock>\n",KW_Experiment5A-36-1,59.946,1.0.0.105,1,-343524022,Professional,2.0.10.353,2.0.10.353,10/18/2018,10/18/2018 20:57,16:57:10,2.0.10.248,3,2,1,3,,,,,,,,TrainingProc,BlockList,37,1,Distractor2.bmp,2,0,,0,1,386921,600,,0,0,yellow,600,3,600,2,vertical,yellow,Distractor2.bmp,lime,Target1.bmp,red,Distractor2.bmp,blue,Distractor2.bmp,cyan,Distractor2.bmp,purple,Distractor1.bmp,,,,TrialProc,,TrainingTrialList,1,1,-999999,0,387521,0,1,799,388320,Target1.bmp,lime,1,,,,2,4,85
KW_Experiment5A,36,1,"<?xml version=""1.0""?>\n<Clock xmlns:dt=""urn:schemas-microsoft-com:datatypes""><Description dt:dt=""string"">E-Prime Primary Realtime Clock</Description><StartTime><Timestamp dt:dt=""int"">0</Timestamp><DateUtc dt:dt=""string"">2018-10-18T20:57:10Z</DateUtc></StartTime><FrequencyChanges><FrequencyChange><Frequency dt:dt=""r8"">3215292</Frequency><Timestamp dt:dt=""r8"">6171523856253</Timestamp><Current dt:dt=""r8"">0</Current><DateUtc dt:dt=""string"">2018-10-18T20:57:10Z</DateUtc></FrequencyChange></FrequencyChanges></Clock>\n",KW_Experiment5A-36-1,59.946,1.0.0.105,1,-343524022,Professional,2.0.10.353,2.0.10.353,10/18/2018,10/18/2018 20:57,16:57:10,2.0.10.248,3,2,1,3,,,,,,,,TrainingProc,BlockList,38,1,Distractor1.bmp,1,0,,0,1,389340,600,,0,0,purple,600,3,600,5,vertical,purple,Distractor2.bmp,blue,Distractor1.bmp,lime,Target1.bmp,yellow,Distractor1.bmp,red,Distractor1.bmp,cyan,Distractor1.bmp,,,,TrialProc,,TrainingTrialList,1,1,-999999,0,389940,0,1,580,390520,Target1.bmp,lime,1,,,,3,4,86
KW_Experiment5A,36,1,"<?xml version=""1.0""?>\n<Clock xmlns:dt=""urn:schemas-microsoft-com:datatypes""><Description dt:dt=""string"">E-Prime Primary Realtime Clock</Description><StartTime><Timestamp dt:dt=""int"">0</Timestamp><DateUtc dt:dt=""string"">2018-10-18T20:57:10Z</DateUtc></StartTime><FrequencyChanges><FrequencyChange><Frequency dt:dt=""r8"">3215292</Frequency><Timestamp dt:dt=""r8"">6171523856253</Timestamp><Current dt:dt=""r8"">0</Current><DateUtc dt:dt=""string"">2018-10-18T20:57:10Z</DateUtc></FrequencyChange></FrequencyChanges></Clock>\n",KW_Experiment5A-36-1,59.946,1.0.0.105,1,-343524022,Professional,2.0.10.353,2.0.10.353,10/18/2018,10/18/2018 20:57,16:57:10,2.0.10.248,3,2,1,3,,,,,,,,TrainingProc,BlockList,39,1,Distractor2.bmp,2,0,,0,1,391542,400,,0,0,red,400,1,400,1,vertical,red,Distractor1.bmp,lime,Target1.bmp,yellow,Distractor2.bmp,blue,Distractor2.bmp,cyan,Distractor2.bmp,purple,Distractor2.bmp,,,,TrialProc,,TrainingTrialList,1,1,-999999,0,391942,0,1,482,392424,Target1.bmp,lime,1,,,,2,4,87
KW_Experiment5A,36,1,"<?xml version=""1.0""?>\n<Clock xmlns:dt=""urn:schemas-microsoft-com:datatypes""><Description dt:dt=""string"">E-Prime Primary Realtime Clock</Description><StartTime><Timestamp dt:dt=""int"">0</Timestamp><DateUtc dt:dt=""string"">2018-10-18T20:57:10Z</DateUtc></StartTime><FrequencyChanges><FrequencyChange><Frequency dt:dt=""r8"">3215292</Frequency><Timestamp dt:dt=""r8"">6171523856253</Timestamp><Current dt:dt=""r8"">0</Current><DateUtc dt:dt=""string"">2018-10-18T20:57:10Z</DateUtc></FrequencyChange></FrequencyChanges></Clock>\n",KW_Experiment5A-36-1,59.946,1.0.0.105,1,-343524022,Professional,2.0.10.353,2.0.10.353,10/18/2018,10/18/2018 20:57,16:57:10,2.0.10.248,3,2,1,3,,,,,,,,TrainingProc,BlockList,40,1,Distractor2.bmp,2,0,,1,0,393443,601,,0,0,cyan,600,3,600,4,vertical,cyan,Distractor2.bmp,lime,Target1.bmp,purple,Distractor2.bmp,red,Distractor2.bmp,blue,Distractor1.bmp,yellow,Distractor1.bmp,,,,TrialProc,,TrainingTrialList,1,1,-999999,1,394044,0,1,500,394544,Target1.bmp,lime,1,,,,2,4,88
KW_Experiment5A,36,1,"<?xml version=""1.0""?>\n<Clock xmlns:dt=""urn:schemas-microsoft-com:datatypes""><Description dt:dt=""string"">E-Prime Primary Realtime Clock</Description><StartTime><Timestamp dt:dt=""int"">0</Timestamp><DateUtc dt:dt=""string"">2018-10-18T20:57:10Z</DateUtc></StartTime><FrequencyChanges><FrequencyChange><Frequency dt:dt=""r8"">3215292</Frequency><Timestamp dt:dt=""r8"">6171523856253</Timestamp><Current dt:dt=""r8"">0</Current><DateUtc dt:dt=""string"">2018-10-18T20:57:10Z</DateUtc></FrequencyChange></FrequencyChanges></Clock>\n",KW_Experiment5A-36-1,59.946,1.0.0.105,1,-343524022,Professional,2.0.10.353,2.0.10.353,10/18/2018,10/18/2018 20:57,16:57:10,2.0.10.248,3,2,1,3,,,,,,,,TrainingProc,BlockList,41,1,Distractor2.bmp,2,0,,0,1,395562,601,,0,0,lime,600,3,600,,vertical,lime,Distractor2.bmp,blue,Distractor1.bmp,red,Target1.bmp,yellow,Distractor2.bmp,purple,Distractor2.bmp,cyan,Distractor2.bmp,,,,TrialProc,6,TrainingTrialList,0,1,-999999,1,396163,0,2,749,396912,Target1.bmp,red,1,,,,9,4,89
KW_Experiment5A,36,1,"<?xml version=""1.0""?>\n<Clock xmlns:dt=""urn:schemas-microsoft-com:datatypes""><Description dt:dt=""string"">E-Prime Primary Realtime Clock</Description><StartTime><Timestamp dt:dt=""int"">0</Timestamp><DateUtc dt:dt=""string"">2018-10-18T20:57:10Z</DateUtc></StartTime><FrequencyChanges><FrequencyChange><Frequency dt:dt=""r8"">3215292</Frequency><Timestamp dt:dt=""r8"">6171523856253</Timestamp><Current dt:dt=""r8"">0</Current><DateUtc dt:dt=""string"">2018-10-18T20:57:10Z</DateUtc></FrequencyChange></FrequencyChanges></Clock>\n",KW_Experiment5A-36-1,59.946,1.0.0.105,1,-343524022,Professional,2.0.10.353,2.0.10.353,10/18/2018,10/18/2018 20:57,16:57:10,2.0.10.248,3,2,1,3,,,,,,,,TrainingProc,BlockList,42,2,Distractor1.bmp,1,0,,0,1,397931,600,,0,0,yellow,600,3,600,2,horizontal,yellow,Distractor2.bmp,red,Distractor1.bmp,cyan,Distractor2.bmp,lime,Target2.bmp,blue,Distractor1.bmp,purple,Distractor2.bmp,,,,TrialProc,,TrainingTrialList,1,2,-999999,0,398531,0,2,700,399231,Target2.bmp,lime,2,,,,4,4,90
