ExperimentName,Subject,Session,Clock.Information,DataFile.Basename,Display.RefreshRate,ExperimentVersion,Group,RandomSeed,RuntimeCapabilities,RuntimeVersion,RuntimeVersionExpected,SessionDate,SessionStartDateTimeUtc,SessionTime,StudioVersion,Block,BlockList,BlockList.Cycle,BlockList.Sample,PostTestQ1.RESP,PostTestQ1CJ.RESP,PostTestQ2.RESP,PostTestQ2CJ.RESP,PostTestQ3.RESP,PostTestQ3CJ.RESP,PostTestSlide.RESP,Procedure[Block],Running[Block],Trial,CorrectResponse,Distractor,DistractorList,Fixation.ACC,Fixation.CRESP,Fixation.DurationError,Fixation.OnsetDelay,Fixation.OnsetTime,Fixation.OnsetToOnsetTime,Fixation.RESP,Fixation.RT,Fixation.RTTime,ItemColor,Jitter,JitterList,JitterTime,Lime0List,Orientation,Pos1Color,Pos1Item,Pos2Color,Pos2Item,Pos3Color,Pos3Item,Pos4Color,Pos4Item,Pos5Color,Pos5Item,Pos6Color,Pos6Item,PracticeTrialList,PracticeTrialList.Cycle,PracticeTrialList.Sample,Procedure[Trial],Red0List,Running[Trial],Stimulus.ACC,Stimulus.CRESP,Stimulus.DurationError,Stimulus.OnsetDelay,Stimulus.OnsetTime,Stimulus.OnsetToOnsetTime,Stimulus.RESP,Stimulus.RT,Stimulus.RTTime,Target,TargetColor,TargetList,TestTrialList,TestTrialList.Cycle,TestTrialList.Sample,TrainingTrialList,TrainingTrialList.Cycle,TrainingTrialList.Sample
KW_Experiment5A,8,1,"<?xml version=""1.0""?>\n<Clock xmlns:dt=""urn:schemas-microsoft-com:datatypes""><Description dt:dt=""string"">E-Prime Primary Realtime Clock</Description><StartTime><Timestamp dt:dt=""int"">0</Timestamp><DateUtc dt:dt=""string"">2018-10-10T16:37:12Z</DateUtc></StartTime><FrequencyChanges><FrequencyChange><Frequency dt:dt=""r8"">3215244</Frequency><Timestamp dt:dt=""r8"">5182461942882</Timestamp><Current dt:dt=""r8"">0</Current><DateUtc dt:dt=""string"">2018-10-10T16:37:12Z</DateUtc></FrequencyChange></FrequencyChanges></Clock>\n",KW_Experiment5A-8-1,59.945,1.0.0.105,2,-1562958759,Professional,2.0.10.353,2.0.10.353,10/10/2018,10/10/2018 16:37,12:37:12,2.0.10.248,1,1,1,1,,,,,,,,PracticeProc,BlockList,1,1,Distractor2.bmp,2,0,,0,45,29227,601,,0,0,lime,600,3,600,,vertical,lime,Distractor1.bmp,red,Target1.bmp,yellow,Distractor2.bmp,cyan,Distractor1.bmp,blue,Distractor2.bmp,purple,Distractor2.bmp,2,1,1,TrialProc,6,PracticeTrialList,1,1,-999999,1,29828,0,1,1298,31126,Target1.bmp,red,1,,,,,,
KW_Experiment5A,8,1,"<?xml version=""1.0""?>\n<Clock xmlns:dt=""urn:schemas-microsoft-com:datatypes""><Description dt:dt=""string"">E-Prime Primary Realtime Clock</Description><StartTime><Timestamp dt:dt=""int"">0</Timestamp><DateUtc dt:dt=""string"">2018-10-10T16:37:12Z</DateUtc></StartTime><FrequencyChanges><FrequencyChange><Frequency dt:dt=""r8"">3215244</Frequency><Timestamp dt:dt=""r8"">5182461942882</Timestamp><Current dt:dt=""r8"">0</Current><DateUtc dt:dt=""string"">2018-10-10T16:37:12Z</DateUtc></FrequencyChange></FrequencyChanges></Clock>\n",KW_Experiment5A-8-1,59.945,1.0.0.105,2,-1562958759,Professional,2.0.10.353,2.0.10.353,10/10/2018,10/10/2018 16:37,12:37:12,2.0.10.248,1,1,1,1,,,,,,,,PracticeProc,BlockList,2,1,Distractor1.bmp,1,0,,0,1,32147,500,,0,0,yellow,500,2,500,2,vertical,cyan,Distractor2.bmp,red,Distractor2.bmp,purple,Distractor2.bmp,yellow,Distractor1.bmp,lime,Target1.bmp,blue,Distractor1.bmp,5,1,2,TrialProc,,PracticeTrialList,1,1,-999999,0,32647,0,1,2303,34950,Target1.bmp,lime,1,,,,,,
KW_Experiment5A,8,1,"<?xml version=""1.0""?>\n<Clock xmlns:dt=""urn:schemas-microsoft-com:datatypes""><Description dt:dt=""string"">E-Prime Primary Realtime Clock</Description><StartTime><Timestamp dt:dt=""int"">0</Timestamp><DateUtc dt:dt=""string"">2018-10-10T16:37:12Z</DateUtc></StartTime><FrequencyChanges><FrequencyChange><Frequency dt:dt=""r8"">3215244</Frequency><Timestamp dt:dt=""r8"">5182461942882</Timestamp><Current dt:dt=""r8"">0</Current><DateUtc dt:dt=""string"">2018-10-10T16:37:12Z</DateUtc></FrequencyChange></FrequencyChanges></Clock>\n",KW_Experiment5A-8-1,59.945,1.0.0.105,2,-1562958759,Professional,2.0.10.353,2.0.10.353,10/10/2018,10/10/2018 16:37,12:37:12,2.0.10.248,1,1,1,1,,,,,,,,PracticeProc,BlockList,3,1,Distractor1.bmp,1,0,,0,1,35967,400,,0,0,cyan,400,1,400,,vertical,yellow,Distractor1.bmp,lime,Distractor2.bmp,cyan,Distractor2.bmp,red,Target1.bmp,purple,Distractor1.bmp,blue,Distractor1.bmp,4,1,3,TrialProc,4,PracticeTrialList,1,1,-999999,0,36367,0,1,1063,37430,Target1.bmp,red,1,,,,,,
KW_Experiment5A,8,1,"<?xml version=""1.0""?>\n<Clock xmlns:dt=""urn:schemas-microsoft-com:datatypes""><Description dt:dt=""string"">E-Prime Primary Realtime Clock</Description><StartTime><Timestamp dt:dt=""int"">0</Timestamp><DateUtc dt:dt=""string"">2018-10-10T16:37:12Z</DateUtc></StartTime><FrequencyChanges><FrequencyChange><Frequency dt:dt=""r8"">3215244</Frequency><Timestamp dt:dt=""r8"">5182461942882</Timestamp><Current dt:dt=""r8"">0</Current><DateUtc dt:dt=""string"">2018-10-10T16:37:12Z</DateUtc></FrequencyChange></FrequencyChanges></Clock>\n",KW_Experiment5A-8-1,59.945,1.0.0.105,2,-1562958759,Professional,2.0.10.353,2.0.10.353,10/10/2018,10/10/2018 16:37,12:37:12,2.0.10.248,1,1,1,1,,,,,,,,PracticeProc,BlockList,4,1,Distractor1.bmp,1,0,,1,0,38452,601,,0,0,purple,600,3,600,,vertical,blue,Distractor1.bmp,yellow,Distractor1.bmp,lime,Distractor2.bmp,cyan,Distractor1.bmp,purple,Distractor2.bmp,red,Target1.bmp,6,1,4,TrialProc,5,PracticeTrialList,1,1,-999999,1,39053,0,1,1257,40310,Target1.bmp,red,1,,,,,,
KW_Experiment5A,8,1,"<?xml version=""1.0""?>\n<Clock xmlns:dt=""urn:schemas-microsoft-com:datatypes""><Description dt:dt=""string"">E-Prime Primary Realtime Clock</Description><StartTime><Timestamp dt:dt=""int"">0</Timestamp><DateUtc dt:dt=""string"">2018-10-10T16:37:12Z</DateUtc></StartTime><FrequencyChanges><FrequencyChange><Frequency dt:dt=""r8"">3215244</Frequency><Timestamp dt:dt=""r8"">5182461942882</Timestamp><Current dt:dt=""r8"">0</Current><DateUtc dt:dt=""string"">2018-10-10T16:37:12Z</DateUtc></FrequencyChange></FrequencyChanges></Clock>\n",KW_Experiment5A-8-1,59.945,1.0.0.105,2,-1562958759,Professional,2.0.10.353,2.0.10.353,10/10/2018,10/10/2018 16:37,12:37:12,2.0.10.248,1,1,1,1,,,,,,,,PracticeProc,BlockList,5,1,Distractor2.bmp,2,0,,0,1,41322,600,,0,0,blue,600,3,600,3,vertical,lime,Target1.bmp,yellow,Distractor2.bmp,red,Distractor1.bmp,cyan,Distractor2.bmp,purple,Distractor2.bmp,blue,Distractor2.bmp,1,1,5,TrialProc,,PracticeTrialList,1,1,-999999,0,41922,0,1,1092,43014,Target1.bmp,lime,1,,,,,,
KW_Experiment5A,8,1,"<?xml version=""1.0""?>\n<Clock xmlns:dt=""urn:schemas-microsoft-com:datatypes""><Description dt:dt=""string"">E-Prime Primary Realtime Clock</Description><StartTime><Timestamp dt:dt=""int"">0</Timestamp><DateUtc dt:dt=""string"">2018-10-10T16:37:12Z</DateUtc></StartTime><FrequencyChanges><FrequencyChange><Frequency dt:dt=""r8"">3215244</Frequency><Timestamp dt:dt=""r8"">5182461942882</Timestamp><Current dt:dt=""r8"">0</Current><DateUtc dt:dt=""string"">2018-10-10T16:37:12Z</DateUtc></FrequencyChange></FrequencyChanges></Clock>\n",KW_Experiment5A-8-1,59.945,1.0.0.105,2,-1562958759,Professional,2.0.10.353,2.0.10.353,10/10/2018,10/10/2018 16:37,12:37:12,2.0.10.248,1,1,1,1,,,,,,,,PracticeProc,BlockList,6,2,Distractor1.bmp,1,0,,0,1,44041,400,,0,0,purple,400,1,400,5,horizontal,cyan,Distractor2.bmp,purple,Distractor2.bmp,lime,Target2.bmp,red,Distractor1.bmp,yellow,Distractor1.bmp,blue,Distractor1.bmp,3,1,6,TrialProc,,PracticeTrialList,1,2,-999999,0,44441,0,2,741,45182,Target2.bmp,lime,2,,,,,,
KW_Experiment5A,8,1,"<?xml version=""1.0""?>\n<Clock xmlns:dt=""urn:schemas-microsoft-com:datatypes""><Description dt:dt=""string"">E-Prime Primary Realtime Clock</Description><StartTime><Timestamp dt:dt=""int"">0</Timestamp><DateUtc dt:dt=""string"">2018-10-10T16:37:12Z</DateUtc></StartTime><FrequencyChanges><FrequencyChange><Frequency dt:dt=""r8"">3215244</Frequency><Timestamp dt:dt=""r8"">5182461942882</Timestamp><Current dt:dt=""r8"">0</Current><DateUtc dt:dt=""string"">2018-10-10T16:37:12Z</DateUtc></FrequencyChange></FrequencyChanges></Clock>\n",KW_Experiment5A-8-1,59.945,1.0.0.105,2,-1562958759,Professional,2.0.10.353,2.0.10.353,10/10/2018,10/10/2018 16:37,12:37:12,2.0.10.248,2,2,1,2,,,,,,,,TrainingProc,BlockList,1,2,Distractor1.bmp,1,0,,0,22,50564,600,,0,0,lime,600,3,600,,horizontal,lime,Distractor2.bmp,yellow,Distractor1.bmp,red,Target2.bmp,cyan,Distractor1.bmp,blue,Distractor2.bmp,purple,Distractor1.bmp,,,,TrialProc,6,TrainingTrialList,1,2,-999999,0,51164,0,2,746,51910,Target2.bmp,red,2,,,,9,2,1
KW_Experiment5A,8,1,"<?xml version=""1.0""?>\n<Clock xmlns:dt=""urn:schemas-microsoft-com:datatypes""><Description dt:dt=""string"">E-Prime Primary Realtime Clock</Description><StartTime><Timestamp dt:dt=""int"">0</Timestamp><DateUtc dt:dt=""string"">2018-10-10T16:37:12Z</DateUtc></StartTime><FrequencyChanges><FrequencyChange><Frequency dt:dt=""r8"">3215244</Frequency><Timestamp dt:dt=""r8"">5182461942882</Timestamp><Current dt:dt=""r8"">0</Current><DateUtc dt:dt=""string"">2018-10-10T16:37:12Z</DateUtc></FrequencyChange></FrequencyChanges></Clock>\n",KW_Experiment5A-8-1,59.945,1.0.0.105,2,-1562958759,Professional,2.0.10.353,2.0.10.353,10/10/2018,10/10/2018 16:37,12:37:12,2.0.10.248,2,2,1,2,,,,,,,,TrainingProc,BlockList,2,2,Distractor2.bmp,2,0,,0,1,52933,500,,0,0,cyan,500,2,500,,horizontal,cyan,Distractor1.bmp,lime,Distractor1.bmp,purple,Distractor1.bmp,red,Target2.bmp,yellow,Distractor2.bmp,blue,Distractor1.bmp,,,,TrialProc,4,TrainingTrialList,1,2,-999999,0,53433,0,2,1013,54446,Target2.bmp,red,2,,,,10,2,2
KW_Experiment5A,8,1,"<?xml version=""1.0""?>\n<Clock xmlns:dt=""urn:schemas-microsoft-com:datatypes""><Description dt:dt=""string"">E-Prime Primary Realtime Clock</Description><StartTime><Timestamp dt:dt=""int"">0</Timestamp><DateUtc dt:dt=""string"">2018-10-10T16:37:12Z</DateUtc></StartTime><FrequencyChanges><FrequencyChange><Frequency dt:dt=""r8"">3215244</Frequency><Timestamp dt:dt=""r8"">5182461942882</Timestamp><Current dt:dt=""r8"">0</Current><DateUtc dt:dt=""string"">2018-10-10T16:37:12Z</DateUtc></FrequencyChange></FrequencyChanges></Clock>\n",KW_Experiment5A-8-1,59.945,1.0.0.105,2,-1562958759,Professional,2.0.10.353,2.0.10.353,10/10/2018,10/10/2018 16:37,12:37:12,2.0.10.248,2,2,1,2,,,,,,,,TrainingProc,BlockList,3,2,Distractor2.bmp,2,0,,0,1,55468,601,,0,0,yellow,600,3,600,,horizontal,yellow,Distractor1.bmp,purple,Distractor1.bmp,blue,Distractor2.bmp,red,Target2.bmp,cyan,Distractor2.bmp,lime,Distractor2.bmp,,,,TrialProc,2,TrainingTrialList,1,2,-999999,1,56069,0,2,913,56982,Target2.bmp,red,2,,,,10,2,3
KW_Experiment5A,8,1,"<?xml version=""1.0""?>\n<Clock xmlns:dt=""urn:schemas-microsoft-com:datatypes""><Description dt:dt=""string"">E-Prime Primary Realtime Clock</Description><StartTime><Timestamp dt:dt=""int"">0</Timestamp><DateUtc dt:dt=""string"">2018-10-10T16:37:12Z</DateUtc></StartTime><FrequencyChanges><FrequencyChange><Frequency dt:dt=""r8"">3215244</Frequency><Timestamp dt:dt=""r8"">5182461942882</Timestamp><Current dt:dt=""r8"">0</Current><DateUtc dt:dt=""string"">2018-10-10T16:37:12Z</DateUtc></FrequencyChange></FrequencyChanges></Clock>\n",KW_Experiment5A-8-1,59.945,1.0.0.105,2,-1562958759,Professional,2.0.10.353,2.0.10.353,10/10/2018,10/10/2018 16:37,12:37:12,2.0.10.248,2,2,1,2,,,,,,,,TrainingProc,BlockList,4,2,Distractor1.bmp,1,0,,0,1,58004,400,,0,0,yellow,400,1,400,,horizontal,red,Target2.bmp,blue,Distractor1.bmp,purple,Distractor1.bmp,lime,Distractor1.bmp,cyan,Distractor2.bmp,yellow,Distractor2.bmp,,,,TrialProc,2,TrainingTrialList,1,2,-999999,0,58404,0,2,994,59398,Target2.bmp,red,2,,,,7,2,4
KW_Experiment5A,8,1,"<?xml version=""1.0""?>\n<Clock xmlns:dt=""urn:schemas-microsoft-com:datatypes""><Description dt:dt=""string"">E-Prime Primary Realtime Clock</Description><StartTime><Timestamp dt:dt=""int"">0</Timestamp><DateUtc dt:dt=""string"">2018-10-10T16:37:12Z</DateUtc></StartTime><FrequencyChanges><FrequencyChange><Frequency dt:dt=""r8"">3215244</Frequency><Timestamp dt:dt=""r8"">5182461942882</Timestamp><Current dt:dt=""r8"">0</Current><DateUtc dt:dt=""string"">2018-10-10T16:37:12Z</DateUtc></FrequencyChange></FrequencyChanges></Clock>\n",KW_Experiment5A-8-1,59.945,1.0.0.105,2,-1562958759,Professional,2.0.10.353,2.0.10.353,10/10/2018,10/10/2018 16:37,12:37:12,2.0.10.248,2,2,1,2,,,,,,,,TrainingProc,BlockList,5,2,Distractor1.bmp,1,0,,0,1,60423,400,,0,0,purple,400,1,400,,horizontal,purple,Distractor1.bmp,blue,Distractor1.bmp,lime,Distractor1.bmp,red,Target2.bmp,cyan,Distractor1.bmp,yellow,Distractor2.bmp,,,,TrialProc,5,TrainingTrialList,1,2,-999999,0,60823,0,2,759,61582,Target2.bmp,red,2,,,,10,2,5
KW_Experiment5A,8,1,"<?xml version=""1.0""?>\n<Clock xmlns:dt=""urn:schemas-microsoft-com:datatypes""><Description dt:dt=""string"">E-Prime Primary Realtime Clock</Description><StartTime><Timestamp dt:dt=""int"">0</Timestamp><DateUtc dt:dt=""string"">2018-10-10T16:37:12Z</DateUtc></StartTime><FrequencyChanges><FrequencyChange><Frequency dt:dt=""r8"">3215244</Frequency><Timestamp dt:dt=""r8"">5182461942882</Timestamp><Current dt:dt=""r8"">0</Current><DateUtc dt:dt=""string"">2018-10-10T16:37:12Z</DateUtc></FrequencyChange></FrequencyChanges></Clock>\n",KW_Experiment5A-8-1,59.945,1.0.0.105,2,-1562958759,Professional,2.0.10.353,2.0.10.353,10/10/2018,10/10/2018 16:37,12:37:12,2.0.10.248,2,2,1,2,,,,,,,,TrainingProc,BlockList,6,2,Distractor1.bmp,1,0,,1,0,62591,501,,0,0,lime,500,2,500,,horizontal,lime,Distractor2.bmp,cyan,Distractor1.bmp,yellow,Distractor2.bmp,purple,Distractor2.bmp,red,Target2.bmp,blue,Distractor1.bmp,,,,TrialProc,6,TrainingTrialList,1,2,-999999,1,63092,0,2,922,64014,Target2.bmp,red,2,,,,11,2,6
KW_Experiment5A,8,1,"<?xml version=""1.0""?>\n<Clock xmlns:dt=""urn:schemas-microsoft-com:datatypes""><Description dt:dt=""string"">E-Prime Primary Realtime Clock</Description><StartTime><Timestamp dt:dt=""int"">0</Timestamp><DateUtc dt:dt=""string"">2018-10-10T16:37:12Z</DateUtc></StartTime><FrequencyChanges><FrequencyChange><Frequency dt:dt=""r8"">3215244</Frequency><Timestamp dt:dt=""r8"">5182461942882</Timestamp><Current dt:dt=""r8"">0</Current><DateUtc dt:dt=""string"">2018-10-10T16:37:12Z</DateUtc></FrequencyChange></FrequencyChanges></Clock>\n",KW_Experiment5A-8-1,59.945,1.0.0.105,2,-1562958759,Professional,2.0.10.353,2.0.10.353,10/10/2018,10/10/2018 16:37,12:37:12,2.0.10.248,2,2,1,2,,,,,,,,TrainingProc,BlockList,7,2,Distractor1.bmp,1,0,,0,1,65027,501,,0,0,yellow,500,2,500,,horizontal,yellow,Distractor1.bmp,blue,Distractor2.bmp,cyan,Distractor2.bmp,lime,Distractor1.bmp,purple,Distractor2.bmp,red,Target2.bmp,,,,TrialProc,2,TrainingTrialList,1,2,-999999,1,65528,0,2,1118,66646,Target2.bmp,red,2,,,,12,2,7
KW_Experiment5A,8,1,"<?xml version=""1.0""?>\n<Clock xmlns:dt=""urn:schemas-microsoft-com:datatypes""><Description dt:dt=""string"">E-Prime Primary Realtime Clock</Description><StartTime><Timestamp dt:dt=""int"">0</Timestamp><DateUtc dt:dt=""string"">2018-10-10T16:37:12Z</DateUtc></StartTime><FrequencyChanges><FrequencyChange><Frequency dt:dt=""r8"">3215244</Frequency><Timestamp dt:dt=""r8"">5182461942882</Timestamp><Current dt:dt=""r8"">0</Current><DateUtc dt:dt=""string"">2018-10-10T16:37:12Z</DateUtc></FrequencyChange></FrequencyChanges></Clock>\n",KW_Experiment5A-8-1,59.945,1.0.0.105,2,-1562958759,Professional,2.0.10.353,2.0.10.353,10/10/2018,10/10/2018 16:37,12:37:12,2.0.10.248,2,2,1,2,,,,,,,,TrainingProc,BlockList,8,1,Distractor1.bmp,1,0,,0,1,67663,400,,0,0,blue,400,1,400,,vertical,blue,Distractor1.bmp,yellow,Distractor1.bmp,purple,Distractor1.bmp,cyan,Distractor2.bmp,lime,Distractor1.bmp,red,Target1.bmp,,,,TrialProc,3,TrainingTrialList,1,1,-999999,0,68063,0,1,575,68638,Target1.bmp,red,1,,,,12,2,8
KW_Experiment5A,8,1,"<?xml version=""1.0""?>\n<Clock xmlns:dt=""urn:schemas-microsoft-com:datatypes""><Description dt:dt=""string"">E-Prime Primary Realtime Clock</Description><StartTime><Timestamp dt:dt=""int"">0</Timestamp><DateUtc dt:dt=""string"">2018-10-10T16:37:12Z</DateUtc></StartTime><FrequencyChanges><FrequencyChange><Frequency dt:dt=""r8"">3215244</Frequency><Timestamp dt:dt=""r8"">5182461942882</Timestamp><Current dt:dt=""r8"">0</Current><DateUtc dt:dt=""string"">2018-10-10T16:37:12Z</DateUtc></FrequencyChange></FrequencyChanges></Clock>\n",KW_Experiment5A-8-1,59.945,1.0.0.105,2,-1562958759,Professional,2.0.10.353,2.0.10.353,10/10/2018,10/10/2018 16:37,12:37:12,2.0.10.248,2,2,1,2,,,,,,,,TrainingProc,BlockList,9,1,Distractor2.bmp,2,0,,0,1,69648,400,,0,0,blue,400,1,400,,vertical,blue,Distractor2.bmp,red,Target1.bmp,yellow,Distractor2.bmp,lime,Distractor2.bmp,purple,Distractor2.bmp,cyan,Distractor2.bmp,,,,TrialProc,3,TrainingTrialList,1,1,-999999,0,70048,0,1,750,70798,Target1.bmp,red,1,,,,8,2,9
KW_Experiment5A,8,1,"<?xml version=""1.0""?>\n<Clock xmlns:dt=""urn:schemas-microsoft-com:datatypes""><Description dt:dt=""string"">E-Prime Primary Realtime Clock</Description><StartTime><Timestamp dt:dt=""int"">0</Timestamp><DateUtc dt:dt=""string"">2018-10-10T16:37:12Z</DateUtc></StartTime><FrequencyChanges><FrequencyChange><Frequency dt:dt=""r8"">3215244</Frequency><Timestamp dt:dt=""r8"">5182461942882</Timestamp><Current dt:dt=""r8"">0</Current><DateUtc dt:dt=""string"">2018-10-10T16:37:12Z</DateUtc></FrequencyChange></FrequencyChanges></Clock>\n",KW_Experiment5A-8-1,59.945,1.0.0.105,2,-1562958759,Professional,2.0.10.353,2.0.10.353,10/10/2018,10/10/2018 16:37,12:37:12,2.0.10.248,2,2,1,2,,,,,,,,TrainingProc,BlockList,10,2,Distractor2.bmp,2,0,,0,1,71817,600,,0,0,yellow,600,3,600,,horizontal,yellow,Distractor2.bmp,blue,Distractor2.bmp,lime,Distractor1.bmp,cyan,Distractor2.bmp,purple,Distractor2.bmp,red,Target2.bmp,,,,TrialProc,2,TrainingTrialList,1,2,-999999,0,72417,0,2,525,72942,Target2.bmp,red,2,,,,12,2,10
KW_Experiment5A,8,1,"<?xml version=""1.0""?>\n<Clock xmlns:dt=""urn:schemas-microsoft-com:datatypes""><Description dt:dt=""string"">E-Prime Primary Realtime Clock</Description><StartTime><Timestamp dt:dt=""int"">0</Timestamp><DateUtc dt:dt=""string"">2018-10-10T16:37:12Z</DateUtc></StartTime><FrequencyChanges><FrequencyChange><Frequency dt:dt=""r8"">3215244</Frequency><Timestamp dt:dt=""r8"">5182461942882</Timestamp><Current dt:dt=""r8"">0</Current><DateUtc dt:dt=""string"">2018-10-10T16:37:12Z</DateUtc></FrequencyChange></FrequencyChanges></Clock>\n",KW_Experiment5A-8-1,59.945,1.0.0.105,2,-1562958759,Professional,2.0.10.353,2.0.10.353,10/10/2018,10/10/2018 16:37,12:37:12,2.0.10.248,2,2,1,2,,,,,,,,TrainingProc,BlockList,11,1,Distractor2.bmp,2,0,,0,1,73952,600,,0,0,cyan,600,3,600,,vertical,cyan,Distractor1.bmp,purple,Distractor2.bmp,red,Target1.bmp,yellow,Distractor2.bmp,blue,Distractor1.bmp,lime,Distractor1.bmp,,,,TrialProc,4,TrainingTrialList,1,1,-999999,0,74552,0,1,590,75142,Target1.bmp,red,1,,,,9,2,11
KW_Experiment5A,8,1,"<?xml version=""1.0""?>\n<Clock xmlns:dt=""urn:schemas-microsoft-com:datatypes""><Description dt:dt=""string"">E-Prime Primary Realtime Clock</Description><StartTime><Timestamp dt:dt=""int"">0</Timestamp><DateUtc dt:dt=""string"">2018-10-10T16:37:12Z</DateUtc></StartTime><FrequencyChanges><FrequencyChange><Frequency dt:dt=""r8"">3215244</Frequency><Timestamp dt:dt=""r8"">5182461942882</Timestamp><Current dt:dt=""r8"">0</Current><DateUtc dt:dt=""string"">2018-10-10T16:37:12Z</DateUtc></FrequencyChange></FrequencyChanges></Clock>\n",KW_Experiment5A-8-1,59.945,1.0.0.105,2,-1562958759,Professional,2.0.10.353,2.0.10.353,10/10/2018,10/10/2018 16:37,12:37:12,2.0.10.248,2,2,1,2,,,,,,,,TrainingProc,BlockList,12,2,Distractor2.bmp,2,0,,0,1,76154,500,,0,0,lime,500,2,500,,horizontal,lime,Distractor1.bmp,blue,Distractor2.bmp,red,Target2.bmp,purple,Distractor2.bmp,cyan,Distractor1.bmp,yellow,Distractor1.bmp,,,,TrialProc,6,TrainingTrialList,1,2,-999999,0,76654,0,2,640,77294,Target2.bmp,red,2,,,,9,2,12
KW_Experiment5A,8,1,"<?xml version=""1.0""?>\n<Clock xmlns:dt=""urn:schemas-microsoft-com:datatypes""><Description dt:dt=""string"">E-Prime Primary Realtime Clock</Description><StartTime><Timestamp dt:dt=""int"">0</Timestamp><DateUtc dt:dt=""string"">2018-10-10T16:37:12Z</DateUtc></StartTime><FrequencyChanges><FrequencyChange><Frequency dt:dt=""r8"">3215244</Frequency><Timestamp dt:dt=""r8"">5182461942882</Timestamp><Current dt:dt=""r8"">0</Current><DateUtc dt:dt=""string"">2018-10-10T16:37:12Z</DateUtc></FrequencyChange></FrequencyChanges></Clock>\n",KW_Experiment5A-8-1,59.945,1.0.0.105,2,-1562958759,Professional,2.0.10.353,2.0.10.353,10/10/2018,10/10/2018 16:37,12:37:12,2.0.10.248,2,2,1,2,,,,,,,,TrainingProc,BlockList,13,2,Distractor2.bmp,2,0,,0,1,78306,600,,0,0,purple,600,3,600,,horizontal,purple,Distractor2.bmp,red,Target2.bmp,cyan,Distractor2.bmp,yellow,Distractor1.bmp,blue,Distractor1.bmp,lime,Distractor2.bmp,,,,TrialProc,5,TrainingTrialList,1,2,-999999,0,78906,0,2,611,79517,Target2.bmp,red,2,,,,8,2,13
KW_Experiment5A,8,1,"<?xml version=""1.0""?>\n<Clock xmlns:dt=""urn:schemas-microsoft-com:datatypes""><Description dt:dt=""string"">E-Prime Primary Realtime Clock</Description><StartTime><Timestamp dt:dt=""int"">0</Timestamp><DateUtc dt:dt=""string"">2018-10-10T16:37:12Z</DateUtc></StartTime><FrequencyChanges><FrequencyChange><Frequency dt:dt=""r8"">3215244</Frequency><Timestamp dt:dt=""r8"">5182461942882</Timestamp><Current dt:dt=""r8"">0</Current><DateUtc dt:dt=""string"">2018-10-10T16:37:12Z</DateUtc></FrequencyChange></FrequencyChanges></Clock>\n",KW_Experiment5A-8-1,59.945,1.0.0.105,2,-1562958759,Professional,2.0.10.353,2.0.10.353,10/10/2018,10/10/2018 16:37,12:37:12,2.0.10.248,2,2,1,2,,,,,,,,TrainingProc,BlockList,14,1,Distractor1.bmp,1,0,,0,1,80541,401,,0,0,yellow,400,1,400,2,vertical,yellow,Distractor1.bmp,blue,Distractor1.bmp,lime,Target1.bmp,purple,Distractor1.bmp,red,Distractor2.bmp,cyan,Distractor1.bmp,,,,TrialProc,,TrainingTrialList,1,1,-999999,1,80942,0,1,824,81766,Target1.bmp,lime,1,,,,3,2,14
KW_Experiment5A,8,1,"<?xml version=""1.0""?>\n<Clock xmlns:dt=""urn:schemas-microsoft-com:datatypes""><Description dt:dt=""string"">E-Prime Primary Realtime Clock</Description><StartTime><Timestamp dt:dt=""int"">0</Timestamp><DateUtc dt:dt=""string"">2018-10-10T16:37:12Z</DateUtc></StartTime><FrequencyChanges><FrequencyChange><Frequency dt:dt=""r8"">3215244</Frequency><Timestamp dt:dt=""r8"">5182461942882</Timestamp><Current dt:dt=""r8"">0</Current><DateUtc dt:dt=""string"">2018-10-10T16:37:12Z</DateUtc></FrequencyChange></FrequencyChanges></Clock>\n",KW_Experiment5A-8-1,59.945,1.0.0.105,2,-1562958759,Professional,2.0.10.353,2.0.10.353,10/10/2018,10/10/2018 16:37,12:37:12,2.0.10.248,2,2,1,2,,,,,,,,TrainingProc,BlockList,15,2,Distractor2.bmp,2,0,,0,1,82777,400,,0,0,yellow,400,1,400,2,horizontal,yellow,Distractor1.bmp,red,Distractor2.bmp,blue,Distractor2.bmp,purple,Distractor1.bmp,lime,Target2.bmp,cyan,Distractor2.bmp,,,,TrialProc,,TrainingTrialList,1,2,-999999,0,83177,0,2,756,83933,Target2.bmp,lime,2,,,,5,2,15
KW_Experiment5A,8,1,"<?xml version=""1.0""?>\n<Clock xmlns:dt=""urn:schemas-microsoft-com:datatypes""><Description dt:dt=""string"">E-Prime Primary Realtime Clock</Description><StartTime><Timestamp dt:dt=""int"">0</Timestamp><DateUtc dt:dt=""string"">2018-10-10T16:37:12Z</DateUtc></StartTime><FrequencyChanges><FrequencyChange><Frequency dt:dt=""r8"">3215244</Frequency><Timestamp dt:dt=""r8"">5182461942882</Timestamp><Current dt:dt=""r8"">0</Current><DateUtc dt:dt=""string"">2018-10-10T16:37:12Z</DateUtc></FrequencyChange></FrequencyChanges></Clock>\n",KW_Experiment5A-8-1,59.945,1.0.0.105,2,-1562958759,Professional,2.0.10.353,2.0.10.353,10/10/2018,10/10/2018 16:37,12:37:12,2.0.10.248,2,2,1,2,,,,,,,,TrainingProc,BlockList,16,2,Distractor2.bmp,2,0,,0,1,84945,601,,0,0,blue,600,3,600,,horizontal,blue,Distractor1.bmp,lime,Distractor2.bmp,yellow,Distractor1.bmp,purple,Distractor2.bmp,red,Target2.bmp,cyan,Distractor2.bmp,,,,TrialProc,3,TrainingTrialList,0,2,-999999,1,85546,0,1,1035,86581,Target2.bmp,red,2,,,,11,2,16
KW_Experiment5A,8,1,"<?xml version=""1.0""?>\n<Clock xmlns:dt=""urn:schemas-microsoft-com:datatypes""><Description dt:dt=""string"">E-Prime Primary Realtime Clock</Description><StartTime><Timestamp dt:dt=""int"">0</Timestamp><DateUtc dt:dt=""string"">2018-10-10T16:37:12Z</DateUtc></StartTime><FrequencyChanges><FrequencyChange><Frequency dt:dt=""r8"">3215244</Frequency><Timestamp dt:dt=""r8"">5182461942882</Timestamp><Current dt:dt=""r8"">0</Current><DateUtc dt:dt=""string"">2018-10-10T16:37:12Z</DateUtc></FrequencyChange></FrequencyChanges></Clock>\n",KW_Experiment5A-8-1,59.945,1.0.0.105,2,-1562958759,Professional,2.0.10.353,2.0.10.353,10/10/2018,10/10/2018 16:37,12:37:12,2.0.10.248,2,2,1,2,,,,,,,,TrainingProc,BlockList,17,1,Distractor2.bmp,2,0,,0,1,87598,400,,0,0,cyan,400,1,400,4,vertical,cyan,Distractor2.bmp,yellow,Distractor1.bmp,blue,Distractor2.bmp,lime,Target1.bmp,purple,Distractor2.bmp,red,Distractor1.bmp,,,,TrialProc,,TrainingTrialList,1,1,-999999,0,87998,0,1,959,88957,Target1.bmp,lime,1,,,,4,2,17
KW_Experiment5A,8,1,"<?xml version=""1.0""?>\n<Clock xmlns:dt=""urn:schemas-microsoft-com:datatypes""><Description dt:dt=""string"">E-Prime Primary Realtime Clock</Description><StartTime><Timestamp dt:dt=""int"">0</Timestamp><DateUtc dt:dt=""string"">2018-10-10T16:37:12Z</DateUtc></StartTime><FrequencyChanges><FrequencyChange><Frequency dt:dt=""r8"">3215244</Frequency><Timestamp dt:dt=""r8"">5182461942882</Timestamp><Current dt:dt=""r8"">0</Current><DateUtc dt:dt=""string"">2018-10-10T16:37:12Z</DateUtc></FrequencyChange></FrequencyChanges></Clock>\n",KW_Experiment5A-8-1,59.945,1.0.0.105,2,-1562958759,Professional,2.0.10.353,2.0.10.353,10/10/2018,10/10/2018 16:37,12:37:12,2.0.10.248,2,2,1,2,,,,,,,,TrainingProc,BlockList,18,1,Distractor2.bmp,2,0,,0,1,89967,500,,0,0,cyan,500,2,500,,vertical,red,Target1.bmp,purple,Distractor2.bmp,yellow,Distractor2.bmp,lime,Distractor2.bmp,blue,Distractor2.bmp,cyan,Distractor1.bmp,,,,TrialProc,4,TrainingTrialList,1,1,-999999,0,90467,0,1,602,91069,Target1.bmp,red,1,,,,7,2,18
KW_Experiment5A,8,1,"<?xml version=""1.0""?>\n<Clock xmlns:dt=""urn:schemas-microsoft-com:datatypes""><Description dt:dt=""string"">E-Prime Primary Realtime Clock</Description><StartTime><Timestamp dt:dt=""int"">0</Timestamp><DateUtc dt:dt=""string"">2018-10-10T16:37:12Z</DateUtc></StartTime><FrequencyChanges><FrequencyChange><Frequency dt:dt=""r8"">3215244</Frequency><Timestamp dt:dt=""r8"">5182461942882</Timestamp><Current dt:dt=""r8"">0</Current><DateUtc dt:dt=""string"">2018-10-10T16:37:12Z</DateUtc></FrequencyChange></FrequencyChanges></Clock>\n",KW_Experiment5A-8-1,59.945,1.0.0.105,2,-1562958759,Professional,2.0.10.353,2.0.10.353,10/10/2018,10/10/2018 16:37,12:37:12,2.0.10.248,2,2,1,2,,,,,,,,TrainingProc,BlockList,19,1,Distractor1.bmp,1,0,,0,1,92085,501,,0,0,lime,500,2,500,,vertical,red,Target1.bmp,cyan,Distractor1.bmp,purple,Distractor1.bmp,blue,Distractor2.bmp,yellow,Distractor1.bmp,lime,Distractor2.bmp,,,,TrialProc,6,TrainingTrialList,1,1,-999999,1,92586,0,1,563,93149,Target1.bmp,red,1,,,,7,2,19
KW_Experiment5A,8,1,"<?xml version=""1.0""?>\n<Clock xmlns:dt=""urn:schemas-microsoft-com:datatypes""><Description dt:dt=""string"">E-Prime Primary Realtime Clock</Description><StartTime><Timestamp dt:dt=""int"">0</Timestamp><DateUtc dt:dt=""string"">2018-10-10T16:37:12Z</DateUtc></StartTime><FrequencyChanges><FrequencyChange><Frequency dt:dt=""r8"">3215244</Frequency><Timestamp dt:dt=""r8"">5182461942882</Timestamp><Current dt:dt=""r8"">0</Current><DateUtc dt:dt=""string"">2018-10-10T16:37:12Z</DateUtc></FrequencyChange></FrequencyChanges></Clock>\n",KW_Experiment5A-8-1,59.945,1.0.0.105,2,-1562958759,Professional,2.0.10.353,2.0.10.353,10/10/2018,10/10/2018 16:37,12:37:12,2.0.10.248,2,2,1,2,,,,,,,,TrainingProc,BlockList,20,1,Distractor2.bmp,2,0,,0,1,94171,500,,0,0,cyan,500,2,500,4,vertical,cyan,Distractor2.bmp,purple,Distractor2.bmp,red,Distractor2.bmp,blue,Distractor1.bmp,yellow,Distractor1.bmp,lime,Target1.bmp,,,,TrialProc,,TrainingTrialList,1,1,-999999,0,94671,0,1,758,95429,Target1.bmp,lime,1,,,,6,2,20
KW_Experiment5A,8,1,"<?xml version=""1.0""?>\n<Clock xmlns:dt=""urn:schemas-microsoft-com:datatypes""><Description dt:dt=""string"">E-Prime Primary Realtime Clock</Description><StartTime><Timestamp dt:dt=""int"">0</Timestamp><DateUtc dt:dt=""string"">2018-10-10T16:37:12Z</DateUtc></StartTime><FrequencyChanges><FrequencyChange><Frequency dt:dt=""r8"">3215244</Frequency><Timestamp dt:dt=""r8"">5182461942882</Timestamp><Current dt:dt=""r8"">0</Current><DateUtc dt:dt=""string"">2018-10-10T16:37:12Z</DateUtc></FrequencyChange></FrequencyChanges></Clock>\n",KW_Experiment5A-8-1,59.945,1.0.0.105,2,-1562958759,Professional,2.0.10.353,2.0.10.353,10/10/2018,10/10/2018 16:37,12:37:12,2.0.10.248,2,2,1,2,,,,,,,,TrainingProc,BlockList,21,2,Distractor2.bmp,2,0,,0,1,96439,601,,0,0,lime,600,3,600,,horizontal,lime,Distractor2.bmp,purple,Distractor2.bmp,cyan,Distractor1.bmp,blue,Distractor1.bmp,red,Target2.bmp,yellow,Distractor2.bmp,,,,TrialProc,6,TrainingTrialList,1,2,-999999,1,97040,0,2,749,97789,Target2.bmp,red,2,,,,11,2,21
KW_Experiment5A,8,1,"<?xml version=""1.0""?>\n<Clock xmlns:dt=""urn:schemas-microsoft-com:datatypes""><Description dt:dt=""string"">E-Prime Primary Realtime Clock</Description><StartTime><Timestamp dt:dt=""int"">0</Timestamp><DateUtc dt:dt=""string"">2018-10-10T16:37:12Z</DateUtc></StartTime><FrequencyChanges><FrequencyChange><Frequency dt:dt=""r8"">3215244</Frequency><Timestamp dt:dt=""r8"">5182461942882</Timestamp><Current dt:dt=""r8"">0</Current><DateUtc dt:dt=""string"">2018-10-10T16:37:12Z</DateUtc></FrequencyChange></FrequencyChanges></Clock>\n",KW_Experiment5A-8-1,59.945,1.0.0.105,2,-1562958759,Professional,2.0.10.353,2.0.10.353,10/10/2018,10/10/2018 16:37,12:37:12,2.0.10.248,2,2,1,2,,,,,,,,TrainingProc,BlockList,22,2,Distractor2.bmp,2,0,,0,1,98808,401,,0,0,blue,400,1,400,3,horizontal,blue,Distractor2.bmp,lime,Target2.bmp,red,Distractor2.bmp,purple,Distractor2.bmp,yellow,Distractor2.bmp,cyan,Distractor1.bmp,,,,TrialProc,,TrainingTrialList,1,2,-999999,1,99209,0,2,684,99893,Target2.bmp,lime,2,,,,2,2,22
KW_Experiment5A,8,1,"<?xml version=""1.0""?>\n<Clock xmlns:dt=""urn:schemas-microsoft-com:datatypes""><Description dt:dt=""string"">E-Prime Primary Realtime Clock</Description><StartTime><Timestamp dt:dt=""int"">0</Timestamp><DateUtc dt:dt=""string"">2018-10-10T16:37:12Z</DateUtc></StartTime><FrequencyChanges><FrequencyChange><Frequency dt:dt=""r8"">3215244</Frequency><Timestamp dt:dt=""r8"">5182461942882</Timestamp><Current dt:dt=""r8"">0</Current><DateUtc dt:dt=""string"">2018-10-10T16:37:12Z</DateUtc></FrequencyChange></FrequencyChanges></Clock>\n",KW_Experiment5A-8-1,59.945,1.0.0.105,2,-1562958759,Professional,2.0.10.353,2.0.10.353,10/10/2018,10/10/2018 16:37,12:37:12,2.0.10.248,2,2,1,2,,,,,,,,TrainingProc,BlockList,23,2,Distractor1.bmp,1,0,,0,1,100910,601,,0,0,yellow,600,3,600,,horizontal,yellow,Distractor2.bmp,red,Target2.bmp,cyan,Distractor1.bmp,blue,Distractor1.bmp,lime,Distractor1.bmp,purple,Distractor2.bmp,,,,TrialProc,2,TrainingTrialList,1,2,-999999,1,101511,0,2,534,102045,Target2.bmp,red,2,,,,8,2,23
KW_Experiment5A,8,1,"<?xml version=""1.0""?>\n<Clock xmlns:dt=""urn:schemas-microsoft-com:datatypes""><Description dt:dt=""string"">E-Prime Primary Realtime Clock</Description><StartTime><Timestamp dt:dt=""int"">0</Timestamp><DateUtc dt:dt=""string"">2018-10-10T16:37:12Z</DateUtc></StartTime><FrequencyChanges><FrequencyChange><Frequency dt:dt=""r8"">3215244</Frequency><Timestamp dt:dt=""r8"">5182461942882</Timestamp><Current dt:dt=""r8"">0</Current><DateUtc dt:dt=""string"">2018-10-10T16:37:12Z</DateUtc></FrequencyChange></FrequencyChanges></Clock>\n",KW_Experiment5A-8-1,59.945,1.0.0.105,2,-1562958759,Professional,2.0.10.353,2.0.10.353,10/10/2018,10/10/2018 16:37,12:37:12,2.0.10.248,2,2,1,2,,,,,,,,TrainingProc,BlockList,24,1,Distractor1.bmp,1,0,,0,1,103062,601,,0,0,yellow,600,3,600,2,vertical,lime,Target1.bmp,yellow,Distractor1.bmp,blue,Distractor1.bmp,cyan,Distractor1.bmp,red,Distractor2.bmp,purple,Distractor1.bmp,,,,TrialProc,,TrainingTrialList,1,1,-999999,1,103663,0,1,670,104333,Target1.bmp,lime,1,,,,1,2,24
KW_Experiment5A,8,1,"<?xml version=""1.0""?>\n<Clock xmlns:dt=""urn:schemas-microsoft-com:datatypes""><Description dt:dt=""string"">E-Prime Primary Realtime Clock</Description><StartTime><Timestamp dt:dt=""int"">0</Timestamp><DateUtc dt:dt=""string"">2018-10-10T16:37:12Z</DateUtc></StartTime><FrequencyChanges><FrequencyChange><Frequency dt:dt=""r8"">3215244</Frequency><Timestamp dt:dt=""r8"">5182461942882</Timestamp><Current dt:dt=""r8"">0</Current><DateUtc dt:dt=""string"">2018-10-10T16:37:12Z</DateUtc></FrequencyChange></FrequencyChanges></Clock>\n",KW_Experiment5A-8-1,59.945,1.0.0.105,2,-1562958759,Professional,2.0.10.353,2.0.10.353,10/10/2018,10/10/2018 16:37,12:37:12,2.0.10.248,2,2,1,2,,,,,,,,TrainingProc,BlockList,25,2,Distractor2.bmp,2,0,,0,1,105348,600,,0,0,lime,600,3,600,,horizontal,lime,Distractor1.bmp,yellow,Distractor2.bmp,blue,Distractor2.bmp,purple,Distractor2.bmp,red,Target2.bmp,cyan,Distractor2.bmp,,,,TrialProc,6,TrainingTrialList,1,2,-999999,0,105948,0,2,641,106589,Target2.bmp,red,2,,,,11,3,25
KW_Experiment5A,8,1,"<?xml version=""1.0""?>\n<Clock xmlns:dt=""urn:schemas-microsoft-com:datatypes""><Description dt:dt=""string"">E-Prime Primary Realtime Clock</Description><StartTime><Timestamp dt:dt=""int"">0</Timestamp><DateUtc dt:dt=""string"">2018-10-10T16:37:12Z</DateUtc></StartTime><FrequencyChanges><FrequencyChange><Frequency dt:dt=""r8"">3215244</Frequency><Timestamp dt:dt=""r8"">5182461942882</Timestamp><Current dt:dt=""r8"">0</Current><DateUtc dt:dt=""string"">2018-10-10T16:37:12Z</DateUtc></FrequencyChange></FrequencyChanges></Clock>\n",KW_Experiment5A-8-1,59.945,1.0.0.105,2,-1562958759,Professional,2.0.10.353,2.0.10.353,10/10/2018,10/10/2018 16:37,12:37:12,2.0.10.248,2,2,1,2,,,,,,,,TrainingProc,BlockList,26,1,Distractor2.bmp,2,0,,0,1,107600,600,,0,0,red,600,3,600,1,vertical,red,Distractor1.bmp,purple,Distractor1.bmp,lime,Target1.bmp,yellow,Distractor2.bmp,cyan,Distractor1.bmp,blue,Distractor2.bmp,,,,TrialProc,,TrainingTrialList,1,1,-999999,0,108200,0,1,725,108925,Target1.bmp,lime,1,,,,3,3,26
KW_Experiment5A,8,1,"<?xml version=""1.0""?>\n<Clock xmlns:dt=""urn:schemas-microsoft-com:datatypes""><Description dt:dt=""string"">E-Prime Primary Realtime Clock</Description><StartTime><Timestamp dt:dt=""int"">0</Timestamp><DateUtc dt:dt=""string"">2018-10-10T16:37:12Z</DateUtc></StartTime><FrequencyChanges><FrequencyChange><Frequency dt:dt=""r8"">3215244</Frequency><Timestamp dt:dt=""r8"">5182461942882</Timestamp><Current dt:dt=""r8"">0</Current><DateUtc dt:dt=""string"">2018-10-10T16:37:12Z</DateUtc></FrequencyChange></FrequencyChanges></Clock>\n",KW_Experiment5A-8-1,59.945,1.0.0.105,2,-1562958759,Professional,2.0.10.353,2.0.10.353,10/10/2018,10/10/2018 16:37,12:37:12,2.0.10.248,2,2,1,2,,,,,,,,TrainingProc,BlockList,27,2,Distractor2.bmp,2,0,,0,1,109935,400,,0,0,purple,400,1,400,5,horizontal,lime,Target2.bmp,purple,Distractor2.bmp,cyan,Distractor1.bmp,yellow,Distractor1.bmp,blue,Distractor2.bmp,red,Distractor2.bmp,,,,TrialProc,,TrainingTrialList,1,2,-999999,0,110335,0,2,566,110901,Target2.bmp,lime,2,,,,1,3,27
KW_Experiment5A,8,1,"<?xml version=""1.0""?>\n<Clock xmlns:dt=""urn:schemas-microsoft-com:datatypes""><Description dt:dt=""string"">E-Prime Primary Realtime Clock</Description><StartTime><Timestamp dt:dt=""int"">0</Timestamp><DateUtc dt:dt=""string"">2018-10-10T16:37:12Z</DateUtc></StartTime><FrequencyChanges><FrequencyChange><Frequency dt:dt=""r8"">3215244</Frequency><Timestamp dt:dt=""r8"">5182461942882</Timestamp><Current dt:dt=""r8"">0</Current><DateUtc dt:dt=""string"">2018-10-10T16:37:12Z</DateUtc></FrequencyChange></FrequencyChanges></Clock>\n",KW_Experiment5A-8-1,59.945,1.0.0.105,2,-1562958759,Professional,2.0.10.353,2.0.10.353,10/10/2018,10/10/2018 16:37,12:37:12,2.0.10.248,2,2,1,2,,,,,,,,TrainingProc,BlockList,28,2,Distractor1.bmp,1,0,,0,1,111920,601,,0,0,lime,600,3,600,,horizontal,red,Target2.bmp,yellow,Distractor1.bmp,purple,Distractor2.bmp,cyan,Distractor1.bmp,blue,Distractor1.bmp,lime,Distractor1.bmp,,,,TrialProc,6,TrainingTrialList,1,2,-999999,1,112521,0,2,500,113021,Target2.bmp,red,2,,,,7,3,28
KW_Experiment5A,8,1,"<?xml version=""1.0""?>\n<Clock xmlns:dt=""urn:schemas-microsoft-com:datatypes""><Description dt:dt=""string"">E-Prime Primary Realtime Clock</Description><StartTime><Timestamp dt:dt=""int"">0</Timestamp><DateUtc dt:dt=""string"">2018-10-10T16:37:12Z</DateUtc></StartTime><FrequencyChanges><FrequencyChange><Frequency dt:dt=""r8"">3215244</Frequency><Timestamp dt:dt=""r8"">5182461942882</Timestamp><Current dt:dt=""r8"">0</Current><DateUtc dt:dt=""string"">2018-10-10T16:37:12Z</DateUtc></FrequencyChange></FrequencyChanges></Clock>\n",KW_Experiment5A-8-1,59.945,1.0.0.105,2,-1562958759,Professional,2.0.10.353,2.0.10.353,10/10/2018,10/10/2018 16:37,12:37:12,2.0.10.248,2,2,1,2,,,,,,,,TrainingProc,BlockList,29,2,Distractor2.bmp,2,0,,0,1,114039,600,,0,0,red,600,3,600,1,horizontal,red,Distractor2.bmp,purple,Distractor1.bmp,yellow,Distractor1.bmp,blue,Distractor2.bmp,cyan,Distractor2.bmp,lime,Target2.bmp,,,,TrialProc,,TrainingTrialList,1,2,-999999,0,114639,0,2,614,115253,Target2.bmp,lime,2,,,,6,3,29
KW_Experiment5A,8,1,"<?xml version=""1.0""?>\n<Clock xmlns:dt=""urn:schemas-microsoft-com:datatypes""><Description dt:dt=""string"">E-Prime Primary Realtime Clock</Description><StartTime><Timestamp dt:dt=""int"">0</Timestamp><DateUtc dt:dt=""string"">2018-10-10T16:37:12Z</DateUtc></StartTime><FrequencyChanges><FrequencyChange><Frequency dt:dt=""r8"">3215244</Frequency><Timestamp dt:dt=""r8"">5182461942882</Timestamp><Current dt:dt=""r8"">0</Current><DateUtc dt:dt=""string"">2018-10-10T16:37:12Z</DateUtc></FrequencyChange></FrequencyChanges></Clock>\n",KW_Experiment5A-8-1,59.945,1.0.0.105,2,-1562958759,Professional,2.0.10.353,2.0.10.353,10/10/2018,10/10/2018 16:37,12:37:12,2.0.10.248,2,2,1,2,,,,,,,,TrainingProc,BlockList,30,1,Distractor1.bmp,1,0,,0,1,116274,501,,0,0,blue,500,2,500,,vertical,red,Target1.bmp,cyan,Distractor1.bmp,purple,Distractor1.bmp,lime,Distractor1.bmp,yellow,Distractor1.bmp,blue,Distractor1.bmp,,,,TrialProc,3,TrainingTrialList,1,1,-999999,1,116775,0,1,454,117229,Target1.bmp,red,1,,,,7,3,30
KW_Experiment5A,8,1,"<?xml version=""1.0""?>\n<Clock xmlns:dt=""urn:schemas-microsoft-com:datatypes""><Description dt:dt=""string"">E-Prime Primary Realtime Clock</Description><StartTime><Timestamp dt:dt=""int"">0</Timestamp><DateUtc dt:dt=""string"">2018-10-10T16:37:12Z</DateUtc></StartTime><FrequencyChanges><FrequencyChange><Frequency dt:dt=""r8"">3215244</Frequency><Timestamp dt:dt=""r8"">5182461942882</Timestamp><Current dt:dt=""r8"">0</Current><DateUtc dt:dt=""string"">2018-10-10T16:37:12Z</DateUtc></FrequencyChange></FrequencyChanges></Clock>\n",KW_Experiment5A-8-1,59.945,1.0.0.105,2,-1562958759,Professional,2.0.10.353,2.0.10.353,10/10/2018,10/10/2018 16:37,12:37:12,2.0.10.248,2,2,1,2,,,,,,,,TrainingProc,BlockList,31,2,Distractor1.bmp,1,0,,0,1,118243,500,,0,0,blue,500,2,500,,horizontal,blue,Distractor1.bmp,purple,Distractor2.bmp,yellow,Distractor1.bmp,lime,Distractor1.bmp,cyan,Distractor1.bmp,red,Target2.bmp,,,,TrialProc,3,TrainingTrialList,1,2,-999999,0,118743,0,2,774,119517,Target2.bmp,red,2,,,,12,3,31
KW_Experiment5A,8,1,"<?xml version=""1.0""?>\n<Clock xmlns:dt=""urn:schemas-microsoft-com:datatypes""><Description dt:dt=""string"">E-Prime Primary Realtime Clock</Description><StartTime><Timestamp dt:dt=""int"">0</Timestamp><DateUtc dt:dt=""string"">2018-10-10T16:37:12Z</DateUtc></StartTime><FrequencyChanges><FrequencyChange><Frequency dt:dt=""r8"">3215244</Frequency><Timestamp dt:dt=""r8"">5182461942882</Timestamp><Current dt:dt=""r8"">0</Current><DateUtc dt:dt=""string"">2018-10-10T16:37:12Z</DateUtc></FrequencyChange></FrequencyChanges></Clock>\n",KW_Experiment5A-8-1,59.945,1.0.0.105,2,-1562958759,Professional,2.0.10.353,2.0.10.353,10/10/2018,10/10/2018 16:37,12:37:12,2.0.10.248,2,2,1,2,,,,,,,,TrainingProc,BlockList,32,2,Distractor2.bmp,2,0,,0,1,120528,601,,0,0,yellow,600,3,600,,horizontal,yellow,Distractor2.bmp,red,Target2.bmp,lime,Distractor2.bmp,purple,Distractor2.bmp,cyan,Distractor2.bmp,blue,Distractor1.bmp,,,,TrialProc,2,TrainingTrialList,1,2,-999999,1,121129,0,2,588,121717,Target2.bmp,red,2,,,,8,3,32
KW_Experiment5A,8,1,"<?xml version=""1.0""?>\n<Clock xmlns:dt=""urn:schemas-microsoft-com:datatypes""><Description dt:dt=""string"">E-Prime Primary Realtime Clock</Description><StartTime><Timestamp dt:dt=""int"">0</Timestamp><DateUtc dt:dt=""string"">2018-10-10T16:37:12Z</DateUtc></StartTime><FrequencyChanges><FrequencyChange><Frequency dt:dt=""r8"">3215244</Frequency><Timestamp dt:dt=""r8"">5182461942882</Timestamp><Current dt:dt=""r8"">0</Current><DateUtc dt:dt=""string"">2018-10-10T16:37:12Z</DateUtc></FrequencyChange></FrequencyChanges></Clock>\n",KW_Experiment5A-8-1,59.945,1.0.0.105,2,-1562958759,Professional,2.0.10.353,2.0.10.353,10/10/2018,10/10/2018 16:37,12:37:12,2.0.10.248,2,2,1,2,,,,,,,,TrainingProc,BlockList,33,2,Distractor1.bmp,1,0,,0,1,122730,501,,0,0,cyan,500,2,500,,horizontal,cyan,Distractor2.bmp,blue,Distractor1.bmp,red,Target2.bmp,purple,Distractor1.bmp,lime,Distractor2.bmp,yellow,Distractor1.bmp,,,,TrialProc,4,TrainingTrialList,1,2,-999999,1,123231,0,2,494,123725,Target2.bmp,red,2,,,,9,3,33
KW_Experiment5A,8,1,"<?xml version=""1.0""?>\n<Clock xmlns:dt=""urn:schemas-microsoft-com:datatypes""><Description dt:dt=""string"">E-Prime Primary Realtime Clock</Description><StartTime><Timestamp dt:dt=""int"">0</Timestamp><DateUtc dt:dt=""string"">2018-10-10T16:37:12Z</DateUtc></StartTime><FrequencyChanges><FrequencyChange><Frequency dt:dt=""r8"">3215244</Frequency><Timestamp dt:dt=""r8"">5182461942882</Timestamp><Current dt:dt=""r8"">0</Current><DateUtc dt:dt=""string"">2018-10-10T16:37:12Z</DateUtc></FrequencyChange></FrequencyChanges></Clock>\n",KW_Experiment5A-8-1,59.945,1.0.0.105,2,-1562958759,Professional,2.0.10.353,2.0.10.353,10/10/2018,10/10/2018 16:37,12:37:12,2.0.10.248,2,2,1,2,,,,,,,,TrainingProc,BlockList,34,2,Distractor2.bmp,2,0,,0,1,124749,500,,0,0,cyan,500,2,500,,horizontal,cyan,Distractor2.bmp,blue,Distractor2.bmp,red,Target2.bmp,purple,Distractor2.bmp,lime,Distractor2.bmp,yellow,Distractor2.bmp,,,,TrialProc,4,TrainingTrialList,1,2,-999999,0,125249,0,2,444,125693,Target2.bmp,red,2,,,,9,3,34
KW_Experiment5A,8,1,"<?xml version=""1.0""?>\n<Clock xmlns:dt=""urn:schemas-microsoft-com:datatypes""><Description dt:dt=""string"">E-Prime Primary Realtime Clock</Description><StartTime><Timestamp dt:dt=""int"">0</Timestamp><DateUtc dt:dt=""string"">2018-10-10T16:37:12Z</DateUtc></StartTime><FrequencyChanges><FrequencyChange><Frequency dt:dt=""r8"">3215244</Frequency><Timestamp dt:dt=""r8"">5182461942882</Timestamp><Current dt:dt=""r8"">0</Current><DateUtc dt:dt=""string"">2018-10-10T16:37:12Z</DateUtc></FrequencyChange></FrequencyChanges></Clock>\n",KW_Experiment5A-8-1,59.945,1.0.0.105,2,-1562958759,Professional,2.0.10.353,2.0.10.353,10/10/2018,10/10/2018 16:37,12:37:12,2.0.10.248,2,2,1,2,,,,,,,,TrainingProc,BlockList,35,1,Distractor1.bmp,1,0,,0,1,126717,601,,0,0,yellow,600,3,600,,vertical,yellow,Distractor2.bmp,red,Target1.bmp,cyan,Distractor1.bmp,lime,Distractor2.bmp,purple,Distractor2.bmp,blue,Distractor1.bmp,,,,TrialProc,2,TrainingTrialList,1,1,-999999,1,127318,0,1,543,127861,Target1.bmp,red,1,,,,8,3,35
KW_Experiment5A,8,1,"<?xml version=""1.0""?>\n<Clock xmlns:dt=""urn:schemas-microsoft-com:datatypes""><Description dt:dt=""string"">E-Prime Primary Realtime Clock</Description><StartTime><Timestamp dt:dt=""int"">0</Timestamp><DateUtc dt:dt=""string"">2018-10-10T16:37:12Z</DateUtc></StartTime><FrequencyChanges><FrequencyChange><Frequency dt:dt=""r8"">3215244</Frequency><Timestamp dt:dt=""r8"">5182461942882</Timestamp><Current dt:dt=""r8"">0</Current><DateUtc dt:dt=""string"">2018-10-10T16:37:12Z</DateUtc></FrequencyChange></FrequencyChanges></Clock>\n",KW_Experiment5A-8-1,59.945,1.0.0.105,2,-1562958759,Professional,2.0.10.353,2.0.10.353,10/10/2018,10/10/2018 16:37,12:37:12,2.0.10.248,2,2,1,2,,,,,,,,TrainingProc,BlockList,36,1,Distractor1.bmp,1,0,,0,1,128886,500,,0,0,yellow,500,2,500,,vertical,yellow,Distractor1.bmp,lime,Distractor2.bmp,red,Target1.bmp,blue,Distractor1.bmp,purple,Distractor1.bmp,cyan,Distractor2.bmp,,,,TrialProc,2,TrainingTrialList,1,1,-999999,0,129386,0,1,619,130005,Target1.bmp,red,1,,,,9,3,36
KW_Experiment5A,8,1,"<?xml version=""1.0""?>\n<Clock xmlns:dt=""urn:schemas-microsoft-com:datatypes""><Description dt:dt=""string"">E-Prime Primary Realtime Clock</Description><StartTime><Timestamp dt:dt=""int"">0</Timestamp><DateUtc dt:dt=""string"">2018-10-10T16:37:12Z</DateUtc></StartTime><FrequencyChanges><FrequencyChange><Frequency dt:dt=""r8"">3215244</Frequency><Timestamp dt:dt=""r8"">5182461942882</Timestamp><Current dt:dt=""r8"">0</Current><DateUtc dt:dt=""string"">2018-10-10T16:37:12Z</DateUtc></FrequencyChange></FrequencyChanges></Clock>\n",KW_Experiment5A-8-1,59.945,1.0.0.105,2,-1562958759,Professional,2.0.10.353,2.0.10.353,10/10/2018,10/10/2018 16:37,12:37:12,2.0.10.248,2,2,1,2,,,,,,,,TrainingProc,BlockList,37,1,Distractor2.bmp,2,0,,0,1,131021,401,,0,0,cyan,400,1,400,,vertical,red,Target1.bmp,blue,Distractor2.bmp,purple,Distractor1.bmp,yellow,Distractor2.bmp,lime,Distractor1.bmp,cyan,Distractor2.bmp,,,,TrialProc,4,TrainingTrialList,0,1,-999999,1,131422,0,2,479,131901,Target1.bmp,red,1,,,,7,3,37
KW_Experiment5A,8,1,"<?xml version=""1.0""?>\n<Clock xmlns:dt=""urn:schemas-microsoft-com:datatypes""><Description dt:dt=""string"">E-Prime Primary Realtime Clock</Description><StartTime><Timestamp dt:dt=""int"">0</Timestamp><DateUtc dt:dt=""string"">2018-10-10T16:37:12Z</DateUtc></StartTime><FrequencyChanges><FrequencyChange><Frequency dt:dt=""r8"">3215244</Frequency><Timestamp dt:dt=""r8"">5182461942882</Timestamp><Current dt:dt=""r8"">0</Current><DateUtc dt:dt=""string"">2018-10-10T16:37:12Z</DateUtc></FrequencyChange></FrequencyChanges></Clock>\n",KW_Experiment5A-8-1,59.945,1.0.0.105,2,-1562958759,Professional,2.0.10.353,2.0.10.353,10/10/2018,10/10/2018 16:37,12:37:12,2.0.10.248,2,2,1,2,,,,,,,,TrainingProc,BlockList,38,2,Distractor1.bmp,1,0,,0,1,132923,601,,0,0,cyan,600,3,600,,horizontal,cyan,Distractor2.bmp,red,Target2.bmp,yellow,Distractor1.bmp,purple,Distractor1.bmp,lime,Distractor2.bmp,blue,Distractor2.bmp,,,,TrialProc,4,TrainingTrialList,1,2,-999999,1,133524,0,2,657,134181,Target2.bmp,red,2,,,,8,3,38
KW_Experiment5A,8,1,"<?xml version=""1.0""?>\n<Clock xmlns:dt=""urn:schemas-microsoft-com:datatypes""><Description dt:dt=""string"">E-Prime Primary Realtime Clock</Description><StartTime><Timestamp dt:dt=""int"">0</Timestamp><DateUtc dt:dt=""string"">2018-10-10T16:37:12Z</DateUtc></StartTime><FrequencyChanges><FrequencyChange><Frequency dt:dt=""r8"">3215244</Frequency><Timestamp dt:dt=""r8"">5182461942882</Timestamp><Current dt:dt=""r8"">0</Current><DateUtc dt:dt=""string"">2018-10-10T16:37:12Z</DateUtc></FrequencyChange></FrequencyChanges></Clock>\n",KW_Experiment5A-8-1,59.945,1.0.0.105,2,-1562958759,Professional,2.0.10.353,2.0.10.353,10/10/2018,10/10/2018 16:37,12:37:12,2.0.10.248,2,2,1,2,,,,,,,,TrainingProc,BlockList,39,2,Distractor1.bmp,1,0,,0,1,135192,500,,0,0,cyan,500,2,500,,horizontal,cyan,Distractor1.bmp,blue,Distractor1.bmp,lime,Distractor2.bmp,red,Target2.bmp,purple,Distractor1.bmp,yellow,Distractor1.bmp,,,,TrialProc,4,TrainingTrialList,1,2,-999999,0,135692,0,2,641,136333,Target2.bmp,red,2,,,,10,3,39
KW_Experiment5A,8,1,"<?xml version=""1.0""?>\n<Clock xmlns:dt=""urn:schemas-microsoft-com:datatypes""><Description dt:dt=""string"">E-Prime Primary Realtime Clock</Description><StartTime><Timestamp dt:dt=""int"">0</Timestamp><DateUtc dt:dt=""string"">2018-10-10T16:37:12Z</DateUtc></StartTime><FrequencyChanges><FrequencyChange><Frequency dt:dt=""r8"">3215244</Frequency><Timestamp dt:dt=""r8"">5182461942882</Timestamp><Current dt:dt=""r8"">0</Current><DateUtc dt:dt=""string"">2018-10-10T16:37:12Z</DateUtc></FrequencyChange></FrequencyChanges></Clock>\n",KW_Experiment5A-8-1,59.945,1.0.0.105,2,-1562958759,Professional,2.0.10.353,2.0.10.353,10/10/2018,10/10/2018 16:37,12:37:12,2.0.10.248,2,2,1,2,,,,,,,,TrainingProc,BlockList,40,2,Distractor2.bmp,2,0,,0,1,137344,400,,0,0,yellow,400,1,400,,horizontal,yellow,Distractor2.bmp,lime,Distractor1.bmp,purple,Distractor1.bmp,blue,Distractor1.bmp,cyan,Distractor2.bmp,red,Target2.bmp,,,,TrialProc,2,TrainingTrialList,1,2,-999999,0,137744,0,2,557,138301,Target2.bmp,red,2,,,,12,3,40
KW_Experiment5A,8,1,"<?xml version=""1.0""?>\n<Clock xmlns:dt=""urn:schemas-microsoft-com:datatypes""><Description dt:dt=""string"">E-Prime Primary Realtime Clock</Description><StartTime><Timestamp dt:dt=""int"">0</Timestamp><DateUtc dt:dt=""string"">2018-10-10T16:37:12Z</DateUtc></StartTime><FrequencyChanges><FrequencyChange><Frequency dt:dt=""r8"">3215244</Frequency><Timestamp dt:dt=""r8"">5182461942882</Timestamp><Current dt:dt=""r8"">0</Current><DateUtc dt:dt=""string"">2018-10-10T16:37:12Z</DateUtc></FrequencyChange></FrequencyChanges></Clock>\n",KW_Experiment5A-8-1,59.945,1.0.0.105,2,-1562958759,Professional,2.0.10.353,2.0.10.353,10/10/2018,10/10/2018 16:37,12:37:12,2.0.10.248,2,2,1,2,,,,,,,,TrainingProc,BlockList,41,1,Distractor2.bmp,2,0,,0,1,139312,401,,0,0,yellow,400,1,400,,vertical,yellow,Distractor1.bmp,lime,Distractor1.bmp,cyan,Distractor1.bmp,red,Target1.bmp,blue,Distractor2.bmp,purple,Distractor1.bmp,,,,TrialProc,2,TrainingTrialList,1,1,-999999,1,139713,0,1,748,140461,Target1.bmp,red,1,,,,10,3,41
KW_Experiment5A,8,1,"<?xml version=""1.0""?>\n<Clock xmlns:dt=""urn:schemas-microsoft-com:datatypes""><Description dt:dt=""string"">E-Prime Primary Realtime Clock</Description><StartTime><Timestamp dt:dt=""int"">0</Timestamp><DateUtc dt:dt=""string"">2018-10-10T16:37:12Z</DateUtc></StartTime><FrequencyChanges><FrequencyChange><Frequency dt:dt=""r8"">3215244</Frequency><Timestamp dt:dt=""r8"">5182461942882</Timestamp><Current dt:dt=""r8"">0</Current><DateUtc dt:dt=""string"">2018-10-10T16:37:12Z</DateUtc></FrequencyChange></FrequencyChanges></Clock>\n",KW_Experiment5A-8-1,59.945,1.0.0.105,2,-1562958759,Professional,2.0.10.353,2.0.10.353,10/10/2018,10/10/2018 16:37,12:37:12,2.0.10.248,2,2,1,2,,,,,,,,TrainingProc,BlockList,42,1,Distractor2.bmp,2,0,,0,1,141481,400,,0,0,purple,400,1,400,5,vertical,purple,Distractor1.bmp,cyan,Distractor1.bmp,yellow,Distractor1.bmp,lime,Target1.bmp,red,Distractor2.bmp,blue,Distractor2.bmp,,,,TrialProc,,TrainingTrialList,0,1,-999999,0,141881,0,2,724,142605,Target1.bmp,lime,1,,,,4,3,42
KW_Experiment5A,8,1,"<?xml version=""1.0""?>\n<Clock xmlns:dt=""urn:schemas-microsoft-com:datatypes""><Description dt:dt=""string"">E-Prime Primary Realtime Clock</Description><StartTime><Timestamp dt:dt=""int"">0</Timestamp><DateUtc dt:dt=""string"">2018-10-10T16:37:12Z</DateUtc></StartTime><FrequencyChanges><FrequencyChange><Frequency dt:dt=""r8"">3215244</Frequency><Timestamp dt:dt=""r8"">5182461942882</Timestamp><Current dt:dt=""r8"">0</Current><DateUtc dt:dt=""string"">2018-10-10T16:37:12Z</DateUtc></FrequencyChange></FrequencyChanges></Clock>\n",KW_Experiment5A-8-1,59.945,1.0.0.105,2,-1562958759,Professional,2.0.10.353,2.0.10.353,10/10/2018,10/10/2018 16:37,12:37:12,2.0.10.248,2,2,1,2,,,,,,,,TrainingProc,BlockList,43,1,Distractor2.bmp,2,0,,0,1,143616,601,,0,0,red,600,3,600,1,vertical,red,Distractor2.bmp,lime,Target1.bmp,cyan,Distractor2.bmp,yellow,Distractor1.bmp,purple,Distractor1.bmp,blue,Distractor1.bmp,,,,TrialProc,,TrainingTrialList,1,1,-999999,1,144217,0,1,956,145173,Target1.bmp,lime,1,,,,2,3,43
KW_Experiment5A,8,1,"<?xml version=""1.0""?>\n<Clock xmlns:dt=""urn:schemas-microsoft-com:datatypes""><Description dt:dt=""string"">E-Prime Primary Realtime Clock</Description><StartTime><Timestamp dt:dt=""int"">0</Timestamp><DateUtc dt:dt=""string"">2018-10-10T16:37:12Z</DateUtc></StartTime><FrequencyChanges><FrequencyChange><Frequency dt:dt=""r8"">3215244</Frequency><Timestamp dt:dt=""r8"">5182461942882</Timestamp><Current dt:dt=""r8"">0</Current><DateUtc dt:dt=""string"">2018-10-10T16:37:12Z</DateUtc></FrequencyChange></FrequencyChanges></Clock>\n",KW_Experiment5A-8-1,59.945,1.0.0.105,2,-1562958759,Professional,2.0.10.353,2.0.10.353,10/10/2018,10/10/2018 16:37,12:37:12,2.0.10.248,2,2,1,2,,,,,,,,TrainingProc,BlockList,44,1,Distractor1.bmp,1,0,,0,1,146185,401,,0,0,red,400,1,400,1,vertical,red,Distractor1.bmp,yellow,Distractor2.bmp,blue,Distractor1.bmp,purple,Distractor2.bmp,lime,Target1.bmp,cyan,Distractor1.bmp,,,,TrialProc,,TrainingTrialList,1,1,-999999,1,146586,0,1,515,147101,Target1.bmp,lime,1,,,,5,3,44
KW_Experiment5A,8,1,"<?xml version=""1.0""?>\n<Clock xmlns:dt=""urn:schemas-microsoft-com:datatypes""><Description dt:dt=""string"">E-Prime Primary Realtime Clock</Description><StartTime><Timestamp dt:dt=""int"">0</Timestamp><DateUtc dt:dt=""string"">2018-10-10T16:37:12Z</DateUtc></StartTime><FrequencyChanges><FrequencyChange><Frequency dt:dt=""r8"">3215244</Frequency><Timestamp dt:dt=""r8"">5182461942882</Timestamp><Current dt:dt=""r8"">0</Current><DateUtc dt:dt=""string"">2018-10-10T16:37:12Z</DateUtc></FrequencyChange></FrequencyChanges></Clock>\n",KW_Experiment5A-8-1,59.945,1.0.0.105,2,-1562958759,Professional,2.0.10.353,2.0.10.353,10/10/2018,10/10/2018 16:37,12:37:12,2.0.10.248,2,2,1,2,,,,,,,,TrainingProc,BlockList,45,1,Distractor1.bmp,1,0,,0,1,148120,401,,0,0,yellow,400,1,400,,vertical,yellow,Distractor2.bmp,cyan,Distractor1.bmp,purple,Distractor1.bmp,red,Target1.bmp,blue,Distractor1.bmp,lime,Distractor1.bmp,,,,TrialProc,2,TrainingTrialList,1,1,-999999,1,148521,0,1,812,149333,Target1.bmp,red,1,,,,10,3,45
KW_Experiment5A,8,1,"<?xml version=""1.0""?>\n<Clock xmlns:dt=""urn:schemas-microsoft-com:datatypes""><Description dt:dt=""string"">E-Prime Primary Realtime Clock</Description><StartTime><Timestamp dt:dt=""int"">0</Timestamp><DateUtc dt:dt=""string"">2018-10-10T16:37:12Z</DateUtc></StartTime><FrequencyChanges><FrequencyChange><Frequency dt:dt=""r8"">3215244</Frequency><Timestamp dt:dt=""r8"">5182461942882</Timestamp><Current dt:dt=""r8"">0</Current><DateUtc dt:dt=""string"">2018-10-10T16:37:12Z</DateUtc></FrequencyChange></FrequencyChanges></Clock>\n",KW_Experiment5A-8-1,59.945,1.0.0.105,2,-1562958759,Professional,2.0.10.353,2.0.10.353,10/10/2018,10/10/2018 16:37,12:37:12,2.0.10.248,2,2,1,2,,,,,,,,TrainingProc,BlockList,46,1,Distractor1.bmp,1,0,,0,1,150356,400,,0,0,yellow,400,1,400,,vertical,yellow,Distractor1.bmp,blue,Distractor1.bmp,purple,Distractor2.bmp,cyan,Distractor1.bmp,red,Target1.bmp,lime,Distractor1.bmp,,,,TrialProc,2,TrainingTrialList,1,1,-999999,0,150756,0,1,513,151269,Target1.bmp,red,1,,,,11,3,46
KW_Experiment5A,8,1,"<?xml version=""1.0""?>\n<Clock xmlns:dt=""urn:schemas-microsoft-com:datatypes""><Description dt:dt=""string"">E-Prime Primary Realtime Clock</Description><StartTime><Timestamp dt:dt=""int"">0</Timestamp><DateUtc dt:dt=""string"">2018-10-10T16:37:12Z</DateUtc></StartTime><FrequencyChanges><FrequencyChange><Frequency dt:dt=""r8"">3215244</Frequency><Timestamp dt:dt=""r8"">5182461942882</Timestamp><Current dt:dt=""r8"">0</Current><DateUtc dt:dt=""string"">2018-10-10T16:37:12Z</DateUtc></FrequencyChange></FrequencyChanges></Clock>\n",KW_Experiment5A-8-1,59.945,1.0.0.105,2,-1562958759,Professional,2.0.10.353,2.0.10.353,10/10/2018,10/10/2018 16:37,12:37:12,2.0.10.248,2,2,1,2,,,,,,,,TrainingProc,BlockList,47,2,Distractor1.bmp,1,0,,0,1,152291,500,,0,0,blue,500,2,500,,horizontal,blue,Distractor1.bmp,lime,Distractor2.bmp,purple,Distractor1.bmp,cyan,Distractor1.bmp,red,Target2.bmp,yellow,Distractor1.bmp,,,,TrialProc,3,TrainingTrialList,0,2,-999999,0,152791,0,1,406,153197,Target2.bmp,red,2,,,,11,3,47
KW_Experiment5A,8,1,"<?xml version=""1.0""?>\n<Clock xmlns:dt=""urn:schemas-microsoft-com:datatypes""><Description dt:dt=""string"">E-Prime Primary Realtime Clock</Description><StartTime><Timestamp dt:dt=""int"">0</Timestamp><DateUtc dt:dt=""string"">2018-10-10T16:37:12Z</DateUtc></StartTime><FrequencyChanges><FrequencyChange><Frequency dt:dt=""r8"">3215244</Frequency><Timestamp dt:dt=""r8"">5182461942882</Timestamp><Current dt:dt=""r8"">0</Current><DateUtc dt:dt=""string"">2018-10-10T16:37:12Z</DateUtc></FrequencyChange></FrequencyChanges></Clock>\n",KW_Experiment5A-8-1,59.945,1.0.0.105,2,-1562958759,Professional,2.0.10.353,2.0.10.353,10/10/2018,10/10/2018 16:37,12:37:12,2.0.10.248,2,2,1,2,,,,,,,,TrainingProc,BlockList,48,2,Distractor1.bmp,1,0,,0,1,154209,501,,0,0,purple,500,2,500,,horizontal,purple,Distractor1.bmp,yellow,Distractor1.bmp,cyan,Distractor1.bmp,blue,Distractor1.bmp,lime,Distractor2.bmp,red,Target2.bmp,,,,TrialProc,5,TrainingTrialList,1,2,-999999,1,154710,0,2,775,155485,Target2.bmp,red,2,,,,12,3,48
KW_Experiment5A,8,1,"<?xml version=""1.0""?>\n<Clock xmlns:dt=""urn:schemas-microsoft-com:datatypes""><Description dt:dt=""string"">E-Prime Primary Realtime Clock</Description><StartTime><Timestamp dt:dt=""int"">0</Timestamp><DateUtc dt:dt=""string"">2018-10-10T16:37:12Z</DateUtc></StartTime><FrequencyChanges><FrequencyChange><Frequency dt:dt=""r8"">3215244</Frequency><Timestamp dt:dt=""r8"">5182461942882</Timestamp><Current dt:dt=""r8"">0</Current><DateUtc dt:dt=""string"">2018-10-10T16:37:12Z</DateUtc></FrequencyChange></FrequencyChanges></Clock>\n",KW_Experiment5A-8-1,59.945,1.0.0.105,2,-1562958759,Professional,2.0.10.353,2.0.10.353,10/10/2018,10/10/2018 16:37,12:37:12,2.0.10.248,3,2,1,3,,,,,,,,TrainingProc,BlockList,1,1,Distractor1.bmp,1,0,,0,26,159431,600,,0,0,cyan,600,3,600,,vertical,cyan,Distractor2.bmp,lime,Distractor2.bmp,yellow,Distractor2.bmp,blue,Distractor2.bmp,red,Target1.bmp,purple,Distractor1.bmp,,,,TrialProc,4,TrainingTrialList,1,1,-999999,0,160031,0,1,758,160789,Target1.bmp,red,1,,,,11,4,49
KW_Experiment5A,8,1,"<?xml version=""1.0""?>\n<Clock xmlns:dt=""urn:schemas-microsoft-com:datatypes""><Description dt:dt=""string"">E-Prime Primary Realtime Clock</Description><StartTime><Timestamp dt:dt=""int"">0</Timestamp><DateUtc dt:dt=""string"">2018-10-10T16:37:12Z</DateUtc></StartTime><FrequencyChanges><FrequencyChange><Frequency dt:dt=""r8"">3215244</Frequency><Timestamp dt:dt=""r8"">5182461942882</Timestamp><Current dt:dt=""r8"">0</Current><DateUtc dt:dt=""string"">2018-10-10T16:37:12Z</DateUtc></FrequencyChange></FrequencyChanges></Clock>\n",KW_Experiment5A-8-1,59.945,1.0.0.105,2,-1562958759,Professional,2.0.10.353,2.0.10.353,10/10/2018,10/10/2018 16:37,12:37:12,2.0.10.248,3,2,1,3,,,,,,,,TrainingProc,BlockList,2,1,Distractor2.bmp,2,0,,0,1,161800,600,,0,0,yellow,600,3,600,,vertical,yellow,Distractor2.bmp,cyan,Distractor1.bmp,lime,Distractor1.bmp,blue,Distractor2.bmp,red,Target1.bmp,purple,Distractor2.bmp,,,,TrialProc,2,TrainingTrialList,1,1,-999999,0,162400,0,1,437,162837,Target1.bmp,red,1,,,,11,4,50
KW_Experiment5A,8,1,"<?xml version=""1.0""?>\n<Clock xmlns:dt=""urn:schemas-microsoft-com:datatypes""><Description dt:dt=""string"">E-Prime Primary Realtime Clock</Description><StartTime><Timestamp dt:dt=""int"">0</Timestamp><DateUtc dt:dt=""string"">2018-10-10T16:37:12Z</DateUtc></StartTime><FrequencyChanges><FrequencyChange><Frequency dt:dt=""r8"">3215244</Frequency><Timestamp dt:dt=""r8"">5182461942882</Timestamp><Current dt:dt=""r8"">0</Current><DateUtc dt:dt=""string"">2018-10-10T16:37:12Z</DateUtc></FrequencyChange></FrequencyChanges></Clock>\n",KW_Experiment5A-8-1,59.945,1.0.0.105,2,-1562958759,Professional,2.0.10.353,2.0.10.353,10/10/2018,10/10/2018 16:37,12:37:12,2.0.10.248,3,2,1,3,,,,,,,,TrainingProc,BlockList,3,1,Distractor2.bmp,2,0,,1,0,163851,501,,0,0,red,500,2,500,1,vertical,red,Distractor2.bmp,blue,Distractor1.bmp,lime,Target1.bmp,cyan,Distractor2.bmp,yellow,Distractor1.bmp,purple,Distractor2.bmp,,,,TrialProc,,TrainingTrialList,1,1,-999999,1,164352,0,1,1701,166053,Target1.bmp,lime,1,,,,3,4,51
KW_Experiment5A,8,1,"<?xml version=""1.0""?>\n<Clock xmlns:dt=""urn:schemas-microsoft-com:datatypes""><Description dt:dt=""string"">E-Prime Primary Realtime Clock</Description><StartTime><Timestamp dt:dt=""int"">0</Timestamp><DateUtc dt:dt=""string"">2018-10-10T16:37:12Z</DateUtc></StartTime><FrequencyChanges><FrequencyChange><Frequency dt:dt=""r8"">3215244</Frequency><Timestamp dt:dt=""r8"">5182461942882</Timestamp><Current dt:dt=""r8"">0</Current><DateUtc dt:dt=""string"">2018-10-10T16:37:12Z</DateUtc></FrequencyChange></FrequencyChanges></Clock>\n",KW_Experiment5A-8-1,59.945,1.0.0.105,2,-1562958759,Professional,2.0.10.353,2.0.10.353,10/10/2018,10/10/2018 16:37,12:37:12,2.0.10.248,3,2,1,3,,,,,,,,TrainingProc,BlockList,4,2,Distractor2.bmp,2,0,,0,1,167071,601,,0,0,yellow,600,3,600,2,horizontal,yellow,Distractor2.bmp,red,Distractor1.bmp,purple,Distractor2.bmp,lime,Target2.bmp,cyan,Distractor2.bmp,blue,Distractor2.bmp,,,,TrialProc,,TrainingTrialList,1,2,-999999,1,167672,0,2,805,168477,Target2.bmp,lime,2,,,,4,4,52
KW_Experiment5A,8,1,"<?xml version=""1.0""?>\n<Clock xmlns:dt=""urn:schemas-microsoft-com:datatypes""><Description dt:dt=""string"">E-Prime Primary Realtime Clock</Description><StartTime><Timestamp dt:dt=""int"">0</Timestamp><DateUtc dt:dt=""string"">2018-10-10T16:37:12Z</DateUtc></StartTime><FrequencyChanges><FrequencyChange><Frequency dt:dt=""r8"">3215244</Frequency><Timestamp dt:dt=""r8"">5182461942882</Timestamp><Current dt:dt=""r8"">0</Current><DateUtc dt:dt=""string"">2018-10-10T16:37:12Z</DateUtc></FrequencyChange></FrequencyChanges></Clock>\n",KW_Experiment5A-8-1,59.945,1.0.0.105,2,-1562958759,Professional,2.0.10.353,2.0.10.353,10/10/2018,10/10/2018 16:37,12:37:12,2.0.10.248,3,2,1,3,,,,,,,,TrainingProc,BlockList,5,1,Distractor2.bmp,2,0,,0,1,169490,601,,0,0,purple,600,3,600,,vertical,purple,Distractor2.bmp,red,Target1.bmp,yellow,Distractor2.bmp,lime,Distractor1.bmp,cyan,Distractor1.bmp,blue,Distractor1.bmp,,,,TrialProc,5,TrainingTrialList,1,1,-999999,1,170091,0,1,938,171029,Target1.bmp,red,1,,,,8,4,53
KW_Experiment5A,8,1,"<?xml version=""1.0""?>\n<Clock xmlns:dt=""urn:schemas-microsoft-com:datatypes""><Description dt:dt=""string"">E-Prime Primary Realtime Clock</Description><StartTime><Timestamp dt:dt=""int"">0</Timestamp><DateUtc dt:dt=""string"">2018-10-10T16:37:12Z</DateUtc></StartTime><FrequencyChanges><FrequencyChange><Frequency dt:dt=""r8"">3215244</Frequency><Timestamp dt:dt=""r8"">5182461942882</Timestamp><Current dt:dt=""r8"">0</Current><DateUtc dt:dt=""string"">2018-10-10T16:37:12Z</DateUtc></FrequencyChange></FrequencyChanges></Clock>\n",KW_Experiment5A-8-1,59.945,1.0.0.105,2,-1562958759,Professional,2.0.10.353,2.0.10.353,10/10/2018,10/10/2018 16:37,12:37:12,2.0.10.248,3,2,1,3,,,,,,,,TrainingProc,BlockList,6,1,Distractor1.bmp,1,0,,0,1,172042,501,,0,0,cyan,500,2,500,,vertical,cyan,Distractor2.bmp,lime,Distractor2.bmp,red,Target1.bmp,purple,Distractor1.bmp,yellow,Distractor2.bmp,blue,Distractor1.bmp,,,,TrialProc,4,TrainingTrialList,1,1,-999999,1,172543,0,1,606,173149,Target1.bmp,red,1,,,,9,4,54
KW_Experiment5A,8,1,"<?xml version=""1.0""?>\n<Clock xmlns:dt=""urn:schemas-microsoft-com:datatypes""><Description dt:dt=""string"">E-Prime Primary Realtime Clock</Description><StartTime><Timestamp dt:dt=""int"">0</Timestamp><DateUtc dt:dt=""string"">2018-10-10T16:37:12Z</DateUtc></StartTime><FrequencyChanges><FrequencyChange><Frequency dt:dt=""r8"">3215244</Frequency><Timestamp dt:dt=""r8"">5182461942882</Timestamp><Current dt:dt=""r8"">0</Current><DateUtc dt:dt=""string"">2018-10-10T16:37:12Z</DateUtc></FrequencyChange></FrequencyChanges></Clock>\n",KW_Experiment5A-8-1,59.945,1.0.0.105,2,-1562958759,Professional,2.0.10.353,2.0.10.353,10/10/2018,10/10/2018 16:37,12:37:12,2.0.10.248,3,2,1,3,,,,,,,,TrainingProc,BlockList,7,1,Distractor1.bmp,1,0,,0,1,174161,500,,0,0,red,500,2,500,1,vertical,lime,Target1.bmp,red,Distractor1.bmp,yellow,Distractor2.bmp,cyan,Distractor2.bmp,purple,Distractor1.bmp,blue,Distractor1.bmp,,,,TrialProc,,TrainingTrialList,1,1,-999999,0,174661,0,1,568,175229,Target1.bmp,lime,1,,,,1,4,55
KW_Experiment5A,8,1,"<?xml version=""1.0""?>\n<Clock xmlns:dt=""urn:schemas-microsoft-com:datatypes""><Description dt:dt=""string"">E-Prime Primary Realtime Clock</Description><StartTime><Timestamp dt:dt=""int"">0</Timestamp><DateUtc dt:dt=""string"">2018-10-10T16:37:12Z</DateUtc></StartTime><FrequencyChanges><FrequencyChange><Frequency dt:dt=""r8"">3215244</Frequency><Timestamp dt:dt=""r8"">5182461942882</Timestamp><Current dt:dt=""r8"">0</Current><DateUtc dt:dt=""string"">2018-10-10T16:37:12Z</DateUtc></FrequencyChange></FrequencyChanges></Clock>\n",KW_Experiment5A-8-1,59.945,1.0.0.105,2,-1562958759,Professional,2.0.10.353,2.0.10.353,10/10/2018,10/10/2018 16:37,12:37:12,2.0.10.248,3,2,1,3,,,,,,,,TrainingProc,BlockList,8,1,Distractor2.bmp,2,0,,0,1,176246,501,,0,0,blue,500,2,500,3,vertical,blue,Distractor1.bmp,lime,Target1.bmp,yellow,Distractor2.bmp,purple,Distractor2.bmp,cyan,Distractor1.bmp,red,Distractor1.bmp,,,,TrialProc,,TrainingTrialList,1,1,-999999,1,176747,0,1,1170,177917,Target1.bmp,lime,1,,,,2,4,56
KW_Experiment5A,8,1,"<?xml version=""1.0""?>\n<Clock xmlns:dt=""urn:schemas-microsoft-com:datatypes""><Description dt:dt=""string"">E-Prime Primary Realtime Clock</Description><StartTime><Timestamp dt:dt=""int"">0</Timestamp><DateUtc dt:dt=""string"">2018-10-10T16:37:12Z</DateUtc></StartTime><FrequencyChanges><FrequencyChange><Frequency dt:dt=""r8"">3215244</Frequency><Timestamp dt:dt=""r8"">5182461942882</Timestamp><Current dt:dt=""r8"">0</Current><DateUtc dt:dt=""string"">2018-10-10T16:37:12Z</DateUtc></FrequencyChange></FrequencyChanges></Clock>\n",KW_Experiment5A-8-1,59.945,1.0.0.105,2,-1562958759,Professional,2.0.10.353,2.0.10.353,10/10/2018,10/10/2018 16:37,12:37:12,2.0.10.248,3,2,1,3,,,,,,,,TrainingProc,BlockList,9,2,Distractor1.bmp,1,0,,0,1,178932,601,,0,0,lime,600,3,600,,horizontal,lime,Distractor2.bmp,blue,Distractor2.bmp,purple,Distractor1.bmp,cyan,Distractor2.bmp,red,Target2.bmp,yellow,Distractor1.bmp,,,,TrialProc,6,TrainingTrialList,1,2,-999999,1,179533,0,2,424,179957,Target2.bmp,red,2,,,,11,4,57
KW_Experiment5A,8,1,"<?xml version=""1.0""?>\n<Clock xmlns:dt=""urn:schemas-microsoft-com:datatypes""><Description dt:dt=""string"">E-Prime Primary Realtime Clock</Description><StartTime><Timestamp dt:dt=""int"">0</Timestamp><DateUtc dt:dt=""string"">2018-10-10T16:37:12Z</DateUtc></StartTime><FrequencyChanges><FrequencyChange><Frequency dt:dt=""r8"">3215244</Frequency><Timestamp dt:dt=""r8"">5182461942882</Timestamp><Current dt:dt=""r8"">0</Current><DateUtc dt:dt=""string"">2018-10-10T16:37:12Z</DateUtc></FrequencyChange></FrequencyChanges></Clock>\n",KW_Experiment5A-8-1,59.945,1.0.0.105,2,-1562958759,Professional,2.0.10.353,2.0.10.353,10/10/2018,10/10/2018 16:37,12:37:12,2.0.10.248,3,2,1,3,,,,,,,,TrainingProc,BlockList,10,2,Distractor2.bmp,2,0,,0,1,180967,601,,0,0,blue,600,3,600,,horizontal,blue,Distractor1.bmp,red,Target2.bmp,lime,Distractor2.bmp,yellow,Distractor2.bmp,purple,Distractor1.bmp,cyan,Distractor1.bmp,,,,TrialProc,3,TrainingTrialList,1,2,-999999,1,181568,0,2,437,182005,Target2.bmp,red,2,,,,8,4,58
KW_Experiment5A,8,1,"<?xml version=""1.0""?>\n<Clock xmlns:dt=""urn:schemas-microsoft-com:datatypes""><Description dt:dt=""string"">E-Prime Primary Realtime Clock</Description><StartTime><Timestamp dt:dt=""int"">0</Timestamp><DateUtc dt:dt=""string"">2018-10-10T16:37:12Z</DateUtc></StartTime><FrequencyChanges><FrequencyChange><Frequency dt:dt=""r8"">3215244</Frequency><Timestamp dt:dt=""r8"">5182461942882</Timestamp><Current dt:dt=""r8"">0</Current><DateUtc dt:dt=""string"">2018-10-10T16:37:12Z</DateUtc></FrequencyChange></FrequencyChanges></Clock>\n",KW_Experiment5A-8-1,59.945,1.0.0.105,2,-1562958759,Professional,2.0.10.353,2.0.10.353,10/10/2018,10/10/2018 16:37,12:37:12,2.0.10.248,3,2,1,3,,,,,,,,TrainingProc,BlockList,11,2,Distractor2.bmp,2,0,,0,1,183019,401,,0,0,yellow,400,1,400,,horizontal,yellow,Distractor1.bmp,purple,Distractor2.bmp,red,Target2.bmp,lime,Distractor2.bmp,blue,Distractor2.bmp,cyan,Distractor1.bmp,,,,TrialProc,2,TrainingTrialList,1,2,-999999,1,183420,0,2,521,183941,Target2.bmp,red,2,,,,9,4,59
KW_Experiment5A,8,1,"<?xml version=""1.0""?>\n<Clock xmlns:dt=""urn:schemas-microsoft-com:datatypes""><Description dt:dt=""string"">E-Prime Primary Realtime Clock</Description><StartTime><Timestamp dt:dt=""int"">0</Timestamp><DateUtc dt:dt=""string"">2018-10-10T16:37:12Z</DateUtc></StartTime><FrequencyChanges><FrequencyChange><Frequency dt:dt=""r8"">3215244</Frequency><Timestamp dt:dt=""r8"">5182461942882</Timestamp><Current dt:dt=""r8"">0</Current><DateUtc dt:dt=""string"">2018-10-10T16:37:12Z</DateUtc></FrequencyChange></FrequencyChanges></Clock>\n",KW_Experiment5A-8-1,59.945,1.0.0.105,2,-1562958759,Professional,2.0.10.353,2.0.10.353,10/10/2018,10/10/2018 16:37,12:37:12,2.0.10.248,3,2,1,3,,,,,,,,TrainingProc,BlockList,12,1,Distractor2.bmp,2,0,,0,1,184954,501,,0,0,lime,500,2,500,,vertical,lime,Distractor2.bmp,yellow,Distractor2.bmp,red,Target1.bmp,cyan,Distractor2.bmp,purple,Distractor1.bmp,blue,Distractor2.bmp,,,,TrialProc,6,TrainingTrialList,0,1,-999999,1,185455,0,2,645,186100,Target1.bmp,red,1,,,,9,4,60
KW_Experiment5A,8,1,"<?xml version=""1.0""?>\n<Clock xmlns:dt=""urn:schemas-microsoft-com:datatypes""><Description dt:dt=""string"">E-Prime Primary Realtime Clock</Description><StartTime><Timestamp dt:dt=""int"">0</Timestamp><DateUtc dt:dt=""string"">2018-10-10T16:37:12Z</DateUtc></StartTime><FrequencyChanges><FrequencyChange><Frequency dt:dt=""r8"">3215244</Frequency><Timestamp dt:dt=""r8"">5182461942882</Timestamp><Current dt:dt=""r8"">0</Current><DateUtc dt:dt=""string"">2018-10-10T16:37:12Z</DateUtc></FrequencyChange></FrequencyChanges></Clock>\n",KW_Experiment5A-8-1,59.945,1.0.0.105,2,-1562958759,Professional,2.0.10.353,2.0.10.353,10/10/2018,10/10/2018 16:37,12:37:12,2.0.10.248,3,2,1,3,,,,,,,,TrainingProc,BlockList,13,1,Distractor2.bmp,2,0,,0,1,187123,601,,0,0,purple,600,3,600,5,vertical,purple,Distractor1.bmp,red,Distractor2.bmp,cyan,Distractor2.bmp,yellow,Distractor1.bmp,lime,Target1.bmp,blue,Distractor2.bmp,,,,TrialProc,,TrainingTrialList,0,1,-999999,1,187724,0,2,856,188580,Target1.bmp,lime,1,,,,5,4,61
KW_Experiment5A,8,1,"<?xml version=""1.0""?>\n<Clock xmlns:dt=""urn:schemas-microsoft-com:datatypes""><Description dt:dt=""string"">E-Prime Primary Realtime Clock</Description><StartTime><Timestamp dt:dt=""int"">0</Timestamp><DateUtc dt:dt=""string"">2018-10-10T16:37:12Z</DateUtc></StartTime><FrequencyChanges><FrequencyChange><Frequency dt:dt=""r8"">3215244</Frequency><Timestamp dt:dt=""r8"">5182461942882</Timestamp><Current dt:dt=""r8"">0</Current><DateUtc dt:dt=""string"">2018-10-10T16:37:12Z</DateUtc></FrequencyChange></FrequencyChanges></Clock>\n",KW_Experiment5A-8-1,59.945,1.0.0.105,2,-1562958759,Professional,2.0.10.353,2.0.10.353,10/10/2018,10/10/2018 16:37,12:37:12,2.0.10.248,3,2,1,3,,,,,,,,TrainingProc,BlockList,14,1,Distractor2.bmp,2,0,,0,1,189592,400,,0,0,lime,400,1,400,,vertical,lime,Distractor2.bmp,yellow,Distractor2.bmp,blue,Distractor1.bmp,red,Target1.bmp,cyan,Distractor2.bmp,purple,Distractor2.bmp,,,,TrialProc,6,TrainingTrialList,1,1,-999999,0,189992,0,1,948,190940,Target1.bmp,red,1,,,,10,4,62
KW_Experiment5A,8,1,"<?xml version=""1.0""?>\n<Clock xmlns:dt=""urn:schemas-microsoft-com:datatypes""><Description dt:dt=""string"">E-Prime Primary Realtime Clock</Description><StartTime><Timestamp dt:dt=""int"">0</Timestamp><DateUtc dt:dt=""string"">2018-10-10T16:37:12Z</DateUtc></StartTime><FrequencyChanges><FrequencyChange><Frequency dt:dt=""r8"">3215244</Frequency><Timestamp dt:dt=""r8"">5182461942882</Timestamp><Current dt:dt=""r8"">0</Current><DateUtc dt:dt=""string"">2018-10-10T16:37:12Z</DateUtc></FrequencyChange></FrequencyChanges></Clock>\n",KW_Experiment5A-8-1,59.945,1.0.0.105,2,-1562958759,Professional,2.0.10.353,2.0.10.353,10/10/2018,10/10/2018 16:37,12:37:12,2.0.10.248,3,2,1,3,,,,,,,,TrainingProc,BlockList,15,2,Distractor1.bmp,1,0,,0,1,191961,600,,0,0,cyan,600,3,600,,horizontal,cyan,Distractor2.bmp,red,Target2.bmp,purple,Distractor1.bmp,blue,Distractor1.bmp,yellow,Distractor1.bmp,lime,Distractor2.bmp,,,,TrialProc,4,TrainingTrialList,1,2,-999999,0,192561,0,2,683,193244,Target2.bmp,red,2,,,,8,4,63
KW_Experiment5A,8,1,"<?xml version=""1.0""?>\n<Clock xmlns:dt=""urn:schemas-microsoft-com:datatypes""><Description dt:dt=""string"">E-Prime Primary Realtime Clock</Description><StartTime><Timestamp dt:dt=""int"">0</Timestamp><DateUtc dt:dt=""string"">2018-10-10T16:37:12Z</DateUtc></StartTime><FrequencyChanges><FrequencyChange><Frequency dt:dt=""r8"">3215244</Frequency><Timestamp dt:dt=""r8"">5182461942882</Timestamp><Current dt:dt=""r8"">0</Current><DateUtc dt:dt=""string"">2018-10-10T16:37:12Z</DateUtc></FrequencyChange></FrequencyChanges></Clock>\n",KW_Experiment5A-8-1,59.945,1.0.0.105,2,-1562958759,Professional,2.0.10.353,2.0.10.353,10/10/2018,10/10/2018 16:37,12:37:12,2.0.10.248,3,2,1,3,,,,,,,,TrainingProc,BlockList,16,1,Distractor1.bmp,1,0,,0,1,194263,400,,0,0,cyan,400,1,400,4,vertical,cyan,Distractor1.bmp,yellow,Distractor1.bmp,blue,Distractor1.bmp,red,Distractor2.bmp,purple,Distractor1.bmp,lime,Target1.bmp,,,,TrialProc,,TrainingTrialList,1,1,-999999,0,194663,0,1,797,195460,Target1.bmp,lime,1,,,,6,4,64
KW_Experiment5A,8,1,"<?xml version=""1.0""?>\n<Clock xmlns:dt=""urn:schemas-microsoft-com:datatypes""><Description dt:dt=""string"">E-Prime Primary Realtime Clock</Description><StartTime><Timestamp dt:dt=""int"">0</Timestamp><DateUtc dt:dt=""string"">2018-10-10T16:37:12Z</DateUtc></StartTime><FrequencyChanges><FrequencyChange><Frequency dt:dt=""r8"">3215244</Frequency><Timestamp dt:dt=""r8"">5182461942882</Timestamp><Current dt:dt=""r8"">0</Current><DateUtc dt:dt=""string"">2018-10-10T16:37:12Z</DateUtc></FrequencyChange></FrequencyChanges></Clock>\n",KW_Experiment5A-8-1,59.945,1.0.0.105,2,-1562958759,Professional,2.0.10.353,2.0.10.353,10/10/2018,10/10/2018 16:37,12:37:12,2.0.10.248,3,2,1,3,,,,,,,,TrainingProc,BlockList,17,2,Distractor1.bmp,1,0,,0,1,196482,500,,0,0,purple,500,2,500,,horizontal,purple,Distractor1.bmp,cyan,Distractor1.bmp,lime,Distractor2.bmp,yellow,Distractor1.bmp,blue,Distractor2.bmp,red,Target2.bmp,,,,TrialProc,5,TrainingTrialList,0,2,-999999,0,196982,0,1,942,197924,Target2.bmp,red,2,,,,12,4,65
KW_Experiment5A,8,1,"<?xml version=""1.0""?>\n<Clock xmlns:dt=""urn:schemas-microsoft-com:datatypes""><Description dt:dt=""string"">E-Prime Primary Realtime Clock</Description><StartTime><Timestamp dt:dt=""int"">0</Timestamp><DateUtc dt:dt=""string"">2018-10-10T16:37:12Z</DateUtc></StartTime><FrequencyChanges><FrequencyChange><Frequency dt:dt=""r8"">3215244</Frequency><Timestamp dt:dt=""r8"">5182461942882</Timestamp><Current dt:dt=""r8"">0</Current><DateUtc dt:dt=""string"">2018-10-10T16:37:12Z</DateUtc></FrequencyChange></FrequencyChanges></Clock>\n",KW_Experiment5A-8-1,59.945,1.0.0.105,2,-1562958759,Professional,2.0.10.353,2.0.10.353,10/10/2018,10/10/2018 16:37,12:37:12,2.0.10.248,3,2,1,3,,,,,,,,TrainingProc,BlockList,18,1,Distractor2.bmp,2,0,,0,1,198951,600,,0,0,lime,600,3,600,,vertical,lime,Distractor2.bmp,blue,Distractor1.bmp,cyan,Distractor1.bmp,red,Target1.bmp,purple,Distractor2.bmp,yellow,Distractor1.bmp,,,,TrialProc,6,TrainingTrialList,1,1,-999999,0,199551,0,1,845,200396,Target1.bmp,red,1,,,,10,4,66
KW_Experiment5A,8,1,"<?xml version=""1.0""?>\n<Clock xmlns:dt=""urn:schemas-microsoft-com:datatypes""><Description dt:dt=""string"">E-Prime Primary Realtime Clock</Description><StartTime><Timestamp dt:dt=""int"">0</Timestamp><DateUtc dt:dt=""string"">2018-10-10T16:37:12Z</DateUtc></StartTime><FrequencyChanges><FrequencyChange><Frequency dt:dt=""r8"">3215244</Frequency><Timestamp dt:dt=""r8"">5182461942882</Timestamp><Current dt:dt=""r8"">0</Current><DateUtc dt:dt=""string"">2018-10-10T16:37:12Z</DateUtc></FrequencyChange></FrequencyChanges></Clock>\n",KW_Experiment5A-8-1,59.945,1.0.0.105,2,-1562958759,Professional,2.0.10.353,2.0.10.353,10/10/2018,10/10/2018 16:37,12:37:12,2.0.10.248,3,2,1,3,,,,,,,,TrainingProc,BlockList,19,2,Distractor1.bmp,1,0,,1,0,201419,601,,0,0,lime,600,3,600,,horizontal,lime,Distractor1.bmp,blue,Distractor2.bmp,purple,Distractor2.bmp,cyan,Distractor1.bmp,yellow,Distractor1.bmp,red,Target2.bmp,,,,TrialProc,6,TrainingTrialList,1,2,-999999,1,202020,0,2,720,202740,Target2.bmp,red,2,,,,12,4,67
KW_Experiment5A,8,1,"<?xml version=""1.0""?>\n<Clock xmlns:dt=""urn:schemas-microsoft-com:datatypes""><Description dt:dt=""string"">E-Prime Primary Realtime Clock</Description><StartTime><Timestamp dt:dt=""int"">0</Timestamp><DateUtc dt:dt=""string"">2018-10-10T16:37:12Z</DateUtc></StartTime><FrequencyChanges><FrequencyChange><Frequency dt:dt=""r8"">3215244</Frequency><Timestamp dt:dt=""r8"">5182461942882</Timestamp><Current dt:dt=""r8"">0</Current><DateUtc dt:dt=""string"">2018-10-10T16:37:12Z</DateUtc></FrequencyChange></FrequencyChanges></Clock>\n",KW_Experiment5A-8-1,59.945,1.0.0.105,2,-1562958759,Professional,2.0.10.353,2.0.10.353,10/10/2018,10/10/2018 16:37,12:37:12,2.0.10.248,3,2,1,3,,,,,,,,TrainingProc,BlockList,20,2,Distractor2.bmp,2,0,,0,1,203755,600,,0,0,blue,600,3,600,,horizontal,red,Target2.bmp,lime,Distractor2.bmp,cyan,Distractor1.bmp,yellow,Distractor2.bmp,purple,Distractor2.bmp,blue,Distractor1.bmp,,,,TrialProc,3,TrainingTrialList,1,2,-999999,0,204355,0,2,601,204956,Target2.bmp,red,2,,,,7,4,68
KW_Experiment5A,8,1,"<?xml version=""1.0""?>\n<Clock xmlns:dt=""urn:schemas-microsoft-com:datatypes""><Description dt:dt=""string"">E-Prime Primary Realtime Clock</Description><StartTime><Timestamp dt:dt=""int"">0</Timestamp><DateUtc dt:dt=""string"">2018-10-10T16:37:12Z</DateUtc></StartTime><FrequencyChanges><FrequencyChange><Frequency dt:dt=""r8"">3215244</Frequency><Timestamp dt:dt=""r8"">5182461942882</Timestamp><Current dt:dt=""r8"">0</Current><DateUtc dt:dt=""string"">2018-10-10T16:37:12Z</DateUtc></FrequencyChange></FrequencyChanges></Clock>\n",KW_Experiment5A-8-1,59.945,1.0.0.105,2,-1562958759,Professional,2.0.10.353,2.0.10.353,10/10/2018,10/10/2018 16:37,12:37:12,2.0.10.248,3,2,1,3,,,,,,,,TrainingProc,BlockList,21,2,Distractor1.bmp,1,0,,0,1,205974,400,,0,0,yellow,400,1,400,,horizontal,red,Target2.bmp,cyan,Distractor1.bmp,blue,Distractor2.bmp,lime,Distractor1.bmp,purple,Distractor1.bmp,yellow,Distractor1.bmp,,,,TrialProc,2,TrainingTrialList,1,2,-999999,0,206374,0,2,462,206836,Target2.bmp,red,2,,,,7,4,69
KW_Experiment5A,8,1,"<?xml version=""1.0""?>\n<Clock xmlns:dt=""urn:schemas-microsoft-com:datatypes""><Description dt:dt=""string"">E-Prime Primary Realtime Clock</Description><StartTime><Timestamp dt:dt=""int"">0</Timestamp><DateUtc dt:dt=""string"">2018-10-10T16:37:12Z</DateUtc></StartTime><FrequencyChanges><FrequencyChange><Frequency dt:dt=""r8"">3215244</Frequency><Timestamp dt:dt=""r8"">5182461942882</Timestamp><Current dt:dt=""r8"">0</Current><DateUtc dt:dt=""string"">2018-10-10T16:37:12Z</DateUtc></FrequencyChange></FrequencyChanges></Clock>\n",KW_Experiment5A-8-1,59.945,1.0.0.105,2,-1562958759,Professional,2.0.10.353,2.0.10.353,10/10/2018,10/10/2018 16:37,12:37:12,2.0.10.248,3,2,1,3,,,,,,,,TrainingProc,BlockList,22,2,Distractor1.bmp,1,0,,0,1,207859,500,,0,0,cyan,500,2,500,,horizontal,cyan,Distractor1.bmp,yellow,Distractor1.bmp,blue,Distractor2.bmp,lime,Distractor2.bmp,purple,Distractor1.bmp,red,Target2.bmp,,,,TrialProc,4,TrainingTrialList,1,2,-999999,0,208359,0,2,653,209012,Target2.bmp,red,2,,,,12,4,70
KW_Experiment5A,8,1,"<?xml version=""1.0""?>\n<Clock xmlns:dt=""urn:schemas-microsoft-com:datatypes""><Description dt:dt=""string"">E-Prime Primary Realtime Clock</Description><StartTime><Timestamp dt:dt=""int"">0</Timestamp><DateUtc dt:dt=""string"">2018-10-10T16:37:12Z</DateUtc></StartTime><FrequencyChanges><FrequencyChange><Frequency dt:dt=""r8"">3215244</Frequency><Timestamp dt:dt=""r8"">5182461942882</Timestamp><Current dt:dt=""r8"">0</Current><DateUtc dt:dt=""string"">2018-10-10T16:37:12Z</DateUtc></FrequencyChange></FrequencyChanges></Clock>\n",KW_Experiment5A-8-1,59.945,1.0.0.105,2,-1562958759,Professional,2.0.10.353,2.0.10.353,10/10/2018,10/10/2018 16:37,12:37:12,2.0.10.248,3,2,1,3,,,,,,,,TrainingProc,BlockList,23,2,Distractor2.bmp,2,0,,0,1,210027,601,,0,0,lime,600,3,600,,horizontal,red,Target2.bmp,purple,Distractor2.bmp,blue,Distractor1.bmp,cyan,Distractor1.bmp,yellow,Distractor1.bmp,lime,Distractor2.bmp,,,,TrialProc,6,TrainingTrialList,1,2,-999999,1,210628,0,2,592,211220,Target2.bmp,red,2,,,,7,4,71
KW_Experiment5A,8,1,"<?xml version=""1.0""?>\n<Clock xmlns:dt=""urn:schemas-microsoft-com:datatypes""><Description dt:dt=""string"">E-Prime Primary Realtime Clock</Description><StartTime><Timestamp dt:dt=""int"">0</Timestamp><DateUtc dt:dt=""string"">2018-10-10T16:37:12Z</DateUtc></StartTime><FrequencyChanges><FrequencyChange><Frequency dt:dt=""r8"">3215244</Frequency><Timestamp dt:dt=""r8"">5182461942882</Timestamp><Current dt:dt=""r8"">0</Current><DateUtc dt:dt=""string"">2018-10-10T16:37:12Z</DateUtc></FrequencyChange></FrequencyChanges></Clock>\n",KW_Experiment5A-8-1,59.945,1.0.0.105,2,-1562958759,Professional,2.0.10.353,2.0.10.353,10/10/2018,10/10/2018 16:37,12:37:12,2.0.10.248,3,2,1,3,,,,,,,,TrainingProc,BlockList,24,2,Distractor1.bmp,1,0,,1,0,212229,401,,0,0,blue,400,1,400,,horizontal,blue,Distractor1.bmp,cyan,Distractor1.bmp,purple,Distractor2.bmp,red,Target2.bmp,yellow,Distractor1.bmp,lime,Distractor1.bmp,,,,TrialProc,3,TrainingTrialList,0,2,-999999,1,212630,0,1,566,213196,Target2.bmp,red,2,,,,10,4,72
KW_Experiment5A,8,1,"<?xml version=""1.0""?>\n<Clock xmlns:dt=""urn:schemas-microsoft-com:datatypes""><Description dt:dt=""string"">E-Prime Primary Realtime Clock</Description><StartTime><Timestamp dt:dt=""int"">0</Timestamp><DateUtc dt:dt=""string"">2018-10-10T16:37:12Z</DateUtc></StartTime><FrequencyChanges><FrequencyChange><Frequency dt:dt=""r8"">3215244</Frequency><Timestamp dt:dt=""r8"">5182461942882</Timestamp><Current dt:dt=""r8"">0</Current><DateUtc dt:dt=""string"">2018-10-10T16:37:12Z</DateUtc></FrequencyChange></FrequencyChanges></Clock>\n",KW_Experiment5A-8-1,59.945,1.0.0.105,2,-1562958759,Professional,2.0.10.353,2.0.10.353,10/10/2018,10/10/2018 16:37,12:37:12,2.0.10.248,3,2,1,3,,,,,,,,TrainingProc,BlockList,25,2,Distractor1.bmp,1,0,,0,1,214215,400,,0,0,yellow,400,1,400,2,horizontal,yellow,Distractor1.bmp,lime,Target2.bmp,blue,Distractor1.bmp,cyan,Distractor1.bmp,red,Distractor1.bmp,purple,Distractor1.bmp,,,,TrialProc,,TrainingTrialList,0,2,-999999,0,214615,0,1,829,215444,Target2.bmp,lime,2,,,,2,5,73
KW_Experiment5A,8,1,"<?xml version=""1.0""?>\n<Clock xmlns:dt=""urn:schemas-microsoft-com:datatypes""><Description dt:dt=""string"">E-Prime Primary Realtime Clock</Description><StartTime><Timestamp dt:dt=""int"">0</Timestamp><DateUtc dt:dt=""string"">2018-10-10T16:37:12Z</DateUtc></StartTime><FrequencyChanges><FrequencyChange><Frequency dt:dt=""r8"">3215244</Frequency><Timestamp dt:dt=""r8"">5182461942882</Timestamp><Current dt:dt=""r8"">0</Current><DateUtc dt:dt=""string"">2018-10-10T16:37:12Z</DateUtc></FrequencyChange></FrequencyChanges></Clock>\n",KW_Experiment5A-8-1,59.945,1.0.0.105,2,-1562958759,Professional,2.0.10.353,2.0.10.353,10/10/2018,10/10/2018 16:37,12:37:12,2.0.10.248,3,2,1,3,,,,,,,,TrainingProc,BlockList,26,1,Distractor1.bmp,1,0,,0,1,216467,500,,0,0,yellow,500,2,500,,vertical,red,Target1.bmp,cyan,Distractor1.bmp,blue,Distractor1.bmp,lime,Distractor1.bmp,purple,Distractor1.bmp,yellow,Distractor2.bmp,,,,TrialProc,2,TrainingTrialList,1,1,-999999,0,216967,0,1,773,217740,Target1.bmp,red,1,,,,7,5,74
KW_Experiment5A,8,1,"<?xml version=""1.0""?>\n<Clock xmlns:dt=""urn:schemas-microsoft-com:datatypes""><Description dt:dt=""string"">E-Prime Primary Realtime Clock</Description><StartTime><Timestamp dt:dt=""int"">0</Timestamp><DateUtc dt:dt=""string"">2018-10-10T16:37:12Z</DateUtc></StartTime><FrequencyChanges><FrequencyChange><Frequency dt:dt=""r8"">3215244</Frequency><Timestamp dt:dt=""r8"">5182461942882</Timestamp><Current dt:dt=""r8"">0</Current><DateUtc dt:dt=""string"">2018-10-10T16:37:12Z</DateUtc></FrequencyChange></FrequencyChanges></Clock>\n",KW_Experiment5A-8-1,59.945,1.0.0.105,2,-1562958759,Professional,2.0.10.353,2.0.10.353,10/10/2018,10/10/2018 16:37,12:37:12,2.0.10.248,3,2,1,3,,,,,,,,TrainingProc,BlockList,27,1,Distractor2.bmp,2,0,,0,1,218752,401,,0,0,cyan,400,1,400,4,vertical,cyan,Distractor2.bmp,purple,Distractor2.bmp,yellow,Distractor1.bmp,lime,Target1.bmp,red,Distractor2.bmp,blue,Distractor2.bmp,,,,TrialProc,,TrainingTrialList,1,1,-999999,1,219153,0,1,1067,220220,Target1.bmp,lime,1,,,,4,5,75
KW_Experiment5A,8,1,"<?xml version=""1.0""?>\n<Clock xmlns:dt=""urn:schemas-microsoft-com:datatypes""><Description dt:dt=""string"">E-Prime Primary Realtime Clock</Description><StartTime><Timestamp dt:dt=""int"">0</Timestamp><DateUtc dt:dt=""string"">2018-10-10T16:37:12Z</DateUtc></StartTime><FrequencyChanges><FrequencyChange><Frequency dt:dt=""r8"">3215244</Frequency><Timestamp dt:dt=""r8"">5182461942882</Timestamp><Current dt:dt=""r8"">0</Current><DateUtc dt:dt=""string"">2018-10-10T16:37:12Z</DateUtc></FrequencyChange></FrequencyChanges></Clock>\n",KW_Experiment5A-8-1,59.945,1.0.0.105,2,-1562958759,Professional,2.0.10.353,2.0.10.353,10/10/2018,10/10/2018 16:37,12:37:12,2.0.10.248,3,2,1,3,,,,,,,,TrainingProc,BlockList,28,1,Distractor2.bmp,2,0,,0,1,221238,600,,0,0,blue,600,3,600,,vertical,blue,Distractor2.bmp,lime,Distractor2.bmp,purple,Distractor1.bmp,cyan,Distractor1.bmp,red,Target1.bmp,yellow,Distractor2.bmp,,,,TrialProc,3,TrainingTrialList,1,1,-999999,0,221838,0,1,670,222508,Target1.bmp,red,1,,,,11,5,76
KW_Experiment5A,8,1,"<?xml version=""1.0""?>\n<Clock xmlns:dt=""urn:schemas-microsoft-com:datatypes""><Description dt:dt=""string"">E-Prime Primary Realtime Clock</Description><StartTime><Timestamp dt:dt=""int"">0</Timestamp><DateUtc dt:dt=""string"">2018-10-10T16:37:12Z</DateUtc></StartTime><FrequencyChanges><FrequencyChange><Frequency dt:dt=""r8"">3215244</Frequency><Timestamp dt:dt=""r8"">5182461942882</Timestamp><Current dt:dt=""r8"">0</Current><DateUtc dt:dt=""string"">2018-10-10T16:37:12Z</DateUtc></FrequencyChange></FrequencyChanges></Clock>\n",KW_Experiment5A-8-1,59.945,1.0.0.105,2,-1562958759,Professional,2.0.10.353,2.0.10.353,10/10/2018,10/10/2018 16:37,12:37:12,2.0.10.248,3,2,1,3,,,,,,,,TrainingProc,BlockList,29,2,Distractor1.bmp,1,0,,0,1,223523,501,,0,0,cyan,500,2,500,,horizontal,cyan,Distractor1.bmp,blue,Distractor1.bmp,red,Target2.bmp,lime,Distractor1.bmp,yellow,Distractor1.bmp,purple,Distractor1.bmp,,,,TrialProc,4,TrainingTrialList,1,2,-999999,1,224024,0,2,636,224660,Target2.bmp,red,2,,,,9,5,77
KW_Experiment5A,8,1,"<?xml version=""1.0""?>\n<Clock xmlns:dt=""urn:schemas-microsoft-com:datatypes""><Description dt:dt=""string"">E-Prime Primary Realtime Clock</Description><StartTime><Timestamp dt:dt=""int"">0</Timestamp><DateUtc dt:dt=""string"">2018-10-10T16:37:12Z</DateUtc></StartTime><FrequencyChanges><FrequencyChange><Frequency dt:dt=""r8"">3215244</Frequency><Timestamp dt:dt=""r8"">5182461942882</Timestamp><Current dt:dt=""r8"">0</Current><DateUtc dt:dt=""string"">2018-10-10T16:37:12Z</DateUtc></FrequencyChange></FrequencyChanges></Clock>\n",KW_Experiment5A-8-1,59.945,1.0.0.105,2,-1562958759,Professional,2.0.10.353,2.0.10.353,10/10/2018,10/10/2018 16:37,12:37:12,2.0.10.248,3,2,1,3,,,,,,,,TrainingProc,BlockList,30,1,Distractor1.bmp,1,0,,0,1,225675,601,,0,0,yellow,600,3,600,,vertical,yellow,Distractor2.bmp,lime,Distractor2.bmp,cyan,Distractor2.bmp,red,Target1.bmp,purple,Distractor1.bmp,blue,Distractor1.bmp,,,,TrialProc,2,TrainingTrialList,1,1,-999999,1,226276,0,1,664,226940,Target1.bmp,red,1,,,,10,5,78
KW_Experiment5A,8,1,"<?xml version=""1.0""?>\n<Clock xmlns:dt=""urn:schemas-microsoft-com:datatypes""><Description dt:dt=""string"">E-Prime Primary Realtime Clock</Description><StartTime><Timestamp dt:dt=""int"">0</Timestamp><DateUtc dt:dt=""string"">2018-10-10T16:37:12Z</DateUtc></StartTime><FrequencyChanges><FrequencyChange><Frequency dt:dt=""r8"">3215244</Frequency><Timestamp dt:dt=""r8"">5182461942882</Timestamp><Current dt:dt=""r8"">0</Current><DateUtc dt:dt=""string"">2018-10-10T16:37:12Z</DateUtc></FrequencyChange></FrequencyChanges></Clock>\n",KW_Experiment5A-8-1,59.945,1.0.0.105,2,-1562958759,Professional,2.0.10.353,2.0.10.353,10/10/2018,10/10/2018 16:37,12:37:12,2.0.10.248,3,2,1,3,,,,,,,,TrainingProc,BlockList,31,1,Distractor1.bmp,1,0,,0,1,227961,600,,0,0,purple,600,3,600,,vertical,purple,Distractor1.bmp,red,Target1.bmp,blue,Distractor1.bmp,lime,Distractor2.bmp,yellow,Distractor2.bmp,cyan,Distractor2.bmp,,,,TrialProc,5,TrainingTrialList,1,1,-999999,0,228561,0,1,651,229212,Target1.bmp,red,1,,,,8,5,79
KW_Experiment5A,8,1,"<?xml version=""1.0""?>\n<Clock xmlns:dt=""urn:schemas-microsoft-com:datatypes""><Description dt:dt=""string"">E-Prime Primary Realtime Clock</Description><StartTime><Timestamp dt:dt=""int"">0</Timestamp><DateUtc dt:dt=""string"">2018-10-10T16:37:12Z</DateUtc></StartTime><FrequencyChanges><FrequencyChange><Frequency dt:dt=""r8"">3215244</Frequency><Timestamp dt:dt=""r8"">5182461942882</Timestamp><Current dt:dt=""r8"">0</Current><DateUtc dt:dt=""string"">2018-10-10T16:37:12Z</DateUtc></FrequencyChange></FrequencyChanges></Clock>\n",KW_Experiment5A-8-1,59.945,1.0.0.105,2,-1562958759,Professional,2.0.10.353,2.0.10.353,10/10/2018,10/10/2018 16:37,12:37:12,2.0.10.248,3,2,1,3,,,,,,,,TrainingProc,BlockList,32,2,Distractor1.bmp,1,0,,0,1,230229,601,,0,0,purple,600,3,600,,horizontal,purple,Distractor2.bmp,cyan,Distractor2.bmp,lime,Distractor1.bmp,yellow,Distractor2.bmp,red,Target2.bmp,blue,Distractor1.bmp,,,,TrialProc,5,TrainingTrialList,1,2,-999999,1,230830,0,2,822,231652,Target2.bmp,red,2,,,,11,5,80
KW_Experiment5A,8,1,"<?xml version=""1.0""?>\n<Clock xmlns:dt=""urn:schemas-microsoft-com:datatypes""><Description dt:dt=""string"">E-Prime Primary Realtime Clock</Description><StartTime><Timestamp dt:dt=""int"">0</Timestamp><DateUtc dt:dt=""string"">2018-10-10T16:37:12Z</DateUtc></StartTime><FrequencyChanges><FrequencyChange><Frequency dt:dt=""r8"">3215244</Frequency><Timestamp dt:dt=""r8"">5182461942882</Timestamp><Current dt:dt=""r8"">0</Current><DateUtc dt:dt=""string"">2018-10-10T16:37:12Z</DateUtc></FrequencyChange></FrequencyChanges></Clock>\n",KW_Experiment5A-8-1,59.945,1.0.0.105,2,-1562958759,Professional,2.0.10.353,2.0.10.353,10/10/2018,10/10/2018 16:37,12:37:12,2.0.10.248,3,2,1,3,,,,,,,,TrainingProc,BlockList,33,2,Distractor1.bmp,1,0,,0,1,232665,601,,0,0,purple,600,3,600,5,horizontal,purple,Distractor1.bmp,yellow,Distractor2.bmp,cyan,Distractor2.bmp,blue,Distractor1.bmp,lime,Target2.bmp,red,Distractor1.bmp,,,,TrialProc,,TrainingTrialList,1,2,-999999,1,233266,0,2,1170,234436,Target2.bmp,lime,2,,,,5,5,81
KW_Experiment5A,8,1,"<?xml version=""1.0""?>\n<Clock xmlns:dt=""urn:schemas-microsoft-com:datatypes""><Description dt:dt=""string"">E-Prime Primary Realtime Clock</Description><StartTime><Timestamp dt:dt=""int"">0</Timestamp><DateUtc dt:dt=""string"">2018-10-10T16:37:12Z</DateUtc></StartTime><FrequencyChanges><FrequencyChange><Frequency dt:dt=""r8"">3215244</Frequency><Timestamp dt:dt=""r8"">5182461942882</Timestamp><Current dt:dt=""r8"">0</Current><DateUtc dt:dt=""string"">2018-10-10T16:37:12Z</DateUtc></FrequencyChange></FrequencyChanges></Clock>\n",KW_Experiment5A-8-1,59.945,1.0.0.105,2,-1562958759,Professional,2.0.10.353,2.0.10.353,10/10/2018,10/10/2018 16:37,12:37:12,2.0.10.248,3,2,1,3,,,,,,,,TrainingProc,BlockList,34,1,Distractor1.bmp,1,0,,0,1,235451,600,,0,0,cyan,600,3,600,,vertical,cyan,Distractor2.bmp,yellow,Distractor2.bmp,red,Target1.bmp,blue,Distractor1.bmp,lime,Distractor2.bmp,purple,Distractor2.bmp,,,,TrialProc,4,TrainingTrialList,1,1,-999999,0,236051,0,1,681,236732,Target1.bmp,red,1,,,,9,5,82
KW_Experiment5A,8,1,"<?xml version=""1.0""?>\n<Clock xmlns:dt=""urn:schemas-microsoft-com:datatypes""><Description dt:dt=""string"">E-Prime Primary Realtime Clock</Description><StartTime><Timestamp dt:dt=""int"">0</Timestamp><DateUtc dt:dt=""string"">2018-10-10T16:37:12Z</DateUtc></StartTime><FrequencyChanges><FrequencyChange><Frequency dt:dt=""r8"">3215244</Frequency><Timestamp dt:dt=""r8"">5182461942882</Timestamp><Current dt:dt=""r8"">0</Current><DateUtc dt:dt=""string"">2018-10-10T16:37:12Z</DateUtc></FrequencyChange></FrequencyChanges></Clock>\n",KW_Experiment5A-8-1,59.945,1.0.0.105,2,-1562958759,Professional,2.0.10.353,2.0.10.353,10/10/2018,10/10/2018 16:37,12:37:12,2.0.10.248,3,2,1,3,,,,,,,,TrainingProc,BlockList,35,1,Distractor1.bmp,1,0,,0,1,237753,601,,0,0,cyan,600,3,600,4,vertical,lime,Target1.bmp,cyan,Distractor1.bmp,purple,Distractor1.bmp,blue,Distractor1.bmp,yellow,Distractor2.bmp,red,Distractor2.bmp,,,,TrialProc,,TrainingTrialList,1,1,-999999,1,238354,0,1,618,238972,Target1.bmp,lime,1,,,,1,5,83
KW_Experiment5A,8,1,"<?xml version=""1.0""?>\n<Clock xmlns:dt=""urn:schemas-microsoft-com:datatypes""><Description dt:dt=""string"">E-Prime Primary Realtime Clock</Description><StartTime><Timestamp dt:dt=""int"">0</Timestamp><DateUtc dt:dt=""string"">2018-10-10T16:37:12Z</DateUtc></StartTime><FrequencyChanges><FrequencyChange><Frequency dt:dt=""r8"">3215244</Frequency><Timestamp dt:dt=""r8"">5182461942882</Timestamp><Current dt:dt=""r8"">0</Current><DateUtc dt:dt=""string"">2018-10-10T16:37:12Z</DateUtc></FrequencyChange></FrequencyChanges></Clock>\n",KW_Experiment5A-8-1,59.945,1.0.0.105,2,-1562958759,Professional,2.0.10.353,2.0.10.353,10/10/2018,10/10/2018 16:37,12:37:12,2.0.10.248,3,2,1,3,,,,,,,,TrainingProc,BlockList,36,1,Distractor2.bmp,2,0,,0,1,239988,501,,0,0,yellow,500,2,500,,vertical,red,Target1.bmp,cyan,Distractor2.bmp,purple,Distractor2.bmp,lime,Distractor2.bmp,blue,Distractor1.bmp,yellow,Distractor1.bmp,,,,TrialProc,2,TrainingTrialList,1,1,-999999,1,240489,0,1,507,240996,Target1.bmp,red,1,,,,7,5,84
KW_Experiment5A,8,1,"<?xml version=""1.0""?>\n<Clock xmlns:dt=""urn:schemas-microsoft-com:datatypes""><Description dt:dt=""string"">E-Prime Primary Realtime Clock</Description><StartTime><Timestamp dt:dt=""int"">0</Timestamp><DateUtc dt:dt=""string"">2018-10-10T16:37:12Z</DateUtc></StartTime><FrequencyChanges><FrequencyChange><Frequency dt:dt=""r8"">3215244</Frequency><Timestamp dt:dt=""r8"">5182461942882</Timestamp><Current dt:dt=""r8"">0</Current><DateUtc dt:dt=""string"">2018-10-10T16:37:12Z</DateUtc></FrequencyChange></FrequencyChanges></Clock>\n",KW_Experiment5A-8-1,59.945,1.0.0.105,2,-1562958759,Professional,2.0.10.353,2.0.10.353,10/10/2018,10/10/2018 16:37,12:37:12,2.0.10.248,3,2,1,3,,,,,,,,TrainingProc,BlockList,37,2,Distractor1.bmp,1,0,,0,1,242007,601,,0,0,blue,600,3,600,,horizontal,blue,Distractor1.bmp,purple,Distractor1.bmp,red,Target2.bmp,cyan,Distractor1.bmp,lime,Distractor1.bmp,yellow,Distractor1.bmp,,,,TrialProc,3,TrainingTrialList,1,2,-999999,1,242608,0,2,724,243332,Target2.bmp,red,2,,,,9,5,85
KW_Experiment5A,8,1,"<?xml version=""1.0""?>\n<Clock xmlns:dt=""urn:schemas-microsoft-com:datatypes""><Description dt:dt=""string"">E-Prime Primary Realtime Clock</Description><StartTime><Timestamp dt:dt=""int"">0</Timestamp><DateUtc dt:dt=""string"">2018-10-10T16:37:12Z</DateUtc></StartTime><FrequencyChanges><FrequencyChange><Frequency dt:dt=""r8"">3215244</Frequency><Timestamp dt:dt=""r8"">5182461942882</Timestamp><Current dt:dt=""r8"">0</Current><DateUtc dt:dt=""string"">2018-10-10T16:37:12Z</DateUtc></FrequencyChange></FrequencyChanges></Clock>\n",KW_Experiment5A-8-1,59.945,1.0.0.105,2,-1562958759,Professional,2.0.10.353,2.0.10.353,10/10/2018,10/10/2018 16:37,12:37:12,2.0.10.248,3,2,1,3,,,,,,,,TrainingProc,BlockList,38,2,Distractor1.bmp,1,0,,0,1,244342,601,,0,0,purple,600,3,600,,horizontal,purple,Distractor1.bmp,lime,Distractor2.bmp,cyan,Distractor1.bmp,yellow,Distractor2.bmp,blue,Distractor2.bmp,red,Target2.bmp,,,,TrialProc,5,TrainingTrialList,1,2,-999999,1,244943,0,2,573,245516,Target2.bmp,red,2,,,,12,5,86
KW_Experiment5A,8,1,"<?xml version=""1.0""?>\n<Clock xmlns:dt=""urn:schemas-microsoft-com:datatypes""><Description dt:dt=""string"">E-Prime Primary Realtime Clock</Description><StartTime><Timestamp dt:dt=""int"">0</Timestamp><DateUtc dt:dt=""string"">2018-10-10T16:37:12Z</DateUtc></StartTime><FrequencyChanges><FrequencyChange><Frequency dt:dt=""r8"">3215244</Frequency><Timestamp dt:dt=""r8"">5182461942882</Timestamp><Current dt:dt=""r8"">0</Current><DateUtc dt:dt=""string"">2018-10-10T16:37:12Z</DateUtc></FrequencyChange></FrequencyChanges></Clock>\n",KW_Experiment5A-8-1,59.945,1.0.0.105,2,-1562958759,Professional,2.0.10.353,2.0.10.353,10/10/2018,10/10/2018 16:37,12:37:12,2.0.10.248,3,2,1,3,,,,,,,,TrainingProc,BlockList,39,2,Distractor2.bmp,2,0,,0,1,246528,500,,0,0,purple,500,2,500,,horizontal,red,Target2.bmp,yellow,Distractor2.bmp,lime,Distractor2.bmp,blue,Distractor2.bmp,cyan,Distractor2.bmp,purple,Distractor1.bmp,,,,TrialProc,5,TrainingTrialList,1,2,-999999,0,247028,0,2,504,247532,Target2.bmp,red,2,,,,7,5,87
KW_Experiment5A,8,1,"<?xml version=""1.0""?>\n<Clock xmlns:dt=""urn:schemas-microsoft-com:datatypes""><Description dt:dt=""string"">E-Prime Primary Realtime Clock</Description><StartTime><Timestamp dt:dt=""int"">0</Timestamp><DateUtc dt:dt=""string"">2018-10-10T16:37:12Z</DateUtc></StartTime><FrequencyChanges><FrequencyChange><Frequency dt:dt=""r8"">3215244</Frequency><Timestamp dt:dt=""r8"">5182461942882</Timestamp><Current dt:dt=""r8"">0</Current><DateUtc dt:dt=""string"">2018-10-10T16:37:12Z</DateUtc></FrequencyChange></FrequencyChanges></Clock>\n",KW_Experiment5A-8-1,59.945,1.0.0.105,2,-1562958759,Professional,2.0.10.353,2.0.10.353,10/10/2018,10/10/2018 16:37,12:37:12,2.0.10.248,3,2,1,3,,,,,,,,TrainingProc,BlockList,40,1,Distractor2.bmp,2,0,,0,1,248546,601,,0,0,blue,600,3,600,,vertical,blue,Distractor1.bmp,red,Target1.bmp,lime,Distractor2.bmp,cyan,Distractor1.bmp,yellow,Distractor2.bmp,purple,Distractor1.bmp,,,,TrialProc,3,TrainingTrialList,0,1,-999999,1,249147,0,2,857,250004,Target1.bmp,red,1,,,,8,5,88
KW_Experiment5A,8,1,"<?xml version=""1.0""?>\n<Clock xmlns:dt=""urn:schemas-microsoft-com:datatypes""><Description dt:dt=""string"">E-Prime Primary Realtime Clock</Description><StartTime><Timestamp dt:dt=""int"">0</Timestamp><DateUtc dt:dt=""string"">2018-10-10T16:37:12Z</DateUtc></StartTime><FrequencyChanges><FrequencyChange><Frequency dt:dt=""r8"">3215244</Frequency><Timestamp dt:dt=""r8"">5182461942882</Timestamp><Current dt:dt=""r8"">0</Current><DateUtc dt:dt=""string"">2018-10-10T16:37:12Z</DateUtc></FrequencyChange></FrequencyChanges></Clock>\n",KW_Experiment5A-8-1,59.945,1.0.0.105,2,-1562958759,Professional,2.0.10.353,2.0.10.353,10/10/2018,10/10/2018 16:37,12:37:12,2.0.10.248,3,2,1,3,,,,,,,,TrainingProc,BlockList,41,1,Distractor1.bmp,1,0,,0,1,251015,501,,0,0,yellow,500,2,500,,vertical,yellow,Distractor1.bmp,cyan,Distractor1.bmp,lime,Distractor1.bmp,purple,Distractor1.bmp,blue,Distractor2.bmp,red,Target1.bmp,,,,TrialProc,2,TrainingTrialList,1,1,-999999,1,251516,0,1,736,252252,Target1.bmp,red,1,,,,12,5,89
KW_Experiment5A,8,1,"<?xml version=""1.0""?>\n<Clock xmlns:dt=""urn:schemas-microsoft-com:datatypes""><Description dt:dt=""string"">E-Prime Primary Realtime Clock</Description><StartTime><Timestamp dt:dt=""int"">0</Timestamp><DateUtc dt:dt=""string"">2018-10-10T16:37:12Z</DateUtc></StartTime><FrequencyChanges><FrequencyChange><Frequency dt:dt=""r8"">3215244</Frequency><Timestamp dt:dt=""r8"">5182461942882</Timestamp><Current dt:dt=""r8"">0</Current><DateUtc dt:dt=""string"">2018-10-10T16:37:12Z</DateUtc></FrequencyChange></FrequencyChanges></Clock>\n",KW_Experiment5A-8-1,59.945,1.0.0.105,2,-1562958759,Professional,2.0.10.353,2.0.10.353,10/10/2018,10/10/2018 16:37,12:37:12,2.0.10.248,3,2,1,3,,,,,,,,TrainingProc,BlockList,42,2,Distractor2.bmp,2,0,,0,1,253267,401,,0,0,yellow,400,1,400,,horizontal,yellow,Distractor2.bmp,blue,Distractor1.bmp,cyan,Distractor1.bmp,red,Target2.bmp,purple,Distractor2.bmp,lime,Distractor1.bmp,,,,TrialProc,2,TrainingTrialList,1,2,-999999,1,253668,0,2,816,254484,Target2.bmp,red,2,,,,10,5,90
