ExperimentName,Subject,Session,Clock.Information,DataFile.Basename,Display.RefreshRate,ExperimentVersion,Group,RandomSeed,RuntimeCapabilities,RuntimeVersion,RuntimeVersionExpected,SessionDate,SessionStartDateTimeUtc,SessionTime,StudioVersion,Block,BlockList,BlockList.Cycle,BlockList.Sample,PostTestQ1.RESP,PostTestQ1CJ.RESP,PostTestQ2.RESP,PostTestQ2CJ.RESP,PostTestQ3.RESP,PostTestQ3CJ.RESP,PostTestSlide.RESP,Procedure[Block],Running[Block],Trial,CorrectResponse,Distractor,DistractorList,Fixation.ACC,Fixation.CRESP,Fixation.DurationError,Fixation.OnsetDelay,Fixation.OnsetTime,Fixation.OnsetToOnsetTime,Fixation.RESP,Fixation.RT,Fixation.RTTime,ItemColor,Jitter,JitterList,JitterTime,Lime0List,Orientation,Pos1Color,Pos1Item,Pos2Color,Pos2Item,Pos3Color,Pos3Item,Pos4Color,Pos4Item,Pos5Color,Pos5Item,Pos6Color,Pos6Item,PracticeTrialList,PracticeTrialList.Cycle,PracticeTrialList.Sample,Procedure[Trial],Red0List,Running[Trial],Stimulus.ACC,Stimulus.CRESP,Stimulus.DurationError,Stimulus.OnsetDelay,Stimulus.OnsetTime,Stimulus.OnsetToOnsetTime,Stimulus.RESP,Stimulus.RT,Stimulus.RTTime,Target,TargetColor,TargetList,TestTrialList,TestTrialList.Cycle,TestTrialList.Sample,TrainingTrialList,TrainingTrialList.Cycle,TrainingTrialList.Sample
KW_Experiment5A,45,1,"<?xml version=""1.0""?>\n<Clock xmlns:dt=""urn:schemas-microsoft-com:datatypes""><Description dt:dt=""string"">E-Prime Primary Realtime Clock</Description><StartTime><Timestamp dt:dt=""int"">0</Timestamp><DateUtc dt:dt=""string"">2018-10-25T19:41:52Z</DateUtc></StartTime><FrequencyChanges><FrequencyChange><Frequency dt:dt=""r8"">3215292</Frequency><Timestamp dt:dt=""r8"">1606224572912</Timestamp><Current dt:dt=""r8"">0</Current><DateUtc dt:dt=""string"">2018-10-25T19:41:52Z</DateUtc></FrequencyChange></FrequencyChanges></Clock>\n",KW_Experiment5A-45-1,59.946,1.0.0.105,2,-92575700,Professional,2.0.10.353,2.0.10.353,10/25/2018,10/25/2018 19:41,15:41:52,2.0.10.248,1,1,1,1,,,,,,,,PracticeProc,BlockList,1,1,Distractor2.bmp,2,0,,0,35,171659,400,,0,0,blue,400,1,400,3,vertical,lime,Target1.bmp,purple,Distractor2.bmp,red,Distractor2.bmp,yellow,Distractor2.bmp,cyan,Distractor1.bmp,blue,Distractor2.bmp,1,1,1,TrialProc,,PracticeTrialList,1,1,-999999,0,172059,0,1,1005,173064,Target1.bmp,lime,1,,,,,,
KW_Experiment5A,45,1,"<?xml version=""1.0""?>\n<Clock xmlns:dt=""urn:schemas-microsoft-com:datatypes""><Description dt:dt=""string"">E-Prime Primary Realtime Clock</Description><StartTime><Timestamp dt:dt=""int"">0</Timestamp><DateUtc dt:dt=""string"">2018-10-25T19:41:52Z</DateUtc></StartTime><FrequencyChanges><FrequencyChange><Frequency dt:dt=""r8"">3215292</Frequency><Timestamp dt:dt=""r8"">1606224572912</Timestamp><Current dt:dt=""r8"">0</Current><DateUtc dt:dt=""string"">2018-10-25T19:41:52Z</DateUtc></FrequencyChange></FrequencyChanges></Clock>\n",KW_Experiment5A-45-1,59.946,1.0.0.105,2,-92575700,Professional,2.0.10.353,2.0.10.353,10/25/2018,10/25/2018 19:41,15:41:52,2.0.10.248,1,1,1,1,,,,,,,,PracticeProc,BlockList,2,2,Distractor1.bmp,1,0,,0,1,174078,600,,0,0,red,600,3,600,1,horizontal,cyan,Distractor1.bmp,blue,Distractor2.bmp,yellow,Distractor1.bmp,red,Distractor1.bmp,lime,Target2.bmp,purple,Distractor1.bmp,5,1,2,TrialProc,,PracticeTrialList,0,2,-999999,0,174678,0,1,1154,175832,Target2.bmp,lime,2,,,,,,
KW_Experiment5A,45,1,"<?xml version=""1.0""?>\n<Clock xmlns:dt=""urn:schemas-microsoft-com:datatypes""><Description dt:dt=""string"">E-Prime Primary Realtime Clock</Description><StartTime><Timestamp dt:dt=""int"">0</Timestamp><DateUtc dt:dt=""string"">2018-10-25T19:41:52Z</DateUtc></StartTime><FrequencyChanges><FrequencyChange><Frequency dt:dt=""r8"">3215292</Frequency><Timestamp dt:dt=""r8"">1606224572912</Timestamp><Current dt:dt=""r8"">0</Current><DateUtc dt:dt=""string"">2018-10-25T19:41:52Z</DateUtc></FrequencyChange></FrequencyChanges></Clock>\n",KW_Experiment5A-45-1,59.946,1.0.0.105,2,-92575700,Professional,2.0.10.353,2.0.10.353,10/25/2018,10/25/2018 19:41,15:41:52,2.0.10.248,1,1,1,1,,,,,,,,PracticeProc,BlockList,3,1,Distractor2.bmp,2,0,,0,1,176847,601,,0,0,lime,600,3,600,,vertical,purple,Distractor2.bmp,yellow,Distractor2.bmp,lime,Distractor1.bmp,red,Target1.bmp,cyan,Distractor2.bmp,blue,Distractor2.bmp,4,1,3,TrialProc,6,PracticeTrialList,1,1,-999999,1,177448,0,1,896,178344,Target1.bmp,red,1,,,,,,
KW_Experiment5A,45,1,"<?xml version=""1.0""?>\n<Clock xmlns:dt=""urn:schemas-microsoft-com:datatypes""><Description dt:dt=""string"">E-Prime Primary Realtime Clock</Description><StartTime><Timestamp dt:dt=""int"">0</Timestamp><DateUtc dt:dt=""string"">2018-10-25T19:41:52Z</DateUtc></StartTime><FrequencyChanges><FrequencyChange><Frequency dt:dt=""r8"">3215292</Frequency><Timestamp dt:dt=""r8"">1606224572912</Timestamp><Current dt:dt=""r8"">0</Current><DateUtc dt:dt=""string"">2018-10-25T19:41:52Z</DateUtc></FrequencyChange></FrequencyChanges></Clock>\n",KW_Experiment5A-45-1,59.946,1.0.0.105,2,-92575700,Professional,2.0.10.353,2.0.10.353,10/25/2018,10/25/2018 19:41,15:41:52,2.0.10.248,1,1,1,1,,,,,,,,PracticeProc,BlockList,4,2,Distractor2.bmp,2,0,,0,1,179366,400,,0,0,blue,400,1,400,,horizontal,blue,Distractor2.bmp,red,Target2.bmp,yellow,Distractor2.bmp,cyan,Distractor2.bmp,lime,Distractor2.bmp,purple,Distractor1.bmp,2,1,4,TrialProc,3,PracticeTrialList,1,2,-999999,0,179766,0,2,498,180264,Target2.bmp,red,2,,,,,,
KW_Experiment5A,45,1,"<?xml version=""1.0""?>\n<Clock xmlns:dt=""urn:schemas-microsoft-com:datatypes""><Description dt:dt=""string"">E-Prime Primary Realtime Clock</Description><StartTime><Timestamp dt:dt=""int"">0</Timestamp><DateUtc dt:dt=""string"">2018-10-25T19:41:52Z</DateUtc></StartTime><FrequencyChanges><FrequencyChange><Frequency dt:dt=""r8"">3215292</Frequency><Timestamp dt:dt=""r8"">1606224572912</Timestamp><Current dt:dt=""r8"">0</Current><DateUtc dt:dt=""string"">2018-10-25T19:41:52Z</DateUtc></FrequencyChange></FrequencyChanges></Clock>\n",KW_Experiment5A-45-1,59.946,1.0.0.105,2,-92575700,Professional,2.0.10.353,2.0.10.353,10/25/2018,10/25/2018 19:41,15:41:52,2.0.10.248,1,1,1,1,,,,,,,,PracticeProc,BlockList,5,1,Distractor1.bmp,1,0,,0,1,181284,501,,0,0,yellow,500,2,500,,vertical,blue,Distractor1.bmp,cyan,Distractor1.bmp,purple,Distractor1.bmp,lime,Distractor1.bmp,yellow,Distractor2.bmp,red,Target1.bmp,6,1,5,TrialProc,2,PracticeTrialList,1,1,-999999,1,181785,0,1,1311,183096,Target1.bmp,red,1,,,,,,
KW_Experiment5A,45,1,"<?xml version=""1.0""?>\n<Clock xmlns:dt=""urn:schemas-microsoft-com:datatypes""><Description dt:dt=""string"">E-Prime Primary Realtime Clock</Description><StartTime><Timestamp dt:dt=""int"">0</Timestamp><DateUtc dt:dt=""string"">2018-10-25T19:41:52Z</DateUtc></StartTime><FrequencyChanges><FrequencyChange><Frequency dt:dt=""r8"">3215292</Frequency><Timestamp dt:dt=""r8"">1606224572912</Timestamp><Current dt:dt=""r8"">0</Current><DateUtc dt:dt=""string"">2018-10-25T19:41:52Z</DateUtc></FrequencyChange></FrequencyChanges></Clock>\n",KW_Experiment5A-45-1,59.946,1.0.0.105,2,-92575700,Professional,2.0.10.353,2.0.10.353,10/25/2018,10/25/2018 19:41,15:41:52,2.0.10.248,1,1,1,1,,,,,,,,PracticeProc,BlockList,6,2,Distractor1.bmp,1,0,,0,1,184120,501,,0,0,red,500,2,500,1,horizontal,yellow,Distractor2.bmp,red,Distractor1.bmp,lime,Target2.bmp,purple,Distractor1.bmp,blue,Distractor2.bmp,cyan,Distractor1.bmp,3,1,6,TrialProc,,PracticeTrialList,1,2,-999999,1,184621,0,2,587,185208,Target2.bmp,lime,2,,,,,,
KW_Experiment5A,45,1,"<?xml version=""1.0""?>\n<Clock xmlns:dt=""urn:schemas-microsoft-com:datatypes""><Description dt:dt=""string"">E-Prime Primary Realtime Clock</Description><StartTime><Timestamp dt:dt=""int"">0</Timestamp><DateUtc dt:dt=""string"">2018-10-25T19:41:52Z</DateUtc></StartTime><FrequencyChanges><FrequencyChange><Frequency dt:dt=""r8"">3215292</Frequency><Timestamp dt:dt=""r8"">1606224572912</Timestamp><Current dt:dt=""r8"">0</Current><DateUtc dt:dt=""string"">2018-10-25T19:41:52Z</DateUtc></FrequencyChange></FrequencyChanges></Clock>\n",KW_Experiment5A-45-1,59.946,1.0.0.105,2,-92575700,Professional,2.0.10.353,2.0.10.353,10/25/2018,10/25/2018 19:41,15:41:52,2.0.10.248,2,2,1,2,,,,,,,,TrainingProc,BlockList,1,2,Distractor2.bmp,2,0,,0,32,192728,400,,0,0,blue,400,1,400,,horizontal,red,Target2.bmp,yellow,Distractor2.bmp,lime,Distractor1.bmp,purple,Distractor2.bmp,cyan,Distractor2.bmp,blue,Distractor1.bmp,,,,TrialProc,3,TrainingTrialList,1,2,-999999,0,193128,0,2,856,193984,Target2.bmp,red,2,,,,7,2,1
KW_Experiment5A,45,1,"<?xml version=""1.0""?>\n<Clock xmlns:dt=""urn:schemas-microsoft-com:datatypes""><Description dt:dt=""string"">E-Prime Primary Realtime Clock</Description><StartTime><Timestamp dt:dt=""int"">0</Timestamp><DateUtc dt:dt=""string"">2018-10-25T19:41:52Z</DateUtc></StartTime><FrequencyChanges><FrequencyChange><Frequency dt:dt=""r8"">3215292</Frequency><Timestamp dt:dt=""r8"">1606224572912</Timestamp><Current dt:dt=""r8"">0</Current><DateUtc dt:dt=""string"">2018-10-25T19:41:52Z</DateUtc></FrequencyChange></FrequencyChanges></Clock>\n",KW_Experiment5A-45-1,59.946,1.0.0.105,2,-92575700,Professional,2.0.10.353,2.0.10.353,10/25/2018,10/25/2018 19:41,15:41:52,2.0.10.248,2,2,1,2,,,,,,,,TrainingProc,BlockList,2,1,Distractor1.bmp,1,0,,0,1,194997,600,,0,0,blue,600,3,600,,vertical,blue,Distractor1.bmp,yellow,Distractor1.bmp,purple,Distractor2.bmp,cyan,Distractor2.bmp,red,Target1.bmp,lime,Distractor1.bmp,,,,TrialProc,3,TrainingTrialList,1,1,-999999,0,195597,0,1,491,196088,Target1.bmp,red,1,,,,11,2,2
KW_Experiment5A,45,1,"<?xml version=""1.0""?>\n<Clock xmlns:dt=""urn:schemas-microsoft-com:datatypes""><Description dt:dt=""string"">E-Prime Primary Realtime Clock</Description><StartTime><Timestamp dt:dt=""int"">0</Timestamp><DateUtc dt:dt=""string"">2018-10-25T19:41:52Z</DateUtc></StartTime><FrequencyChanges><FrequencyChange><Frequency dt:dt=""r8"">3215292</Frequency><Timestamp dt:dt=""r8"">1606224572912</Timestamp><Current dt:dt=""r8"">0</Current><DateUtc dt:dt=""string"">2018-10-25T19:41:52Z</DateUtc></FrequencyChange></FrequencyChanges></Clock>\n",KW_Experiment5A-45-1,59.946,1.0.0.105,2,-92575700,Professional,2.0.10.353,2.0.10.353,10/25/2018,10/25/2018 19:41,15:41:52,2.0.10.248,2,2,1,2,,,,,,,,TrainingProc,BlockList,3,2,Distractor2.bmp,2,0,,0,1,197099,500,,0,0,lime,500,2,500,,horizontal,lime,Distractor1.bmp,cyan,Distractor1.bmp,blue,Distractor2.bmp,red,Target2.bmp,yellow,Distractor2.bmp,purple,Distractor2.bmp,,,,TrialProc,6,TrainingTrialList,1,2,-999999,0,197599,0,2,592,198191,Target2.bmp,red,2,,,,10,2,3
KW_Experiment5A,45,1,"<?xml version=""1.0""?>\n<Clock xmlns:dt=""urn:schemas-microsoft-com:datatypes""><Description dt:dt=""string"">E-Prime Primary Realtime Clock</Description><StartTime><Timestamp dt:dt=""int"">0</Timestamp><DateUtc dt:dt=""string"">2018-10-25T19:41:52Z</DateUtc></StartTime><FrequencyChanges><FrequencyChange><Frequency dt:dt=""r8"">3215292</Frequency><Timestamp dt:dt=""r8"">1606224572912</Timestamp><Current dt:dt=""r8"">0</Current><DateUtc dt:dt=""string"">2018-10-25T19:41:52Z</DateUtc></FrequencyChange></FrequencyChanges></Clock>\n",KW_Experiment5A-45-1,59.946,1.0.0.105,2,-92575700,Professional,2.0.10.353,2.0.10.353,10/25/2018,10/25/2018 19:41,15:41:52,2.0.10.248,2,2,1,2,,,,,,,,TrainingProc,BlockList,4,2,Distractor2.bmp,2,0,,0,1,199201,400,,0,0,purple,400,1,400,,horizontal,purple,Distractor2.bmp,yellow,Distractor1.bmp,blue,Distractor2.bmp,red,Target2.bmp,lime,Distractor2.bmp,cyan,Distractor2.bmp,,,,TrialProc,5,TrainingTrialList,1,2,-999999,0,199601,0,2,726,200327,Target2.bmp,red,2,,,,10,2,4
KW_Experiment5A,45,1,"<?xml version=""1.0""?>\n<Clock xmlns:dt=""urn:schemas-microsoft-com:datatypes""><Description dt:dt=""string"">E-Prime Primary Realtime Clock</Description><StartTime><Timestamp dt:dt=""int"">0</Timestamp><DateUtc dt:dt=""string"">2018-10-25T19:41:52Z</DateUtc></StartTime><FrequencyChanges><FrequencyChange><Frequency dt:dt=""r8"">3215292</Frequency><Timestamp dt:dt=""r8"">1606224572912</Timestamp><Current dt:dt=""r8"">0</Current><DateUtc dt:dt=""string"">2018-10-25T19:41:52Z</DateUtc></FrequencyChange></FrequencyChanges></Clock>\n",KW_Experiment5A-45-1,59.946,1.0.0.105,2,-92575700,Professional,2.0.10.353,2.0.10.353,10/25/2018,10/25/2018 19:41,15:41:52,2.0.10.248,2,2,1,2,,,,,,,,TrainingProc,BlockList,5,2,Distractor2.bmp,2,0,,0,1,201353,500,,0,0,blue,500,2,500,,horizontal,blue,Distractor2.bmp,lime,Distractor1.bmp,red,Target2.bmp,yellow,Distractor2.bmp,purple,Distractor1.bmp,cyan,Distractor2.bmp,,,,TrialProc,3,TrainingTrialList,1,2,-999999,0,201853,0,2,666,202519,Target2.bmp,red,2,,,,9,2,5
KW_Experiment5A,45,1,"<?xml version=""1.0""?>\n<Clock xmlns:dt=""urn:schemas-microsoft-com:datatypes""><Description dt:dt=""string"">E-Prime Primary Realtime Clock</Description><StartTime><Timestamp dt:dt=""int"">0</Timestamp><DateUtc dt:dt=""string"">2018-10-25T19:41:52Z</DateUtc></StartTime><FrequencyChanges><FrequencyChange><Frequency dt:dt=""r8"">3215292</Frequency><Timestamp dt:dt=""r8"">1606224572912</Timestamp><Current dt:dt=""r8"">0</Current><DateUtc dt:dt=""string"">2018-10-25T19:41:52Z</DateUtc></FrequencyChange></FrequencyChanges></Clock>\n",KW_Experiment5A-45-1,59.946,1.0.0.105,2,-92575700,Professional,2.0.10.353,2.0.10.353,10/25/2018,10/25/2018 19:41,15:41:52,2.0.10.248,2,2,1,2,,,,,,,,TrainingProc,BlockList,6,2,Distractor1.bmp,1,0,,0,1,203538,500,,0,0,lime,500,2,500,,horizontal,lime,Distractor2.bmp,red,Target2.bmp,purple,Distractor1.bmp,cyan,Distractor1.bmp,blue,Distractor2.bmp,yellow,Distractor1.bmp,,,,TrialProc,6,TrainingTrialList,1,2,-999999,0,204038,0,2,553,204591,Target2.bmp,red,2,,,,8,2,6
KW_Experiment5A,45,1,"<?xml version=""1.0""?>\n<Clock xmlns:dt=""urn:schemas-microsoft-com:datatypes""><Description dt:dt=""string"">E-Prime Primary Realtime Clock</Description><StartTime><Timestamp dt:dt=""int"">0</Timestamp><DateUtc dt:dt=""string"">2018-10-25T19:41:52Z</DateUtc></StartTime><FrequencyChanges><FrequencyChange><Frequency dt:dt=""r8"">3215292</Frequency><Timestamp dt:dt=""r8"">1606224572912</Timestamp><Current dt:dt=""r8"">0</Current><DateUtc dt:dt=""string"">2018-10-25T19:41:52Z</DateUtc></FrequencyChange></FrequencyChanges></Clock>\n",KW_Experiment5A-45-1,59.946,1.0.0.105,2,-92575700,Professional,2.0.10.353,2.0.10.353,10/25/2018,10/25/2018 19:41,15:41:52,2.0.10.248,2,2,1,2,,,,,,,,TrainingProc,BlockList,7,1,Distractor2.bmp,2,0,,1,0,205606,401,,0,0,purple,400,1,400,,vertical,purple,Distractor2.bmp,red,Target1.bmp,yellow,Distractor2.bmp,cyan,Distractor2.bmp,blue,Distractor2.bmp,lime,Distractor1.bmp,,,,TrialProc,5,TrainingTrialList,1,1,-999999,1,206007,0,1,504,206511,Target1.bmp,red,1,,,,8,2,7
KW_Experiment5A,45,1,"<?xml version=""1.0""?>\n<Clock xmlns:dt=""urn:schemas-microsoft-com:datatypes""><Description dt:dt=""string"">E-Prime Primary Realtime Clock</Description><StartTime><Timestamp dt:dt=""int"">0</Timestamp><DateUtc dt:dt=""string"">2018-10-25T19:41:52Z</DateUtc></StartTime><FrequencyChanges><FrequencyChange><Frequency dt:dt=""r8"">3215292</Frequency><Timestamp dt:dt=""r8"">1606224572912</Timestamp><Current dt:dt=""r8"">0</Current><DateUtc dt:dt=""string"">2018-10-25T19:41:52Z</DateUtc></FrequencyChange></FrequencyChanges></Clock>\n",KW_Experiment5A-45-1,59.946,1.0.0.105,2,-92575700,Professional,2.0.10.353,2.0.10.353,10/25/2018,10/25/2018 19:41,15:41:52,2.0.10.248,2,2,1,2,,,,,,,,TrainingProc,BlockList,8,1,Distractor1.bmp,1,0,,0,1,207525,400,,0,0,yellow,400,1,400,,vertical,red,Target1.bmp,purple,Distractor1.bmp,blue,Distractor1.bmp,cyan,Distractor1.bmp,lime,Distractor2.bmp,yellow,Distractor1.bmp,,,,TrialProc,2,TrainingTrialList,1,1,-999999,0,207925,0,1,546,208471,Target1.bmp,red,1,,,,7,2,8
KW_Experiment5A,45,1,"<?xml version=""1.0""?>\n<Clock xmlns:dt=""urn:schemas-microsoft-com:datatypes""><Description dt:dt=""string"">E-Prime Primary Realtime Clock</Description><StartTime><Timestamp dt:dt=""int"">0</Timestamp><DateUtc dt:dt=""string"">2018-10-25T19:41:52Z</DateUtc></StartTime><FrequencyChanges><FrequencyChange><Frequency dt:dt=""r8"">3215292</Frequency><Timestamp dt:dt=""r8"">1606224572912</Timestamp><Current dt:dt=""r8"">0</Current><DateUtc dt:dt=""string"">2018-10-25T19:41:52Z</DateUtc></FrequencyChange></FrequencyChanges></Clock>\n",KW_Experiment5A-45-1,59.946,1.0.0.105,2,-92575700,Professional,2.0.10.353,2.0.10.353,10/25/2018,10/25/2018 19:41,15:41:52,2.0.10.248,2,2,1,2,,,,,,,,TrainingProc,BlockList,9,2,Distractor2.bmp,2,0,,0,1,209493,401,,0,0,cyan,400,1,400,,horizontal,cyan,Distractor2.bmp,purple,Distractor2.bmp,blue,Distractor2.bmp,yellow,Distractor2.bmp,lime,Distractor1.bmp,red,Target2.bmp,,,,TrialProc,4,TrainingTrialList,1,2,-999999,1,209894,0,2,1225,211119,Target2.bmp,red,2,,,,12,2,9
KW_Experiment5A,45,1,"<?xml version=""1.0""?>\n<Clock xmlns:dt=""urn:schemas-microsoft-com:datatypes""><Description dt:dt=""string"">E-Prime Primary Realtime Clock</Description><StartTime><Timestamp dt:dt=""int"">0</Timestamp><DateUtc dt:dt=""string"">2018-10-25T19:41:52Z</DateUtc></StartTime><FrequencyChanges><FrequencyChange><Frequency dt:dt=""r8"">3215292</Frequency><Timestamp dt:dt=""r8"">1606224572912</Timestamp><Current dt:dt=""r8"">0</Current><DateUtc dt:dt=""string"">2018-10-25T19:41:52Z</DateUtc></FrequencyChange></FrequencyChanges></Clock>\n",KW_Experiment5A-45-1,59.946,1.0.0.105,2,-92575700,Professional,2.0.10.353,2.0.10.353,10/25/2018,10/25/2018 19:41,15:41:52,2.0.10.248,2,2,1,2,,,,,,,,TrainingProc,BlockList,10,1,Distractor1.bmp,1,0,,0,1,212129,500,,0,0,purple,500,2,500,,vertical,purple,Distractor1.bmp,blue,Distractor2.bmp,yellow,Distractor2.bmp,cyan,Distractor1.bmp,lime,Distractor1.bmp,red,Target1.bmp,,,,TrialProc,5,TrainingTrialList,0,1,-999999,0,212629,0,2,730,213359,Target1.bmp,red,1,,,,12,2,10
KW_Experiment5A,45,1,"<?xml version=""1.0""?>\n<Clock xmlns:dt=""urn:schemas-microsoft-com:datatypes""><Description dt:dt=""string"">E-Prime Primary Realtime Clock</Description><StartTime><Timestamp dt:dt=""int"">0</Timestamp><DateUtc dt:dt=""string"">2018-10-25T19:41:52Z</DateUtc></StartTime><FrequencyChanges><FrequencyChange><Frequency dt:dt=""r8"">3215292</Frequency><Timestamp dt:dt=""r8"">1606224572912</Timestamp><Current dt:dt=""r8"">0</Current><DateUtc dt:dt=""string"">2018-10-25T19:41:52Z</DateUtc></FrequencyChange></FrequencyChanges></Clock>\n",KW_Experiment5A-45-1,59.946,1.0.0.105,2,-92575700,Professional,2.0.10.353,2.0.10.353,10/25/2018,10/25/2018 19:41,15:41:52,2.0.10.248,2,2,1,2,,,,,,,,TrainingProc,BlockList,11,1,Distractor1.bmp,1,0,,0,1,214381,500,,0,0,yellow,500,2,500,2,vertical,yellow,Distractor2.bmp,lime,Target1.bmp,purple,Distractor1.bmp,red,Distractor1.bmp,blue,Distractor1.bmp,cyan,Distractor1.bmp,,,,TrialProc,,TrainingTrialList,1,1,-999999,0,214881,0,1,494,215375,Target1.bmp,lime,1,,,,2,2,11
KW_Experiment5A,45,1,"<?xml version=""1.0""?>\n<Clock xmlns:dt=""urn:schemas-microsoft-com:datatypes""><Description dt:dt=""string"">E-Prime Primary Realtime Clock</Description><StartTime><Timestamp dt:dt=""int"">0</Timestamp><DateUtc dt:dt=""string"">2018-10-25T19:41:52Z</DateUtc></StartTime><FrequencyChanges><FrequencyChange><Frequency dt:dt=""r8"">3215292</Frequency><Timestamp dt:dt=""r8"">1606224572912</Timestamp><Current dt:dt=""r8"">0</Current><DateUtc dt:dt=""string"">2018-10-25T19:41:52Z</DateUtc></FrequencyChange></FrequencyChanges></Clock>\n",KW_Experiment5A-45-1,59.946,1.0.0.105,2,-92575700,Professional,2.0.10.353,2.0.10.353,10/25/2018,10/25/2018 19:41,15:41:52,2.0.10.248,2,2,1,2,,,,,,,,TrainingProc,BlockList,12,2,Distractor2.bmp,2,0,,0,1,216400,600,,0,0,yellow,600,3,600,2,horizontal,yellow,Distractor2.bmp,blue,Distractor1.bmp,lime,Target2.bmp,cyan,Distractor2.bmp,red,Distractor1.bmp,purple,Distractor2.bmp,,,,TrialProc,,TrainingTrialList,1,2,-999999,0,217000,0,2,1151,218151,Target2.bmp,lime,2,,,,3,2,12
KW_Experiment5A,45,1,"<?xml version=""1.0""?>\n<Clock xmlns:dt=""urn:schemas-microsoft-com:datatypes""><Description dt:dt=""string"">E-Prime Primary Realtime Clock</Description><StartTime><Timestamp dt:dt=""int"">0</Timestamp><DateUtc dt:dt=""string"">2018-10-25T19:41:52Z</DateUtc></StartTime><FrequencyChanges><FrequencyChange><Frequency dt:dt=""r8"">3215292</Frequency><Timestamp dt:dt=""r8"">1606224572912</Timestamp><Current dt:dt=""r8"">0</Current><DateUtc dt:dt=""string"">2018-10-25T19:41:52Z</DateUtc></FrequencyChange></FrequencyChanges></Clock>\n",KW_Experiment5A-45-1,59.946,1.0.0.105,2,-92575700,Professional,2.0.10.353,2.0.10.353,10/25/2018,10/25/2018 19:41,15:41:52,2.0.10.248,2,2,1,2,,,,,,,,TrainingProc,BlockList,13,1,Distractor2.bmp,2,0,,0,1,219169,600,,0,0,yellow,600,3,600,2,vertical,lime,Target1.bmp,yellow,Distractor2.bmp,cyan,Distractor2.bmp,purple,Distractor1.bmp,blue,Distractor1.bmp,red,Distractor2.bmp,,,,TrialProc,,TrainingTrialList,1,1,-999999,0,219769,0,1,494,220263,Target1.bmp,lime,1,,,,1,2,13
KW_Experiment5A,45,1,"<?xml version=""1.0""?>\n<Clock xmlns:dt=""urn:schemas-microsoft-com:datatypes""><Description dt:dt=""string"">E-Prime Primary Realtime Clock</Description><StartTime><Timestamp dt:dt=""int"">0</Timestamp><DateUtc dt:dt=""string"">2018-10-25T19:41:52Z</DateUtc></StartTime><FrequencyChanges><FrequencyChange><Frequency dt:dt=""r8"">3215292</Frequency><Timestamp dt:dt=""r8"">1606224572912</Timestamp><Current dt:dt=""r8"">0</Current><DateUtc dt:dt=""string"">2018-10-25T19:41:52Z</DateUtc></FrequencyChange></FrequencyChanges></Clock>\n",KW_Experiment5A-45-1,59.946,1.0.0.105,2,-92575700,Professional,2.0.10.353,2.0.10.353,10/25/2018,10/25/2018 19:41,15:41:52,2.0.10.248,2,2,1,2,,,,,,,,TrainingProc,BlockList,14,1,Distractor1.bmp,1,0,,0,1,221287,401,,0,0,lime,400,1,400,,vertical,lime,Distractor1.bmp,blue,Distractor2.bmp,purple,Distractor2.bmp,cyan,Distractor1.bmp,yellow,Distractor1.bmp,red,Target1.bmp,,,,TrialProc,6,TrainingTrialList,1,1,-999999,1,221688,0,1,623,222311,Target1.bmp,red,1,,,,12,2,14
KW_Experiment5A,45,1,"<?xml version=""1.0""?>\n<Clock xmlns:dt=""urn:schemas-microsoft-com:datatypes""><Description dt:dt=""string"">E-Prime Primary Realtime Clock</Description><StartTime><Timestamp dt:dt=""int"">0</Timestamp><DateUtc dt:dt=""string"">2018-10-25T19:41:52Z</DateUtc></StartTime><FrequencyChanges><FrequencyChange><Frequency dt:dt=""r8"">3215292</Frequency><Timestamp dt:dt=""r8"">1606224572912</Timestamp><Current dt:dt=""r8"">0</Current><DateUtc dt:dt=""string"">2018-10-25T19:41:52Z</DateUtc></FrequencyChange></FrequencyChanges></Clock>\n",KW_Experiment5A-45-1,59.946,1.0.0.105,2,-92575700,Professional,2.0.10.353,2.0.10.353,10/25/2018,10/25/2018 19:41,15:41:52,2.0.10.248,2,2,1,2,,,,,,,,TrainingProc,BlockList,15,1,Distractor1.bmp,1,0,,0,1,223323,600,,0,0,cyan,600,3,600,,vertical,cyan,Distractor1.bmp,yellow,Distractor2.bmp,red,Target1.bmp,purple,Distractor1.bmp,lime,Distractor2.bmp,blue,Distractor2.bmp,,,,TrialProc,4,TrainingTrialList,1,1,-999999,0,223923,0,1,788,224711,Target1.bmp,red,1,,,,9,2,15
KW_Experiment5A,45,1,"<?xml version=""1.0""?>\n<Clock xmlns:dt=""urn:schemas-microsoft-com:datatypes""><Description dt:dt=""string"">E-Prime Primary Realtime Clock</Description><StartTime><Timestamp dt:dt=""int"">0</Timestamp><DateUtc dt:dt=""string"">2018-10-25T19:41:52Z</DateUtc></StartTime><FrequencyChanges><FrequencyChange><Frequency dt:dt=""r8"">3215292</Frequency><Timestamp dt:dt=""r8"">1606224572912</Timestamp><Current dt:dt=""r8"">0</Current><DateUtc dt:dt=""string"">2018-10-25T19:41:52Z</DateUtc></FrequencyChange></FrequencyChanges></Clock>\n",KW_Experiment5A-45-1,59.946,1.0.0.105,2,-92575700,Professional,2.0.10.353,2.0.10.353,10/25/2018,10/25/2018 19:41,15:41:52,2.0.10.248,2,2,1,2,,,,,,,,TrainingProc,BlockList,16,1,Distractor2.bmp,2,0,,0,1,225725,400,,0,0,yellow,400,1,400,,vertical,yellow,Distractor2.bmp,cyan,Distractor1.bmp,lime,Distractor2.bmp,red,Target1.bmp,purple,Distractor2.bmp,blue,Distractor1.bmp,,,,TrialProc,2,TrainingTrialList,1,1,-999999,0,226125,0,1,714,226839,Target1.bmp,red,1,,,,10,2,16
KW_Experiment5A,45,1,"<?xml version=""1.0""?>\n<Clock xmlns:dt=""urn:schemas-microsoft-com:datatypes""><Description dt:dt=""string"">E-Prime Primary Realtime Clock</Description><StartTime><Timestamp dt:dt=""int"">0</Timestamp><DateUtc dt:dt=""string"">2018-10-25T19:41:52Z</DateUtc></StartTime><FrequencyChanges><FrequencyChange><Frequency dt:dt=""r8"">3215292</Frequency><Timestamp dt:dt=""r8"">1606224572912</Timestamp><Current dt:dt=""r8"">0</Current><DateUtc dt:dt=""string"">2018-10-25T19:41:52Z</DateUtc></FrequencyChange></FrequencyChanges></Clock>\n",KW_Experiment5A-45-1,59.946,1.0.0.105,2,-92575700,Professional,2.0.10.353,2.0.10.353,10/25/2018,10/25/2018 19:41,15:41:52,2.0.10.248,2,2,1,2,,,,,,,,TrainingProc,BlockList,17,2,Distractor2.bmp,2,0,,0,1,227860,400,,0,0,purple,400,1,400,,horizontal,purple,Distractor2.bmp,red,Target2.bmp,yellow,Distractor2.bmp,lime,Distractor1.bmp,cyan,Distractor2.bmp,blue,Distractor2.bmp,,,,TrialProc,5,TrainingTrialList,1,2,-999999,0,228260,0,2,387,228647,Target2.bmp,red,2,,,,8,2,17
KW_Experiment5A,45,1,"<?xml version=""1.0""?>\n<Clock xmlns:dt=""urn:schemas-microsoft-com:datatypes""><Description dt:dt=""string"">E-Prime Primary Realtime Clock</Description><StartTime><Timestamp dt:dt=""int"">0</Timestamp><DateUtc dt:dt=""string"">2018-10-25T19:41:52Z</DateUtc></StartTime><FrequencyChanges><FrequencyChange><Frequency dt:dt=""r8"">3215292</Frequency><Timestamp dt:dt=""r8"">1606224572912</Timestamp><Current dt:dt=""r8"">0</Current><DateUtc dt:dt=""string"">2018-10-25T19:41:52Z</DateUtc></FrequencyChange></FrequencyChanges></Clock>\n",KW_Experiment5A-45-1,59.946,1.0.0.105,2,-92575700,Professional,2.0.10.353,2.0.10.353,10/25/2018,10/25/2018 19:41,15:41:52,2.0.10.248,2,2,1,2,,,,,,,,TrainingProc,BlockList,18,2,Distractor1.bmp,1,0,,0,1,229662,600,,0,0,purple,600,3,600,,horizontal,purple,Distractor2.bmp,yellow,Distractor2.bmp,lime,Distractor1.bmp,blue,Distractor1.bmp,red,Target2.bmp,cyan,Distractor1.bmp,,,,TrialProc,5,TrainingTrialList,0,2,-999999,0,230262,0,1,393,230655,Target2.bmp,red,2,,,,11,2,18
KW_Experiment5A,45,1,"<?xml version=""1.0""?>\n<Clock xmlns:dt=""urn:schemas-microsoft-com:datatypes""><Description dt:dt=""string"">E-Prime Primary Realtime Clock</Description><StartTime><Timestamp dt:dt=""int"">0</Timestamp><DateUtc dt:dt=""string"">2018-10-25T19:41:52Z</DateUtc></StartTime><FrequencyChanges><FrequencyChange><Frequency dt:dt=""r8"">3215292</Frequency><Timestamp dt:dt=""r8"">1606224572912</Timestamp><Current dt:dt=""r8"">0</Current><DateUtc dt:dt=""string"">2018-10-25T19:41:52Z</DateUtc></FrequencyChange></FrequencyChanges></Clock>\n",KW_Experiment5A-45-1,59.946,1.0.0.105,2,-92575700,Professional,2.0.10.353,2.0.10.353,10/25/2018,10/25/2018 19:41,15:41:52,2.0.10.248,2,2,1,2,,,,,,,,TrainingProc,BlockList,19,1,Distractor2.bmp,2,0,,0,1,231680,601,,0,0,yellow,600,3,600,,vertical,yellow,Distractor2.bmp,purple,Distractor1.bmp,red,Target1.bmp,lime,Distractor2.bmp,blue,Distractor2.bmp,cyan,Distractor1.bmp,,,,TrialProc,2,TrainingTrialList,1,1,-999999,1,232281,0,1,662,232943,Target1.bmp,red,1,,,,9,2,19
KW_Experiment5A,45,1,"<?xml version=""1.0""?>\n<Clock xmlns:dt=""urn:schemas-microsoft-com:datatypes""><Description dt:dt=""string"">E-Prime Primary Realtime Clock</Description><StartTime><Timestamp dt:dt=""int"">0</Timestamp><DateUtc dt:dt=""string"">2018-10-25T19:41:52Z</DateUtc></StartTime><FrequencyChanges><FrequencyChange><Frequency dt:dt=""r8"">3215292</Frequency><Timestamp dt:dt=""r8"">1606224572912</Timestamp><Current dt:dt=""r8"">0</Current><DateUtc dt:dt=""string"">2018-10-25T19:41:52Z</DateUtc></FrequencyChange></FrequencyChanges></Clock>\n",KW_Experiment5A-45-1,59.946,1.0.0.105,2,-92575700,Professional,2.0.10.353,2.0.10.353,10/25/2018,10/25/2018 19:41,15:41:52,2.0.10.248,2,2,1,2,,,,,,,,TrainingProc,BlockList,20,1,Distractor1.bmp,1,0,,1,0,233965,501,,0,0,yellow,500,2,500,2,vertical,yellow,Distractor1.bmp,blue,Distractor1.bmp,purple,Distractor2.bmp,cyan,Distractor2.bmp,red,Distractor1.bmp,lime,Target1.bmp,,,,TrialProc,,TrainingTrialList,1,1,-999999,1,234466,0,1,589,235055,Target1.bmp,lime,1,,,,6,2,20
KW_Experiment5A,45,1,"<?xml version=""1.0""?>\n<Clock xmlns:dt=""urn:schemas-microsoft-com:datatypes""><Description dt:dt=""string"">E-Prime Primary Realtime Clock</Description><StartTime><Timestamp dt:dt=""int"">0</Timestamp><DateUtc dt:dt=""string"">2018-10-25T19:41:52Z</DateUtc></StartTime><FrequencyChanges><FrequencyChange><Frequency dt:dt=""r8"">3215292</Frequency><Timestamp dt:dt=""r8"">1606224572912</Timestamp><Current dt:dt=""r8"">0</Current><DateUtc dt:dt=""string"">2018-10-25T19:41:52Z</DateUtc></FrequencyChange></FrequencyChanges></Clock>\n",KW_Experiment5A-45-1,59.946,1.0.0.105,2,-92575700,Professional,2.0.10.353,2.0.10.353,10/25/2018,10/25/2018 19:41,15:41:52,2.0.10.248,2,2,1,2,,,,,,,,TrainingProc,BlockList,21,1,Distractor1.bmp,1,0,,0,1,236067,501,,0,0,blue,500,2,500,,vertical,red,Target1.bmp,lime,Distractor1.bmp,purple,Distractor2.bmp,cyan,Distractor1.bmp,yellow,Distractor1.bmp,blue,Distractor2.bmp,,,,TrialProc,3,TrainingTrialList,1,1,-999999,1,236568,0,1,511,237079,Target1.bmp,red,1,,,,7,2,21
KW_Experiment5A,45,1,"<?xml version=""1.0""?>\n<Clock xmlns:dt=""urn:schemas-microsoft-com:datatypes""><Description dt:dt=""string"">E-Prime Primary Realtime Clock</Description><StartTime><Timestamp dt:dt=""int"">0</Timestamp><DateUtc dt:dt=""string"">2018-10-25T19:41:52Z</DateUtc></StartTime><FrequencyChanges><FrequencyChange><Frequency dt:dt=""r8"">3215292</Frequency><Timestamp dt:dt=""r8"">1606224572912</Timestamp><Current dt:dt=""r8"">0</Current><DateUtc dt:dt=""string"">2018-10-25T19:41:52Z</DateUtc></FrequencyChange></FrequencyChanges></Clock>\n",KW_Experiment5A-45-1,59.946,1.0.0.105,2,-92575700,Professional,2.0.10.353,2.0.10.353,10/25/2018,10/25/2018 19:41,15:41:52,2.0.10.248,2,2,1,2,,,,,,,,TrainingProc,BlockList,22,1,Distractor1.bmp,1,0,,0,1,238103,600,,0,0,lime,600,3,600,,vertical,lime,Distractor1.bmp,purple,Distractor1.bmp,blue,Distractor2.bmp,cyan,Distractor1.bmp,red,Target1.bmp,yellow,Distractor1.bmp,,,,TrialProc,6,TrainingTrialList,1,1,-999999,0,238703,0,1,471,239174,Target1.bmp,red,1,,,,11,2,22
KW_Experiment5A,45,1,"<?xml version=""1.0""?>\n<Clock xmlns:dt=""urn:schemas-microsoft-com:datatypes""><Description dt:dt=""string"">E-Prime Primary Realtime Clock</Description><StartTime><Timestamp dt:dt=""int"">0</Timestamp><DateUtc dt:dt=""string"">2018-10-25T19:41:52Z</DateUtc></StartTime><FrequencyChanges><FrequencyChange><Frequency dt:dt=""r8"">3215292</Frequency><Timestamp dt:dt=""r8"">1606224572912</Timestamp><Current dt:dt=""r8"">0</Current><DateUtc dt:dt=""string"">2018-10-25T19:41:52Z</DateUtc></FrequencyChange></FrequencyChanges></Clock>\n",KW_Experiment5A-45-1,59.946,1.0.0.105,2,-92575700,Professional,2.0.10.353,2.0.10.353,10/25/2018,10/25/2018 19:41,15:41:52,2.0.10.248,2,2,1,2,,,,,,,,TrainingProc,BlockList,23,2,Distractor1.bmp,1,0,,0,1,240188,600,,0,0,cyan,600,3,600,4,horizontal,cyan,Distractor1.bmp,purple,Distractor1.bmp,red,Distractor2.bmp,lime,Target2.bmp,blue,Distractor1.bmp,yellow,Distractor2.bmp,,,,TrialProc,,TrainingTrialList,1,2,-999999,0,240788,0,2,538,241326,Target2.bmp,lime,2,,,,4,2,23
KW_Experiment5A,45,1,"<?xml version=""1.0""?>\n<Clock xmlns:dt=""urn:schemas-microsoft-com:datatypes""><Description dt:dt=""string"">E-Prime Primary Realtime Clock</Description><StartTime><Timestamp dt:dt=""int"">0</Timestamp><DateUtc dt:dt=""string"">2018-10-25T19:41:52Z</DateUtc></StartTime><FrequencyChanges><FrequencyChange><Frequency dt:dt=""r8"">3215292</Frequency><Timestamp dt:dt=""r8"">1606224572912</Timestamp><Current dt:dt=""r8"">0</Current><DateUtc dt:dt=""string"">2018-10-25T19:41:52Z</DateUtc></FrequencyChange></FrequencyChanges></Clock>\n",KW_Experiment5A-45-1,59.946,1.0.0.105,2,-92575700,Professional,2.0.10.353,2.0.10.353,10/25/2018,10/25/2018 19:41,15:41:52,2.0.10.248,2,2,1,2,,,,,,,,TrainingProc,BlockList,24,2,Distractor1.bmp,1,0,,0,1,242340,500,,0,0,yellow,500,2,500,2,horizontal,yellow,Distractor1.bmp,cyan,Distractor2.bmp,blue,Distractor1.bmp,red,Distractor2.bmp,lime,Target2.bmp,purple,Distractor1.bmp,,,,TrialProc,,TrainingTrialList,1,2,-999999,0,242840,0,2,614,243454,Target2.bmp,lime,2,,,,5,2,24
KW_Experiment5A,45,1,"<?xml version=""1.0""?>\n<Clock xmlns:dt=""urn:schemas-microsoft-com:datatypes""><Description dt:dt=""string"">E-Prime Primary Realtime Clock</Description><StartTime><Timestamp dt:dt=""int"">0</Timestamp><DateUtc dt:dt=""string"">2018-10-25T19:41:52Z</DateUtc></StartTime><FrequencyChanges><FrequencyChange><Frequency dt:dt=""r8"">3215292</Frequency><Timestamp dt:dt=""r8"">1606224572912</Timestamp><Current dt:dt=""r8"">0</Current><DateUtc dt:dt=""string"">2018-10-25T19:41:52Z</DateUtc></FrequencyChange></FrequencyChanges></Clock>\n",KW_Experiment5A-45-1,59.946,1.0.0.105,2,-92575700,Professional,2.0.10.353,2.0.10.353,10/25/2018,10/25/2018 19:41,15:41:52,2.0.10.248,2,2,1,2,,,,,,,,TrainingProc,BlockList,25,2,Distractor1.bmp,1,0,,0,1,244475,601,,0,0,cyan,600,3,600,,horizontal,cyan,Distractor1.bmp,blue,Distractor2.bmp,lime,Distractor1.bmp,purple,Distractor2.bmp,yellow,Distractor1.bmp,red,Target2.bmp,,,,TrialProc,4,TrainingTrialList,1,2,-999999,1,245076,0,2,538,245614,Target2.bmp,red,2,,,,12,3,25
KW_Experiment5A,45,1,"<?xml version=""1.0""?>\n<Clock xmlns:dt=""urn:schemas-microsoft-com:datatypes""><Description dt:dt=""string"">E-Prime Primary Realtime Clock</Description><StartTime><Timestamp dt:dt=""int"">0</Timestamp><DateUtc dt:dt=""string"">2018-10-25T19:41:52Z</DateUtc></StartTime><FrequencyChanges><FrequencyChange><Frequency dt:dt=""r8"">3215292</Frequency><Timestamp dt:dt=""r8"">1606224572912</Timestamp><Current dt:dt=""r8"">0</Current><DateUtc dt:dt=""string"">2018-10-25T19:41:52Z</DateUtc></FrequencyChange></FrequencyChanges></Clock>\n",KW_Experiment5A-45-1,59.946,1.0.0.105,2,-92575700,Professional,2.0.10.353,2.0.10.353,10/25/2018,10/25/2018 19:41,15:41:52,2.0.10.248,2,2,1,2,,,,,,,,TrainingProc,BlockList,26,1,Distractor2.bmp,2,0,,0,1,246627,500,,0,0,blue,500,2,500,,vertical,blue,Distractor1.bmp,cyan,Distractor1.bmp,purple,Distractor1.bmp,red,Target1.bmp,yellow,Distractor2.bmp,lime,Distractor2.bmp,,,,TrialProc,3,TrainingTrialList,1,1,-999999,0,247127,0,1,511,247638,Target1.bmp,red,1,,,,10,3,26
KW_Experiment5A,45,1,"<?xml version=""1.0""?>\n<Clock xmlns:dt=""urn:schemas-microsoft-com:datatypes""><Description dt:dt=""string"">E-Prime Primary Realtime Clock</Description><StartTime><Timestamp dt:dt=""int"">0</Timestamp><DateUtc dt:dt=""string"">2018-10-25T19:41:52Z</DateUtc></StartTime><FrequencyChanges><FrequencyChange><Frequency dt:dt=""r8"">3215292</Frequency><Timestamp dt:dt=""r8"">1606224572912</Timestamp><Current dt:dt=""r8"">0</Current><DateUtc dt:dt=""string"">2018-10-25T19:41:52Z</DateUtc></FrequencyChange></FrequencyChanges></Clock>\n",KW_Experiment5A-45-1,59.946,1.0.0.105,2,-92575700,Professional,2.0.10.353,2.0.10.353,10/25/2018,10/25/2018 19:41,15:41:52,2.0.10.248,2,2,1,2,,,,,,,,TrainingProc,BlockList,27,2,Distractor2.bmp,2,0,,0,1,248662,501,,0,0,yellow,500,2,500,,horizontal,red,Target2.bmp,blue,Distractor2.bmp,purple,Distractor2.bmp,cyan,Distractor1.bmp,lime,Distractor2.bmp,yellow,Distractor2.bmp,,,,TrialProc,2,TrainingTrialList,1,2,-999999,1,249163,0,2,555,249718,Target2.bmp,red,2,,,,7,3,27
KW_Experiment5A,45,1,"<?xml version=""1.0""?>\n<Clock xmlns:dt=""urn:schemas-microsoft-com:datatypes""><Description dt:dt=""string"">E-Prime Primary Realtime Clock</Description><StartTime><Timestamp dt:dt=""int"">0</Timestamp><DateUtc dt:dt=""string"">2018-10-25T19:41:52Z</DateUtc></StartTime><FrequencyChanges><FrequencyChange><Frequency dt:dt=""r8"">3215292</Frequency><Timestamp dt:dt=""r8"">1606224572912</Timestamp><Current dt:dt=""r8"">0</Current><DateUtc dt:dt=""string"">2018-10-25T19:41:52Z</DateUtc></FrequencyChange></FrequencyChanges></Clock>\n",KW_Experiment5A-45-1,59.946,1.0.0.105,2,-92575700,Professional,2.0.10.353,2.0.10.353,10/25/2018,10/25/2018 19:41,15:41:52,2.0.10.248,2,2,1,2,,,,,,,,TrainingProc,BlockList,28,2,Distractor1.bmp,1,0,,0,1,250731,400,,0,0,cyan,400,1,400,,horizontal,cyan,Distractor1.bmp,red,Target2.bmp,lime,Distractor1.bmp,purple,Distractor1.bmp,yellow,Distractor1.bmp,blue,Distractor1.bmp,,,,TrialProc,4,TrainingTrialList,1,2,-999999,0,251131,0,2,451,251582,Target2.bmp,red,2,,,,8,3,28
KW_Experiment5A,45,1,"<?xml version=""1.0""?>\n<Clock xmlns:dt=""urn:schemas-microsoft-com:datatypes""><Description dt:dt=""string"">E-Prime Primary Realtime Clock</Description><StartTime><Timestamp dt:dt=""int"">0</Timestamp><DateUtc dt:dt=""string"">2018-10-25T19:41:52Z</DateUtc></StartTime><FrequencyChanges><FrequencyChange><Frequency dt:dt=""r8"">3215292</Frequency><Timestamp dt:dt=""r8"">1606224572912</Timestamp><Current dt:dt=""r8"">0</Current><DateUtc dt:dt=""string"">2018-10-25T19:41:52Z</DateUtc></FrequencyChange></FrequencyChanges></Clock>\n",KW_Experiment5A-45-1,59.946,1.0.0.105,2,-92575700,Professional,2.0.10.353,2.0.10.353,10/25/2018,10/25/2018 19:41,15:41:52,2.0.10.248,2,2,1,2,,,,,,,,TrainingProc,BlockList,29,2,Distractor2.bmp,2,0,,0,1,252599,500,,0,0,red,500,2,500,1,horizontal,red,Distractor1.bmp,purple,Distractor1.bmp,blue,Distractor1.bmp,cyan,Distractor1.bmp,lime,Target2.bmp,yellow,Distractor2.bmp,,,,TrialProc,,TrainingTrialList,1,2,-999999,0,253099,0,2,539,253638,Target2.bmp,lime,2,,,,5,3,29
KW_Experiment5A,45,1,"<?xml version=""1.0""?>\n<Clock xmlns:dt=""urn:schemas-microsoft-com:datatypes""><Description dt:dt=""string"">E-Prime Primary Realtime Clock</Description><StartTime><Timestamp dt:dt=""int"">0</Timestamp><DateUtc dt:dt=""string"">2018-10-25T19:41:52Z</DateUtc></StartTime><FrequencyChanges><FrequencyChange><Frequency dt:dt=""r8"">3215292</Frequency><Timestamp dt:dt=""r8"">1606224572912</Timestamp><Current dt:dt=""r8"">0</Current><DateUtc dt:dt=""string"">2018-10-25T19:41:52Z</DateUtc></FrequencyChange></FrequencyChanges></Clock>\n",KW_Experiment5A-45-1,59.946,1.0.0.105,2,-92575700,Professional,2.0.10.353,2.0.10.353,10/25/2018,10/25/2018 19:41,15:41:52,2.0.10.248,2,2,1,2,,,,,,,,TrainingProc,BlockList,30,1,Distractor1.bmp,1,0,,0,1,254651,500,,0,0,lime,500,2,500,,vertical,lime,Distractor1.bmp,cyan,Distractor1.bmp,purple,Distractor2.bmp,red,Target1.bmp,yellow,Distractor1.bmp,blue,Distractor2.bmp,,,,TrialProc,6,TrainingTrialList,0,1,-999999,0,255151,0,2,447,255598,Target1.bmp,red,1,,,,10,3,30
KW_Experiment5A,45,1,"<?xml version=""1.0""?>\n<Clock xmlns:dt=""urn:schemas-microsoft-com:datatypes""><Description dt:dt=""string"">E-Prime Primary Realtime Clock</Description><StartTime><Timestamp dt:dt=""int"">0</Timestamp><DateUtc dt:dt=""string"">2018-10-25T19:41:52Z</DateUtc></StartTime><FrequencyChanges><FrequencyChange><Frequency dt:dt=""r8"">3215292</Frequency><Timestamp dt:dt=""r8"">1606224572912</Timestamp><Current dt:dt=""r8"">0</Current><DateUtc dt:dt=""string"">2018-10-25T19:41:52Z</DateUtc></FrequencyChange></FrequencyChanges></Clock>\n",KW_Experiment5A-45-1,59.946,1.0.0.105,2,-92575700,Professional,2.0.10.353,2.0.10.353,10/25/2018,10/25/2018 19:41,15:41:52,2.0.10.248,2,2,1,2,,,,,,,,TrainingProc,BlockList,31,2,Distractor1.bmp,1,0,,0,1,256619,601,,0,0,lime,600,3,600,,horizontal,lime,Distractor1.bmp,purple,Distractor2.bmp,yellow,Distractor1.bmp,cyan,Distractor2.bmp,red,Target2.bmp,blue,Distractor1.bmp,,,,TrialProc,6,TrainingTrialList,1,2,-999999,1,257220,0,2,682,257902,Target2.bmp,red,2,,,,11,3,31
KW_Experiment5A,45,1,"<?xml version=""1.0""?>\n<Clock xmlns:dt=""urn:schemas-microsoft-com:datatypes""><Description dt:dt=""string"">E-Prime Primary Realtime Clock</Description><StartTime><Timestamp dt:dt=""int"">0</Timestamp><DateUtc dt:dt=""string"">2018-10-25T19:41:52Z</DateUtc></StartTime><FrequencyChanges><FrequencyChange><Frequency dt:dt=""r8"">3215292</Frequency><Timestamp dt:dt=""r8"">1606224572912</Timestamp><Current dt:dt=""r8"">0</Current><DateUtc dt:dt=""string"">2018-10-25T19:41:52Z</DateUtc></FrequencyChange></FrequencyChanges></Clock>\n",KW_Experiment5A-45-1,59.946,1.0.0.105,2,-92575700,Professional,2.0.10.353,2.0.10.353,10/25/2018,10/25/2018 19:41,15:41:52,2.0.10.248,2,2,1,2,,,,,,,,TrainingProc,BlockList,32,2,Distractor1.bmp,1,0,,1,0,258921,401,,0,0,blue,400,1,400,,horizontal,blue,Distractor2.bmp,yellow,Distractor1.bmp,red,Target2.bmp,lime,Distractor1.bmp,purple,Distractor1.bmp,cyan,Distractor2.bmp,,,,TrialProc,3,TrainingTrialList,1,2,-999999,1,259322,0,2,524,259846,Target2.bmp,red,2,,,,9,3,32
KW_Experiment5A,45,1,"<?xml version=""1.0""?>\n<Clock xmlns:dt=""urn:schemas-microsoft-com:datatypes""><Description dt:dt=""string"">E-Prime Primary Realtime Clock</Description><StartTime><Timestamp dt:dt=""int"">0</Timestamp><DateUtc dt:dt=""string"">2018-10-25T19:41:52Z</DateUtc></StartTime><FrequencyChanges><FrequencyChange><Frequency dt:dt=""r8"">3215292</Frequency><Timestamp dt:dt=""r8"">1606224572912</Timestamp><Current dt:dt=""r8"">0</Current><DateUtc dt:dt=""string"">2018-10-25T19:41:52Z</DateUtc></FrequencyChange></FrequencyChanges></Clock>\n",KW_Experiment5A-45-1,59.946,1.0.0.105,2,-92575700,Professional,2.0.10.353,2.0.10.353,10/25/2018,10/25/2018 19:41,15:41:52,2.0.10.248,2,2,1,2,,,,,,,,TrainingProc,BlockList,33,1,Distractor1.bmp,1,0,,0,1,260857,600,,0,0,purple,600,3,600,,vertical,purple,Distractor1.bmp,yellow,Distractor2.bmp,lime,Distractor1.bmp,red,Target1.bmp,blue,Distractor1.bmp,cyan,Distractor2.bmp,,,,TrialProc,5,TrainingTrialList,1,1,-999999,0,261457,0,1,461,261918,Target1.bmp,red,1,,,,10,3,33
KW_Experiment5A,45,1,"<?xml version=""1.0""?>\n<Clock xmlns:dt=""urn:schemas-microsoft-com:datatypes""><Description dt:dt=""string"">E-Prime Primary Realtime Clock</Description><StartTime><Timestamp dt:dt=""int"">0</Timestamp><DateUtc dt:dt=""string"">2018-10-25T19:41:52Z</DateUtc></StartTime><FrequencyChanges><FrequencyChange><Frequency dt:dt=""r8"">3215292</Frequency><Timestamp dt:dt=""r8"">1606224572912</Timestamp><Current dt:dt=""r8"">0</Current><DateUtc dt:dt=""string"">2018-10-25T19:41:52Z</DateUtc></FrequencyChange></FrequencyChanges></Clock>\n",KW_Experiment5A-45-1,59.946,1.0.0.105,2,-92575700,Professional,2.0.10.353,2.0.10.353,10/25/2018,10/25/2018 19:41,15:41:52,2.0.10.248,2,2,1,2,,,,,,,,TrainingProc,BlockList,34,2,Distractor2.bmp,2,0,,0,1,262942,400,,0,0,purple,400,1,400,5,horizontal,lime,Target2.bmp,purple,Distractor2.bmp,blue,Distractor1.bmp,red,Distractor1.bmp,cyan,Distractor2.bmp,yellow,Distractor1.bmp,,,,TrialProc,,TrainingTrialList,1,2,-999999,0,263342,0,2,624,263966,Target2.bmp,lime,2,,,,1,3,34
KW_Experiment5A,45,1,"<?xml version=""1.0""?>\n<Clock xmlns:dt=""urn:schemas-microsoft-com:datatypes""><Description dt:dt=""string"">E-Prime Primary Realtime Clock</Description><StartTime><Timestamp dt:dt=""int"">0</Timestamp><DateUtc dt:dt=""string"">2018-10-25T19:41:52Z</DateUtc></StartTime><FrequencyChanges><FrequencyChange><Frequency dt:dt=""r8"">3215292</Frequency><Timestamp dt:dt=""r8"">1606224572912</Timestamp><Current dt:dt=""r8"">0</Current><DateUtc dt:dt=""string"">2018-10-25T19:41:52Z</DateUtc></FrequencyChange></FrequencyChanges></Clock>\n",KW_Experiment5A-45-1,59.946,1.0.0.105,2,-92575700,Professional,2.0.10.353,2.0.10.353,10/25/2018,10/25/2018 19:41,15:41:52,2.0.10.248,2,2,1,2,,,,,,,,TrainingProc,BlockList,35,1,Distractor1.bmp,1,0,,0,1,264977,500,,0,0,lime,500,2,500,,vertical,lime,Distractor1.bmp,cyan,Distractor1.bmp,blue,Distractor1.bmp,yellow,Distractor1.bmp,purple,Distractor1.bmp,red,Target1.bmp,,,,TrialProc,6,TrainingTrialList,1,1,-999999,0,265477,0,1,697,266174,Target1.bmp,red,1,,,,12,3,35
KW_Experiment5A,45,1,"<?xml version=""1.0""?>\n<Clock xmlns:dt=""urn:schemas-microsoft-com:datatypes""><Description dt:dt=""string"">E-Prime Primary Realtime Clock</Description><StartTime><Timestamp dt:dt=""int"">0</Timestamp><DateUtc dt:dt=""string"">2018-10-25T19:41:52Z</DateUtc></StartTime><FrequencyChanges><FrequencyChange><Frequency dt:dt=""r8"">3215292</Frequency><Timestamp dt:dt=""r8"">1606224572912</Timestamp><Current dt:dt=""r8"">0</Current><DateUtc dt:dt=""string"">2018-10-25T19:41:52Z</DateUtc></FrequencyChange></FrequencyChanges></Clock>\n",KW_Experiment5A-45-1,59.946,1.0.0.105,2,-92575700,Professional,2.0.10.353,2.0.10.353,10/25/2018,10/25/2018 19:41,15:41:52,2.0.10.248,2,2,1,2,,,,,,,,TrainingProc,BlockList,36,1,Distractor2.bmp,2,0,,0,1,267196,500,,0,0,blue,500,2,500,,vertical,blue,Distractor1.bmp,purple,Distractor1.bmp,red,Target1.bmp,lime,Distractor2.bmp,cyan,Distractor1.bmp,yellow,Distractor2.bmp,,,,TrialProc,3,TrainingTrialList,1,1,-999999,0,267696,0,1,502,268198,Target1.bmp,red,1,,,,9,3,36
KW_Experiment5A,45,1,"<?xml version=""1.0""?>\n<Clock xmlns:dt=""urn:schemas-microsoft-com:datatypes""><Description dt:dt=""string"">E-Prime Primary Realtime Clock</Description><StartTime><Timestamp dt:dt=""int"">0</Timestamp><DateUtc dt:dt=""string"">2018-10-25T19:41:52Z</DateUtc></StartTime><FrequencyChanges><FrequencyChange><Frequency dt:dt=""r8"">3215292</Frequency><Timestamp dt:dt=""r8"">1606224572912</Timestamp><Current dt:dt=""r8"">0</Current><DateUtc dt:dt=""string"">2018-10-25T19:41:52Z</DateUtc></FrequencyChange></FrequencyChanges></Clock>\n",KW_Experiment5A-45-1,59.946,1.0.0.105,2,-92575700,Professional,2.0.10.353,2.0.10.353,10/25/2018,10/25/2018 19:41,15:41:52,2.0.10.248,2,2,1,2,,,,,,,,TrainingProc,BlockList,37,1,Distractor1.bmp,1,0,,0,1,269214,601,,0,0,blue,600,3,600,,vertical,red,Target1.bmp,lime,Distractor1.bmp,yellow,Distractor2.bmp,purple,Distractor1.bmp,cyan,Distractor1.bmp,blue,Distractor2.bmp,,,,TrialProc,3,TrainingTrialList,1,1,-999999,1,269815,0,1,455,270270,Target1.bmp,red,1,,,,7,3,37
KW_Experiment5A,45,1,"<?xml version=""1.0""?>\n<Clock xmlns:dt=""urn:schemas-microsoft-com:datatypes""><Description dt:dt=""string"">E-Prime Primary Realtime Clock</Description><StartTime><Timestamp dt:dt=""int"">0</Timestamp><DateUtc dt:dt=""string"">2018-10-25T19:41:52Z</DateUtc></StartTime><FrequencyChanges><FrequencyChange><Frequency dt:dt=""r8"">3215292</Frequency><Timestamp dt:dt=""r8"">1606224572912</Timestamp><Current dt:dt=""r8"">0</Current><DateUtc dt:dt=""string"">2018-10-25T19:41:52Z</DateUtc></FrequencyChange></FrequencyChanges></Clock>\n",KW_Experiment5A-45-1,59.946,1.0.0.105,2,-92575700,Professional,2.0.10.353,2.0.10.353,10/25/2018,10/25/2018 19:41,15:41:52,2.0.10.248,2,2,1,2,,,,,,,,TrainingProc,BlockList,38,2,Distractor1.bmp,1,0,,0,1,271283,600,,0,0,lime,600,3,600,,horizontal,lime,Distractor1.bmp,cyan,Distractor1.bmp,yellow,Distractor2.bmp,blue,Distractor2.bmp,red,Target2.bmp,purple,Distractor1.bmp,,,,TrialProc,6,TrainingTrialList,1,2,-999999,0,271883,0,2,459,272342,Target2.bmp,red,2,,,,11,3,38
KW_Experiment5A,45,1,"<?xml version=""1.0""?>\n<Clock xmlns:dt=""urn:schemas-microsoft-com:datatypes""><Description dt:dt=""string"">E-Prime Primary Realtime Clock</Description><StartTime><Timestamp dt:dt=""int"">0</Timestamp><DateUtc dt:dt=""string"">2018-10-25T19:41:52Z</DateUtc></StartTime><FrequencyChanges><FrequencyChange><Frequency dt:dt=""r8"">3215292</Frequency><Timestamp dt:dt=""r8"">1606224572912</Timestamp><Current dt:dt=""r8"">0</Current><DateUtc dt:dt=""string"">2018-10-25T19:41:52Z</DateUtc></FrequencyChange></FrequencyChanges></Clock>\n",KW_Experiment5A-45-1,59.946,1.0.0.105,2,-92575700,Professional,2.0.10.353,2.0.10.353,10/25/2018,10/25/2018 19:41,15:41:52,2.0.10.248,2,2,1,2,,,,,,,,TrainingProc,BlockList,39,1,Distractor1.bmp,1,0,,0,1,273351,601,,0,0,blue,600,3,600,3,vertical,blue,Distractor1.bmp,yellow,Distractor2.bmp,purple,Distractor2.bmp,lime,Target1.bmp,red,Distractor1.bmp,cyan,Distractor2.bmp,,,,TrialProc,,TrainingTrialList,1,1,-999999,1,273952,0,1,462,274414,Target1.bmp,lime,1,,,,4,3,39
KW_Experiment5A,45,1,"<?xml version=""1.0""?>\n<Clock xmlns:dt=""urn:schemas-microsoft-com:datatypes""><Description dt:dt=""string"">E-Prime Primary Realtime Clock</Description><StartTime><Timestamp dt:dt=""int"">0</Timestamp><DateUtc dt:dt=""string"">2018-10-25T19:41:52Z</DateUtc></StartTime><FrequencyChanges><FrequencyChange><Frequency dt:dt=""r8"">3215292</Frequency><Timestamp dt:dt=""r8"">1606224572912</Timestamp><Current dt:dt=""r8"">0</Current><DateUtc dt:dt=""string"">2018-10-25T19:41:52Z</DateUtc></FrequencyChange></FrequencyChanges></Clock>\n",KW_Experiment5A-45-1,59.946,1.0.0.105,2,-92575700,Professional,2.0.10.353,2.0.10.353,10/25/2018,10/25/2018 19:41,15:41:52,2.0.10.248,2,2,1,2,,,,,,,,TrainingProc,BlockList,40,1,Distractor1.bmp,1,0,,1,0,275436,601,,0,0,lime,600,3,600,,vertical,lime,Distractor1.bmp,blue,Distractor2.bmp,yellow,Distractor1.bmp,cyan,Distractor1.bmp,red,Target1.bmp,purple,Distractor1.bmp,,,,TrialProc,6,TrainingTrialList,1,1,-999999,1,276037,0,1,369,276406,Target1.bmp,red,1,,,,11,3,40
KW_Experiment5A,45,1,"<?xml version=""1.0""?>\n<Clock xmlns:dt=""urn:schemas-microsoft-com:datatypes""><Description dt:dt=""string"">E-Prime Primary Realtime Clock</Description><StartTime><Timestamp dt:dt=""int"">0</Timestamp><DateUtc dt:dt=""string"">2018-10-25T19:41:52Z</DateUtc></StartTime><FrequencyChanges><FrequencyChange><Frequency dt:dt=""r8"">3215292</Frequency><Timestamp dt:dt=""r8"">1606224572912</Timestamp><Current dt:dt=""r8"">0</Current><DateUtc dt:dt=""string"">2018-10-25T19:41:52Z</DateUtc></FrequencyChange></FrequencyChanges></Clock>\n",KW_Experiment5A-45-1,59.946,1.0.0.105,2,-92575700,Professional,2.0.10.353,2.0.10.353,10/25/2018,10/25/2018 19:41,15:41:52,2.0.10.248,2,2,1,2,,,,,,,,TrainingProc,BlockList,41,2,Distractor1.bmp,1,0,,0,1,277422,400,,0,0,blue,400,1,400,3,horizontal,blue,Distractor2.bmp,lime,Target2.bmp,cyan,Distractor1.bmp,red,Distractor2.bmp,purple,Distractor1.bmp,yellow,Distractor1.bmp,,,,TrialProc,,TrainingTrialList,1,2,-999999,0,277822,0,2,432,278254,Target2.bmp,lime,2,,,,2,3,41
KW_Experiment5A,45,1,"<?xml version=""1.0""?>\n<Clock xmlns:dt=""urn:schemas-microsoft-com:datatypes""><Description dt:dt=""string"">E-Prime Primary Realtime Clock</Description><StartTime><Timestamp dt:dt=""int"">0</Timestamp><DateUtc dt:dt=""string"">2018-10-25T19:41:52Z</DateUtc></StartTime><FrequencyChanges><FrequencyChange><Frequency dt:dt=""r8"">3215292</Frequency><Timestamp dt:dt=""r8"">1606224572912</Timestamp><Current dt:dt=""r8"">0</Current><DateUtc dt:dt=""string"">2018-10-25T19:41:52Z</DateUtc></FrequencyChange></FrequencyChanges></Clock>\n",KW_Experiment5A-45-1,59.946,1.0.0.105,2,-92575700,Professional,2.0.10.353,2.0.10.353,10/25/2018,10/25/2018 19:41,15:41:52,2.0.10.248,2,2,1,2,,,,,,,,TrainingProc,BlockList,42,1,Distractor1.bmp,1,0,,0,1,279273,601,,0,0,purple,600,3,600,,vertical,purple,Distractor1.bmp,cyan,Distractor2.bmp,lime,Distractor1.bmp,blue,Distractor1.bmp,yellow,Distractor1.bmp,red,Target1.bmp,,,,TrialProc,5,TrainingTrialList,1,1,-999999,1,279874,0,1,468,280342,Target1.bmp,red,1,,,,12,3,42
KW_Experiment5A,45,1,"<?xml version=""1.0""?>\n<Clock xmlns:dt=""urn:schemas-microsoft-com:datatypes""><Description dt:dt=""string"">E-Prime Primary Realtime Clock</Description><StartTime><Timestamp dt:dt=""int"">0</Timestamp><DateUtc dt:dt=""string"">2018-10-25T19:41:52Z</DateUtc></StartTime><FrequencyChanges><FrequencyChange><Frequency dt:dt=""r8"">3215292</Frequency><Timestamp dt:dt=""r8"">1606224572912</Timestamp><Current dt:dt=""r8"">0</Current><DateUtc dt:dt=""string"">2018-10-25T19:41:52Z</DateUtc></FrequencyChange></FrequencyChanges></Clock>\n",KW_Experiment5A-45-1,59.946,1.0.0.105,2,-92575700,Professional,2.0.10.353,2.0.10.353,10/25/2018,10/25/2018 19:41,15:41:52,2.0.10.248,2,2,1,2,,,,,,,,TrainingProc,BlockList,43,1,Distractor2.bmp,2,0,,1,0,281358,401,,0,0,yellow,400,1,400,2,vertical,yellow,Distractor2.bmp,red,Distractor1.bmp,blue,Distractor1.bmp,cyan,Distractor1.bmp,purple,Distractor2.bmp,lime,Target1.bmp,,,,TrialProc,,TrainingTrialList,1,1,-999999,1,281759,0,1,494,282253,Target1.bmp,lime,1,,,,6,3,43
KW_Experiment5A,45,1,"<?xml version=""1.0""?>\n<Clock xmlns:dt=""urn:schemas-microsoft-com:datatypes""><Description dt:dt=""string"">E-Prime Primary Realtime Clock</Description><StartTime><Timestamp dt:dt=""int"">0</Timestamp><DateUtc dt:dt=""string"">2018-10-25T19:41:52Z</DateUtc></StartTime><FrequencyChanges><FrequencyChange><Frequency dt:dt=""r8"">3215292</Frequency><Timestamp dt:dt=""r8"">1606224572912</Timestamp><Current dt:dt=""r8"">0</Current><DateUtc dt:dt=""string"">2018-10-25T19:41:52Z</DateUtc></FrequencyChange></FrequencyChanges></Clock>\n",KW_Experiment5A-45-1,59.946,1.0.0.105,2,-92575700,Professional,2.0.10.353,2.0.10.353,10/25/2018,10/25/2018 19:41,15:41:52,2.0.10.248,2,2,1,2,,,,,,,,TrainingProc,BlockList,44,2,Distractor2.bmp,2,0,,0,1,283277,500,,0,0,blue,500,2,500,3,horizontal,blue,Distractor2.bmp,cyan,Distractor1.bmp,lime,Target2.bmp,yellow,Distractor2.bmp,purple,Distractor1.bmp,red,Distractor1.bmp,,,,TrialProc,,TrainingTrialList,1,2,-999999,0,283777,0,2,388,284165,Target2.bmp,lime,2,,,,3,3,44
KW_Experiment5A,45,1,"<?xml version=""1.0""?>\n<Clock xmlns:dt=""urn:schemas-microsoft-com:datatypes""><Description dt:dt=""string"">E-Prime Primary Realtime Clock</Description><StartTime><Timestamp dt:dt=""int"">0</Timestamp><DateUtc dt:dt=""string"">2018-10-25T19:41:52Z</DateUtc></StartTime><FrequencyChanges><FrequencyChange><Frequency dt:dt=""r8"">3215292</Frequency><Timestamp dt:dt=""r8"">1606224572912</Timestamp><Current dt:dt=""r8"">0</Current><DateUtc dt:dt=""string"">2018-10-25T19:41:52Z</DateUtc></FrequencyChange></FrequencyChanges></Clock>\n",KW_Experiment5A-45-1,59.946,1.0.0.105,2,-92575700,Professional,2.0.10.353,2.0.10.353,10/25/2018,10/25/2018 19:41,15:41:52,2.0.10.248,2,2,1,2,,,,,,,,TrainingProc,BlockList,45,1,Distractor2.bmp,2,0,,0,1,285179,400,,0,0,yellow,400,1,400,,vertical,yellow,Distractor1.bmp,cyan,Distractor1.bmp,red,Target1.bmp,purple,Distractor2.bmp,lime,Distractor1.bmp,blue,Distractor1.bmp,,,,TrialProc,2,TrainingTrialList,1,1,-999999,0,285579,0,1,514,286093,Target1.bmp,red,1,,,,9,3,45
KW_Experiment5A,45,1,"<?xml version=""1.0""?>\n<Clock xmlns:dt=""urn:schemas-microsoft-com:datatypes""><Description dt:dt=""string"">E-Prime Primary Realtime Clock</Description><StartTime><Timestamp dt:dt=""int"">0</Timestamp><DateUtc dt:dt=""string"">2018-10-25T19:41:52Z</DateUtc></StartTime><FrequencyChanges><FrequencyChange><Frequency dt:dt=""r8"">3215292</Frequency><Timestamp dt:dt=""r8"">1606224572912</Timestamp><Current dt:dt=""r8"">0</Current><DateUtc dt:dt=""string"">2018-10-25T19:41:52Z</DateUtc></FrequencyChange></FrequencyChanges></Clock>\n",KW_Experiment5A-45-1,59.946,1.0.0.105,2,-92575700,Professional,2.0.10.353,2.0.10.353,10/25/2018,10/25/2018 19:41,15:41:52,2.0.10.248,2,2,1,2,,,,,,,,TrainingProc,BlockList,46,2,Distractor2.bmp,2,0,,0,1,287114,600,,0,0,blue,600,3,600,,horizontal,blue,Distractor2.bmp,red,Target2.bmp,purple,Distractor2.bmp,lime,Distractor2.bmp,yellow,Distractor2.bmp,cyan,Distractor1.bmp,,,,TrialProc,3,TrainingTrialList,1,2,-999999,0,287714,0,2,435,288149,Target2.bmp,red,2,,,,8,3,46
KW_Experiment5A,45,1,"<?xml version=""1.0""?>\n<Clock xmlns:dt=""urn:schemas-microsoft-com:datatypes""><Description dt:dt=""string"">E-Prime Primary Realtime Clock</Description><StartTime><Timestamp dt:dt=""int"">0</Timestamp><DateUtc dt:dt=""string"">2018-10-25T19:41:52Z</DateUtc></StartTime><FrequencyChanges><FrequencyChange><Frequency dt:dt=""r8"">3215292</Frequency><Timestamp dt:dt=""r8"">1606224572912</Timestamp><Current dt:dt=""r8"">0</Current><DateUtc dt:dt=""string"">2018-10-25T19:41:52Z</DateUtc></FrequencyChange></FrequencyChanges></Clock>\n",KW_Experiment5A-45-1,59.946,1.0.0.105,2,-92575700,Professional,2.0.10.353,2.0.10.353,10/25/2018,10/25/2018 19:41,15:41:52,2.0.10.248,2,2,1,2,,,,,,,,TrainingProc,BlockList,47,2,Distractor1.bmp,1,0,,0,1,289166,600,,0,0,cyan,600,3,600,,horizontal,red,Target2.bmp,lime,Distractor1.bmp,yellow,Distractor2.bmp,blue,Distractor2.bmp,purple,Distractor2.bmp,cyan,Distractor1.bmp,,,,TrialProc,4,TrainingTrialList,1,2,-999999,0,289766,0,2,495,290261,Target2.bmp,red,2,,,,7,3,47
KW_Experiment5A,45,1,"<?xml version=""1.0""?>\n<Clock xmlns:dt=""urn:schemas-microsoft-com:datatypes""><Description dt:dt=""string"">E-Prime Primary Realtime Clock</Description><StartTime><Timestamp dt:dt=""int"">0</Timestamp><DateUtc dt:dt=""string"">2018-10-25T19:41:52Z</DateUtc></StartTime><FrequencyChanges><FrequencyChange><Frequency dt:dt=""r8"">3215292</Frequency><Timestamp dt:dt=""r8"">1606224572912</Timestamp><Current dt:dt=""r8"">0</Current><DateUtc dt:dt=""string"">2018-10-25T19:41:52Z</DateUtc></FrequencyChange></FrequencyChanges></Clock>\n",KW_Experiment5A-45-1,59.946,1.0.0.105,2,-92575700,Professional,2.0.10.353,2.0.10.353,10/25/2018,10/25/2018 19:41,15:41:52,2.0.10.248,2,2,1,2,,,,,,,,TrainingProc,BlockList,48,2,Distractor2.bmp,2,0,,0,1,291284,601,,0,0,cyan,600,3,600,,horizontal,cyan,Distractor2.bmp,red,Target2.bmp,purple,Distractor2.bmp,lime,Distractor2.bmp,yellow,Distractor2.bmp,blue,Distractor1.bmp,,,,TrialProc,4,TrainingTrialList,1,2,-999999,1,291885,0,2,416,292301,Target2.bmp,red,2,,,,8,3,48
KW_Experiment5A,45,1,"<?xml version=""1.0""?>\n<Clock xmlns:dt=""urn:schemas-microsoft-com:datatypes""><Description dt:dt=""string"">E-Prime Primary Realtime Clock</Description><StartTime><Timestamp dt:dt=""int"">0</Timestamp><DateUtc dt:dt=""string"">2018-10-25T19:41:52Z</DateUtc></StartTime><FrequencyChanges><FrequencyChange><Frequency dt:dt=""r8"">3215292</Frequency><Timestamp dt:dt=""r8"">1606224572912</Timestamp><Current dt:dt=""r8"">0</Current><DateUtc dt:dt=""string"">2018-10-25T19:41:52Z</DateUtc></FrequencyChange></FrequencyChanges></Clock>\n",KW_Experiment5A-45-1,59.946,1.0.0.105,2,-92575700,Professional,2.0.10.353,2.0.10.353,10/25/2018,10/25/2018 19:41,15:41:52,2.0.10.248,3,2,1,3,,,,,,,,TrainingProc,BlockList,1,1,Distractor2.bmp,2,0,,0,27,297640,400,,0,0,blue,400,1,400,,vertical,blue,Distractor2.bmp,yellow,Distractor1.bmp,red,Target1.bmp,cyan,Distractor2.bmp,purple,Distractor2.bmp,lime,Distractor1.bmp,,,,TrialProc,3,TrainingTrialList,1,1,-999999,0,298040,0,1,525,298565,Target1.bmp,red,1,,,,9,4,49
KW_Experiment5A,45,1,"<?xml version=""1.0""?>\n<Clock xmlns:dt=""urn:schemas-microsoft-com:datatypes""><Description dt:dt=""string"">E-Prime Primary Realtime Clock</Description><StartTime><Timestamp dt:dt=""int"">0</Timestamp><DateUtc dt:dt=""string"">2018-10-25T19:41:52Z</DateUtc></StartTime><FrequencyChanges><FrequencyChange><Frequency dt:dt=""r8"">3215292</Frequency><Timestamp dt:dt=""r8"">1606224572912</Timestamp><Current dt:dt=""r8"">0</Current><DateUtc dt:dt=""string"">2018-10-25T19:41:52Z</DateUtc></FrequencyChange></FrequencyChanges></Clock>\n",KW_Experiment5A-45-1,59.946,1.0.0.105,2,-92575700,Professional,2.0.10.353,2.0.10.353,10/25/2018,10/25/2018 19:41,15:41:52,2.0.10.248,3,2,1,3,,,,,,,,TrainingProc,BlockList,2,2,Distractor1.bmp,1,0,,0,1,299575,601,,0,0,lime,600,3,600,,horizontal,lime,Distractor2.bmp,red,Target2.bmp,blue,Distractor1.bmp,cyan,Distractor1.bmp,yellow,Distractor1.bmp,purple,Distractor2.bmp,,,,TrialProc,6,TrainingTrialList,1,2,-999999,1,300176,0,2,357,300533,Target2.bmp,red,2,,,,8,4,50
KW_Experiment5A,45,1,"<?xml version=""1.0""?>\n<Clock xmlns:dt=""urn:schemas-microsoft-com:datatypes""><Description dt:dt=""string"">E-Prime Primary Realtime Clock</Description><StartTime><Timestamp dt:dt=""int"">0</Timestamp><DateUtc dt:dt=""string"">2018-10-25T19:41:52Z</DateUtc></StartTime><FrequencyChanges><FrequencyChange><Frequency dt:dt=""r8"">3215292</Frequency><Timestamp dt:dt=""r8"">1606224572912</Timestamp><Current dt:dt=""r8"">0</Current><DateUtc dt:dt=""string"">2018-10-25T19:41:52Z</DateUtc></FrequencyChange></FrequencyChanges></Clock>\n",KW_Experiment5A-45-1,59.946,1.0.0.105,2,-92575700,Professional,2.0.10.353,2.0.10.353,10/25/2018,10/25/2018 19:41,15:41:52,2.0.10.248,3,2,1,3,,,,,,,,TrainingProc,BlockList,3,1,Distractor1.bmp,1,0,,0,0,301543,501,,0,0,blue,500,2,500,3,vertical,blue,Distractor1.bmp,cyan,Distractor2.bmp,lime,Target1.bmp,purple,Distractor1.bmp,red,Distractor2.bmp,yellow,Distractor1.bmp,,,,TrialProc,,TrainingTrialList,1,1,-999999,1,302044,0,1,537,302581,Target1.bmp,lime,1,,,,3,4,51
KW_Experiment5A,45,1,"<?xml version=""1.0""?>\n<Clock xmlns:dt=""urn:schemas-microsoft-com:datatypes""><Description dt:dt=""string"">E-Prime Primary Realtime Clock</Description><StartTime><Timestamp dt:dt=""int"">0</Timestamp><DateUtc dt:dt=""string"">2018-10-25T19:41:52Z</DateUtc></StartTime><FrequencyChanges><FrequencyChange><Frequency dt:dt=""r8"">3215292</Frequency><Timestamp dt:dt=""r8"">1606224572912</Timestamp><Current dt:dt=""r8"">0</Current><DateUtc dt:dt=""string"">2018-10-25T19:41:52Z</DateUtc></FrequencyChange></FrequencyChanges></Clock>\n",KW_Experiment5A-45-1,59.946,1.0.0.105,2,-92575700,Professional,2.0.10.353,2.0.10.353,10/25/2018,10/25/2018 19:41,15:41:52,2.0.10.248,3,2,1,3,,,,,,,,TrainingProc,BlockList,4,2,Distractor1.bmp,1,0,,0,1,303595,601,,0,0,purple,600,3,600,,horizontal,purple,Distractor2.bmp,lime,Distractor2.bmp,yellow,Distractor1.bmp,red,Target2.bmp,blue,Distractor1.bmp,cyan,Distractor1.bmp,,,,TrialProc,5,TrainingTrialList,1,2,-999999,1,304196,0,2,609,304805,Target2.bmp,red,2,,,,10,4,52
KW_Experiment5A,45,1,"<?xml version=""1.0""?>\n<Clock xmlns:dt=""urn:schemas-microsoft-com:datatypes""><Description dt:dt=""string"">E-Prime Primary Realtime Clock</Description><StartTime><Timestamp dt:dt=""int"">0</Timestamp><DateUtc dt:dt=""string"">2018-10-25T19:41:52Z</DateUtc></StartTime><FrequencyChanges><FrequencyChange><Frequency dt:dt=""r8"">3215292</Frequency><Timestamp dt:dt=""r8"">1606224572912</Timestamp><Current dt:dt=""r8"">0</Current><DateUtc dt:dt=""string"">2018-10-25T19:41:52Z</DateUtc></FrequencyChange></FrequencyChanges></Clock>\n",KW_Experiment5A-45-1,59.946,1.0.0.105,2,-92575700,Professional,2.0.10.353,2.0.10.353,10/25/2018,10/25/2018 19:41,15:41:52,2.0.10.248,3,2,1,3,,,,,,,,TrainingProc,BlockList,5,2,Distractor1.bmp,1,0,,0,1,305831,600,,0,0,yellow,600,3,600,,horizontal,yellow,Distractor1.bmp,cyan,Distractor2.bmp,blue,Distractor1.bmp,lime,Distractor2.bmp,purple,Distractor1.bmp,red,Target2.bmp,,,,TrialProc,2,TrainingTrialList,0,2,-999999,0,306431,0,1,470,306901,Target2.bmp,red,2,,,,12,4,53
KW_Experiment5A,45,1,"<?xml version=""1.0""?>\n<Clock xmlns:dt=""urn:schemas-microsoft-com:datatypes""><Description dt:dt=""string"">E-Prime Primary Realtime Clock</Description><StartTime><Timestamp dt:dt=""int"">0</Timestamp><DateUtc dt:dt=""string"">2018-10-25T19:41:52Z</DateUtc></StartTime><FrequencyChanges><FrequencyChange><Frequency dt:dt=""r8"">3215292</Frequency><Timestamp dt:dt=""r8"">1606224572912</Timestamp><Current dt:dt=""r8"">0</Current><DateUtc dt:dt=""string"">2018-10-25T19:41:52Z</DateUtc></FrequencyChange></FrequencyChanges></Clock>\n",KW_Experiment5A-45-1,59.946,1.0.0.105,2,-92575700,Professional,2.0.10.353,2.0.10.353,10/25/2018,10/25/2018 19:41,15:41:52,2.0.10.248,3,2,1,3,,,,,,,,TrainingProc,BlockList,6,2,Distractor1.bmp,1,0,,0,1,307916,500,,0,0,yellow,500,2,500,2,horizontal,yellow,Distractor1.bmp,purple,Distractor2.bmp,cyan,Distractor1.bmp,red,Distractor1.bmp,blue,Distractor1.bmp,lime,Target2.bmp,,,,TrialProc,,TrainingTrialList,0,2,-999999,0,308416,0,1,517,308933,Target2.bmp,lime,2,,,,6,4,54
KW_Experiment5A,45,1,"<?xml version=""1.0""?>\n<Clock xmlns:dt=""urn:schemas-microsoft-com:datatypes""><Description dt:dt=""string"">E-Prime Primary Realtime Clock</Description><StartTime><Timestamp dt:dt=""int"">0</Timestamp><DateUtc dt:dt=""string"">2018-10-25T19:41:52Z</DateUtc></StartTime><FrequencyChanges><FrequencyChange><Frequency dt:dt=""r8"">3215292</Frequency><Timestamp dt:dt=""r8"">1606224572912</Timestamp><Current dt:dt=""r8"">0</Current><DateUtc dt:dt=""string"">2018-10-25T19:41:52Z</DateUtc></FrequencyChange></FrequencyChanges></Clock>\n",KW_Experiment5A-45-1,59.946,1.0.0.105,2,-92575700,Professional,2.0.10.353,2.0.10.353,10/25/2018,10/25/2018 19:41,15:41:52,2.0.10.248,3,2,1,3,,,,,,,,TrainingProc,BlockList,7,2,Distractor2.bmp,2,0,,0,1,309951,501,,0,0,cyan,500,2,500,4,horizontal,cyan,Distractor2.bmp,blue,Distractor2.bmp,yellow,Distractor2.bmp,red,Distractor1.bmp,lime,Target2.bmp,purple,Distractor2.bmp,,,,TrialProc,,TrainingTrialList,1,2,-999999,1,310452,0,2,537,310989,Target2.bmp,lime,2,,,,5,4,55
KW_Experiment5A,45,1,"<?xml version=""1.0""?>\n<Clock xmlns:dt=""urn:schemas-microsoft-com:datatypes""><Description dt:dt=""string"">E-Prime Primary Realtime Clock</Description><StartTime><Timestamp dt:dt=""int"">0</Timestamp><DateUtc dt:dt=""string"">2018-10-25T19:41:52Z</DateUtc></StartTime><FrequencyChanges><FrequencyChange><Frequency dt:dt=""r8"">3215292</Frequency><Timestamp dt:dt=""r8"">1606224572912</Timestamp><Current dt:dt=""r8"">0</Current><DateUtc dt:dt=""string"">2018-10-25T19:41:52Z</DateUtc></FrequencyChange></FrequencyChanges></Clock>\n",KW_Experiment5A-45-1,59.946,1.0.0.105,2,-92575700,Professional,2.0.10.353,2.0.10.353,10/25/2018,10/25/2018 19:41,15:41:52,2.0.10.248,3,2,1,3,,,,,,,,TrainingProc,BlockList,8,1,Distractor2.bmp,2,0,,0,1,312003,500,,0,0,yellow,500,2,500,,vertical,red,Target1.bmp,lime,Distractor2.bmp,purple,Distractor1.bmp,cyan,Distractor2.bmp,blue,Distractor1.bmp,yellow,Distractor1.bmp,,,,TrialProc,2,TrainingTrialList,1,1,-999999,0,312503,0,1,622,313125,Target1.bmp,red,1,,,,7,4,56
KW_Experiment5A,45,1,"<?xml version=""1.0""?>\n<Clock xmlns:dt=""urn:schemas-microsoft-com:datatypes""><Description dt:dt=""string"">E-Prime Primary Realtime Clock</Description><StartTime><Timestamp dt:dt=""int"">0</Timestamp><DateUtc dt:dt=""string"">2018-10-25T19:41:52Z</DateUtc></StartTime><FrequencyChanges><FrequencyChange><Frequency dt:dt=""r8"">3215292</Frequency><Timestamp dt:dt=""r8"">1606224572912</Timestamp><Current dt:dt=""r8"">0</Current><DateUtc dt:dt=""string"">2018-10-25T19:41:52Z</DateUtc></FrequencyChange></FrequencyChanges></Clock>\n",KW_Experiment5A-45-1,59.946,1.0.0.105,2,-92575700,Professional,2.0.10.353,2.0.10.353,10/25/2018,10/25/2018 19:41,15:41:52,2.0.10.248,3,2,1,3,,,,,,,,TrainingProc,BlockList,9,1,Distractor1.bmp,1,0,,0,1,314138,401,,0,0,red,400,1,400,1,vertical,lime,Target1.bmp,red,Distractor1.bmp,cyan,Distractor1.bmp,purple,Distractor2.bmp,yellow,Distractor1.bmp,blue,Distractor1.bmp,,,,TrialProc,,TrainingTrialList,1,1,-999999,1,314539,0,1,506,315045,Target1.bmp,lime,1,,,,1,4,57
KW_Experiment5A,45,1,"<?xml version=""1.0""?>\n<Clock xmlns:dt=""urn:schemas-microsoft-com:datatypes""><Description dt:dt=""string"">E-Prime Primary Realtime Clock</Description><StartTime><Timestamp dt:dt=""int"">0</Timestamp><DateUtc dt:dt=""string"">2018-10-25T19:41:52Z</DateUtc></StartTime><FrequencyChanges><FrequencyChange><Frequency dt:dt=""r8"">3215292</Frequency><Timestamp dt:dt=""r8"">1606224572912</Timestamp><Current dt:dt=""r8"">0</Current><DateUtc dt:dt=""string"">2018-10-25T19:41:52Z</DateUtc></FrequencyChange></FrequencyChanges></Clock>\n",KW_Experiment5A-45-1,59.946,1.0.0.105,2,-92575700,Professional,2.0.10.353,2.0.10.353,10/25/2018,10/25/2018 19:41,15:41:52,2.0.10.248,3,2,1,3,,,,,,,,TrainingProc,BlockList,10,2,Distractor2.bmp,2,0,,0,1,316057,500,,0,0,yellow,500,2,500,2,horizontal,yellow,Distractor2.bmp,cyan,Distractor2.bmp,blue,Distractor2.bmp,lime,Target2.bmp,red,Distractor2.bmp,purple,Distractor1.bmp,,,,TrialProc,,TrainingTrialList,1,2,-999999,0,316557,0,2,640,317197,Target2.bmp,lime,2,,,,4,4,58
KW_Experiment5A,45,1,"<?xml version=""1.0""?>\n<Clock xmlns:dt=""urn:schemas-microsoft-com:datatypes""><Description dt:dt=""string"">E-Prime Primary Realtime Clock</Description><StartTime><Timestamp dt:dt=""int"">0</Timestamp><DateUtc dt:dt=""string"">2018-10-25T19:41:52Z</DateUtc></StartTime><FrequencyChanges><FrequencyChange><Frequency dt:dt=""r8"">3215292</Frequency><Timestamp dt:dt=""r8"">1606224572912</Timestamp><Current dt:dt=""r8"">0</Current><DateUtc dt:dt=""string"">2018-10-25T19:41:52Z</DateUtc></FrequencyChange></FrequencyChanges></Clock>\n",KW_Experiment5A-45-1,59.946,1.0.0.105,2,-92575700,Professional,2.0.10.353,2.0.10.353,10/25/2018,10/25/2018 19:41,15:41:52,2.0.10.248,3,2,1,3,,,,,,,,TrainingProc,BlockList,11,2,Distractor1.bmp,1,0,,0,1,318209,400,,0,0,lime,400,1,400,,horizontal,lime,Distractor1.bmp,blue,Distractor1.bmp,yellow,Distractor2.bmp,purple,Distractor2.bmp,red,Target2.bmp,cyan,Distractor1.bmp,,,,TrialProc,6,TrainingTrialList,1,2,-999999,0,318609,0,2,844,319453,Target2.bmp,red,2,,,,11,4,59
KW_Experiment5A,45,1,"<?xml version=""1.0""?>\n<Clock xmlns:dt=""urn:schemas-microsoft-com:datatypes""><Description dt:dt=""string"">E-Prime Primary Realtime Clock</Description><StartTime><Timestamp dt:dt=""int"">0</Timestamp><DateUtc dt:dt=""string"">2018-10-25T19:41:52Z</DateUtc></StartTime><FrequencyChanges><FrequencyChange><Frequency dt:dt=""r8"">3215292</Frequency><Timestamp dt:dt=""r8"">1606224572912</Timestamp><Current dt:dt=""r8"">0</Current><DateUtc dt:dt=""string"">2018-10-25T19:41:52Z</DateUtc></FrequencyChange></FrequencyChanges></Clock>\n",KW_Experiment5A-45-1,59.946,1.0.0.105,2,-92575700,Professional,2.0.10.353,2.0.10.353,10/25/2018,10/25/2018 19:41,15:41:52,2.0.10.248,3,2,1,3,,,,,,,,TrainingProc,BlockList,12,1,Distractor2.bmp,2,0,,0,1,320477,401,,0,0,cyan,400,1,400,,vertical,cyan,Distractor2.bmp,purple,Distractor2.bmp,lime,Distractor2.bmp,red,Target1.bmp,yellow,Distractor2.bmp,blue,Distractor1.bmp,,,,TrialProc,4,TrainingTrialList,1,1,-999999,1,320878,0,1,430,321308,Target1.bmp,red,1,,,,10,4,60
KW_Experiment5A,45,1,"<?xml version=""1.0""?>\n<Clock xmlns:dt=""urn:schemas-microsoft-com:datatypes""><Description dt:dt=""string"">E-Prime Primary Realtime Clock</Description><StartTime><Timestamp dt:dt=""int"">0</Timestamp><DateUtc dt:dt=""string"">2018-10-25T19:41:52Z</DateUtc></StartTime><FrequencyChanges><FrequencyChange><Frequency dt:dt=""r8"">3215292</Frequency><Timestamp dt:dt=""r8"">1606224572912</Timestamp><Current dt:dt=""r8"">0</Current><DateUtc dt:dt=""string"">2018-10-25T19:41:52Z</DateUtc></FrequencyChange></FrequencyChanges></Clock>\n",KW_Experiment5A-45-1,59.946,1.0.0.105,2,-92575700,Professional,2.0.10.353,2.0.10.353,10/25/2018,10/25/2018 19:41,15:41:52,2.0.10.248,3,2,1,3,,,,,,,,TrainingProc,BlockList,13,1,Distractor1.bmp,1,0,,0,1,322329,601,,0,0,cyan,600,3,600,,vertical,cyan,Distractor2.bmp,red,Target1.bmp,blue,Distractor1.bmp,yellow,Distractor2.bmp,purple,Distractor1.bmp,lime,Distractor1.bmp,,,,TrialProc,4,TrainingTrialList,1,1,-999999,1,322930,0,1,474,323404,Target1.bmp,red,1,,,,8,4,61
KW_Experiment5A,45,1,"<?xml version=""1.0""?>\n<Clock xmlns:dt=""urn:schemas-microsoft-com:datatypes""><Description dt:dt=""string"">E-Prime Primary Realtime Clock</Description><StartTime><Timestamp dt:dt=""int"">0</Timestamp><DateUtc dt:dt=""string"">2018-10-25T19:41:52Z</DateUtc></StartTime><FrequencyChanges><FrequencyChange><Frequency dt:dt=""r8"">3215292</Frequency><Timestamp dt:dt=""r8"">1606224572912</Timestamp><Current dt:dt=""r8"">0</Current><DateUtc dt:dt=""string"">2018-10-25T19:41:52Z</DateUtc></FrequencyChange></FrequencyChanges></Clock>\n",KW_Experiment5A-45-1,59.946,1.0.0.105,2,-92575700,Professional,2.0.10.353,2.0.10.353,10/25/2018,10/25/2018 19:41,15:41:52,2.0.10.248,3,2,1,3,,,,,,,,TrainingProc,BlockList,14,1,Distractor2.bmp,2,0,,0,1,324414,601,,0,0,purple,600,3,600,,vertical,purple,Distractor2.bmp,blue,Distractor1.bmp,cyan,Distractor1.bmp,red,Target1.bmp,lime,Distractor2.bmp,yellow,Distractor2.bmp,,,,TrialProc,5,TrainingTrialList,1,1,-999999,1,325015,0,1,421,325436,Target1.bmp,red,1,,,,10,4,62
KW_Experiment5A,45,1,"<?xml version=""1.0""?>\n<Clock xmlns:dt=""urn:schemas-microsoft-com:datatypes""><Description dt:dt=""string"">E-Prime Primary Realtime Clock</Description><StartTime><Timestamp dt:dt=""int"">0</Timestamp><DateUtc dt:dt=""string"">2018-10-25T19:41:52Z</DateUtc></StartTime><FrequencyChanges><FrequencyChange><Frequency dt:dt=""r8"">3215292</Frequency><Timestamp dt:dt=""r8"">1606224572912</Timestamp><Current dt:dt=""r8"">0</Current><DateUtc dt:dt=""string"">2018-10-25T19:41:52Z</DateUtc></FrequencyChange></FrequencyChanges></Clock>\n",KW_Experiment5A-45-1,59.946,1.0.0.105,2,-92575700,Professional,2.0.10.353,2.0.10.353,10/25/2018,10/25/2018 19:41,15:41:52,2.0.10.248,3,2,1,3,,,,,,,,TrainingProc,BlockList,15,1,Distractor1.bmp,1,0,,0,1,326466,400,,0,0,blue,400,1,400,,vertical,blue,Distractor1.bmp,purple,Distractor2.bmp,yellow,Distractor1.bmp,lime,Distractor1.bmp,cyan,Distractor1.bmp,red,Target1.bmp,,,,TrialProc,3,TrainingTrialList,1,1,-999999,0,326866,0,1,466,327332,Target1.bmp,red,1,,,,12,4,63
KW_Experiment5A,45,1,"<?xml version=""1.0""?>\n<Clock xmlns:dt=""urn:schemas-microsoft-com:datatypes""><Description dt:dt=""string"">E-Prime Primary Realtime Clock</Description><StartTime><Timestamp dt:dt=""int"">0</Timestamp><DateUtc dt:dt=""string"">2018-10-25T19:41:52Z</DateUtc></StartTime><FrequencyChanges><FrequencyChange><Frequency dt:dt=""r8"">3215292</Frequency><Timestamp dt:dt=""r8"">1606224572912</Timestamp><Current dt:dt=""r8"">0</Current><DateUtc dt:dt=""string"">2018-10-25T19:41:52Z</DateUtc></FrequencyChange></FrequencyChanges></Clock>\n",KW_Experiment5A-45-1,59.946,1.0.0.105,2,-92575700,Professional,2.0.10.353,2.0.10.353,10/25/2018,10/25/2018 19:41,15:41:52,2.0.10.248,3,2,1,3,,,,,,,,TrainingProc,BlockList,16,2,Distractor2.bmp,2,0,,0,1,328351,400,,0,0,lime,400,1,400,,horizontal,lime,Distractor1.bmp,blue,Distractor2.bmp,cyan,Distractor2.bmp,purple,Distractor2.bmp,red,Target2.bmp,yellow,Distractor2.bmp,,,,TrialProc,6,TrainingTrialList,1,2,-999999,0,328751,0,2,445,329196,Target2.bmp,red,2,,,,11,4,64
KW_Experiment5A,45,1,"<?xml version=""1.0""?>\n<Clock xmlns:dt=""urn:schemas-microsoft-com:datatypes""><Description dt:dt=""string"">E-Prime Primary Realtime Clock</Description><StartTime><Timestamp dt:dt=""int"">0</Timestamp><DateUtc dt:dt=""string"">2018-10-25T19:41:52Z</DateUtc></StartTime><FrequencyChanges><FrequencyChange><Frequency dt:dt=""r8"">3215292</Frequency><Timestamp dt:dt=""r8"">1606224572912</Timestamp><Current dt:dt=""r8"">0</Current><DateUtc dt:dt=""string"">2018-10-25T19:41:52Z</DateUtc></FrequencyChange></FrequencyChanges></Clock>\n",KW_Experiment5A-45-1,59.946,1.0.0.105,2,-92575700,Professional,2.0.10.353,2.0.10.353,10/25/2018,10/25/2018 19:41,15:41:52,2.0.10.248,3,2,1,3,,,,,,,,TrainingProc,BlockList,17,1,Distractor2.bmp,2,0,,1,0,330219,401,,0,0,red,400,1,400,1,vertical,red,Distractor1.bmp,lime,Target1.bmp,yellow,Distractor2.bmp,purple,Distractor1.bmp,blue,Distractor1.bmp,cyan,Distractor2.bmp,,,,TrialProc,,TrainingTrialList,1,1,-999999,1,330620,0,1,728,331348,Target1.bmp,lime,1,,,,2,4,65
KW_Experiment5A,45,1,"<?xml version=""1.0""?>\n<Clock xmlns:dt=""urn:schemas-microsoft-com:datatypes""><Description dt:dt=""string"">E-Prime Primary Realtime Clock</Description><StartTime><Timestamp dt:dt=""int"">0</Timestamp><DateUtc dt:dt=""string"">2018-10-25T19:41:52Z</DateUtc></StartTime><FrequencyChanges><FrequencyChange><Frequency dt:dt=""r8"">3215292</Frequency><Timestamp dt:dt=""r8"">1606224572912</Timestamp><Current dt:dt=""r8"">0</Current><DateUtc dt:dt=""string"">2018-10-25T19:41:52Z</DateUtc></FrequencyChange></FrequencyChanges></Clock>\n",KW_Experiment5A-45-1,59.946,1.0.0.105,2,-92575700,Professional,2.0.10.353,2.0.10.353,10/25/2018,10/25/2018 19:41,15:41:52,2.0.10.248,3,2,1,3,,,,,,,,TrainingProc,BlockList,18,1,Distractor1.bmp,1,0,,1,1,332371,501,,0,0,lime,500,2,500,,vertical,lime,Distractor2.bmp,red,Target1.bmp,cyan,Distractor1.bmp,purple,Distractor2.bmp,blue,Distractor2.bmp,yellow,Distractor2.bmp,,,,TrialProc,6,TrainingTrialList,1,1,-999999,1,332872,0,1,468,333340,Target1.bmp,red,1,,,,8,4,66
KW_Experiment5A,45,1,"<?xml version=""1.0""?>\n<Clock xmlns:dt=""urn:schemas-microsoft-com:datatypes""><Description dt:dt=""string"">E-Prime Primary Realtime Clock</Description><StartTime><Timestamp dt:dt=""int"">0</Timestamp><DateUtc dt:dt=""string"">2018-10-25T19:41:52Z</DateUtc></StartTime><FrequencyChanges><FrequencyChange><Frequency dt:dt=""r8"">3215292</Frequency><Timestamp dt:dt=""r8"">1606224572912</Timestamp><Current dt:dt=""r8"">0</Current><DateUtc dt:dt=""string"">2018-10-25T19:41:52Z</DateUtc></FrequencyChange></FrequencyChanges></Clock>\n",KW_Experiment5A-45-1,59.946,1.0.0.105,2,-92575700,Professional,2.0.10.353,2.0.10.353,10/25/2018,10/25/2018 19:41,15:41:52,2.0.10.248,3,2,1,3,,,,,,,,TrainingProc,BlockList,19,1,Distractor2.bmp,2,0,,0,1,334357,600,,0,0,lime,600,3,600,,vertical,lime,Distractor2.bmp,yellow,Distractor1.bmp,purple,Distractor1.bmp,cyan,Distractor1.bmp,blue,Distractor2.bmp,red,Target1.bmp,,,,TrialProc,6,TrainingTrialList,1,1,-999999,0,334957,0,1,543,335500,Target1.bmp,red,1,,,,12,4,67
KW_Experiment5A,45,1,"<?xml version=""1.0""?>\n<Clock xmlns:dt=""urn:schemas-microsoft-com:datatypes""><Description dt:dt=""string"">E-Prime Primary Realtime Clock</Description><StartTime><Timestamp dt:dt=""int"">0</Timestamp><DateUtc dt:dt=""string"">2018-10-25T19:41:52Z</DateUtc></StartTime><FrequencyChanges><FrequencyChange><Frequency dt:dt=""r8"">3215292</Frequency><Timestamp dt:dt=""r8"">1606224572912</Timestamp><Current dt:dt=""r8"">0</Current><DateUtc dt:dt=""string"">2018-10-25T19:41:52Z</DateUtc></FrequencyChange></FrequencyChanges></Clock>\n",KW_Experiment5A-45-1,59.946,1.0.0.105,2,-92575700,Professional,2.0.10.353,2.0.10.353,10/25/2018,10/25/2018 19:41,15:41:52,2.0.10.248,3,2,1,3,,,,,,,,TrainingProc,BlockList,20,2,Distractor1.bmp,1,0,,0,1,336525,501,,0,0,lime,500,2,500,,horizontal,lime,Distractor2.bmp,blue,Distractor1.bmp,purple,Distractor2.bmp,cyan,Distractor1.bmp,red,Target2.bmp,yellow,Distractor1.bmp,,,,TrialProc,6,TrainingTrialList,0,2,-999999,1,337026,0,1,442,337468,Target2.bmp,red,2,,,,11,4,68
KW_Experiment5A,45,1,"<?xml version=""1.0""?>\n<Clock xmlns:dt=""urn:schemas-microsoft-com:datatypes""><Description dt:dt=""string"">E-Prime Primary Realtime Clock</Description><StartTime><Timestamp dt:dt=""int"">0</Timestamp><DateUtc dt:dt=""string"">2018-10-25T19:41:52Z</DateUtc></StartTime><FrequencyChanges><FrequencyChange><Frequency dt:dt=""r8"">3215292</Frequency><Timestamp dt:dt=""r8"">1606224572912</Timestamp><Current dt:dt=""r8"">0</Current><DateUtc dt:dt=""string"">2018-10-25T19:41:52Z</DateUtc></FrequencyChange></FrequencyChanges></Clock>\n",KW_Experiment5A-45-1,59.946,1.0.0.105,2,-92575700,Professional,2.0.10.353,2.0.10.353,10/25/2018,10/25/2018 19:41,15:41:52,2.0.10.248,3,2,1,3,,,,,,,,TrainingProc,BlockList,21,2,Distractor2.bmp,2,0,,0,1,338494,500,,0,0,cyan,500,2,500,,horizontal,cyan,Distractor2.bmp,blue,Distractor1.bmp,red,Target2.bmp,lime,Distractor2.bmp,yellow,Distractor2.bmp,purple,Distractor1.bmp,,,,TrialProc,4,TrainingTrialList,1,2,-999999,0,338994,0,2,498,339492,Target2.bmp,red,2,,,,9,4,69
KW_Experiment5A,45,1,"<?xml version=""1.0""?>\n<Clock xmlns:dt=""urn:schemas-microsoft-com:datatypes""><Description dt:dt=""string"">E-Prime Primary Realtime Clock</Description><StartTime><Timestamp dt:dt=""int"">0</Timestamp><DateUtc dt:dt=""string"">2018-10-25T19:41:52Z</DateUtc></StartTime><FrequencyChanges><FrequencyChange><Frequency dt:dt=""r8"">3215292</Frequency><Timestamp dt:dt=""r8"">1606224572912</Timestamp><Current dt:dt=""r8"">0</Current><DateUtc dt:dt=""string"">2018-10-25T19:41:52Z</DateUtc></FrequencyChange></FrequencyChanges></Clock>\n",KW_Experiment5A-45-1,59.946,1.0.0.105,2,-92575700,Professional,2.0.10.353,2.0.10.353,10/25/2018,10/25/2018 19:41,15:41:52,2.0.10.248,3,2,1,3,,,,,,,,TrainingProc,BlockList,22,1,Distractor1.bmp,1,0,,0,1,340512,401,,0,0,blue,400,1,400,,vertical,blue,Distractor2.bmp,purple,Distractor2.bmp,red,Target1.bmp,yellow,Distractor1.bmp,lime,Distractor1.bmp,cyan,Distractor2.bmp,,,,TrialProc,3,TrainingTrialList,1,1,-999999,1,340913,0,1,443,341356,Target1.bmp,red,1,,,,9,4,70
KW_Experiment5A,45,1,"<?xml version=""1.0""?>\n<Clock xmlns:dt=""urn:schemas-microsoft-com:datatypes""><Description dt:dt=""string"">E-Prime Primary Realtime Clock</Description><StartTime><Timestamp dt:dt=""int"">0</Timestamp><DateUtc dt:dt=""string"">2018-10-25T19:41:52Z</DateUtc></StartTime><FrequencyChanges><FrequencyChange><Frequency dt:dt=""r8"">3215292</Frequency><Timestamp dt:dt=""r8"">1606224572912</Timestamp><Current dt:dt=""r8"">0</Current><DateUtc dt:dt=""string"">2018-10-25T19:41:52Z</DateUtc></FrequencyChange></FrequencyChanges></Clock>\n",KW_Experiment5A-45-1,59.946,1.0.0.105,2,-92575700,Professional,2.0.10.353,2.0.10.353,10/25/2018,10/25/2018 19:41,15:41:52,2.0.10.248,3,2,1,3,,,,,,,,TrainingProc,BlockList,23,2,Distractor1.bmp,1,0,,0,1,342381,500,,0,0,yellow,500,2,500,,horizontal,red,Target2.bmp,blue,Distractor1.bmp,purple,Distractor1.bmp,lime,Distractor2.bmp,cyan,Distractor1.bmp,yellow,Distractor2.bmp,,,,TrialProc,2,TrainingTrialList,1,2,-999999,0,342881,0,2,427,343308,Target2.bmp,red,2,,,,7,4,71
KW_Experiment5A,45,1,"<?xml version=""1.0""?>\n<Clock xmlns:dt=""urn:schemas-microsoft-com:datatypes""><Description dt:dt=""string"">E-Prime Primary Realtime Clock</Description><StartTime><Timestamp dt:dt=""int"">0</Timestamp><DateUtc dt:dt=""string"">2018-10-25T19:41:52Z</DateUtc></StartTime><FrequencyChanges><FrequencyChange><Frequency dt:dt=""r8"">3215292</Frequency><Timestamp dt:dt=""r8"">1606224572912</Timestamp><Current dt:dt=""r8"">0</Current><DateUtc dt:dt=""string"">2018-10-25T19:41:52Z</DateUtc></FrequencyChange></FrequencyChanges></Clock>\n",KW_Experiment5A-45-1,59.946,1.0.0.105,2,-92575700,Professional,2.0.10.353,2.0.10.353,10/25/2018,10/25/2018 19:41,15:41:52,2.0.10.248,3,2,1,3,,,,,,,,TrainingProc,BlockList,24,1,Distractor1.bmp,1,0,,0,1,344332,501,,0,0,purple,500,2,500,,vertical,red,Target1.bmp,cyan,Distractor1.bmp,lime,Distractor1.bmp,blue,Distractor1.bmp,yellow,Distractor2.bmp,purple,Distractor2.bmp,,,,TrialProc,5,TrainingTrialList,1,1,-999999,1,344833,0,1,515,345348,Target1.bmp,red,1,,,,7,4,72
KW_Experiment5A,45,1,"<?xml version=""1.0""?>\n<Clock xmlns:dt=""urn:schemas-microsoft-com:datatypes""><Description dt:dt=""string"">E-Prime Primary Realtime Clock</Description><StartTime><Timestamp dt:dt=""int"">0</Timestamp><DateUtc dt:dt=""string"">2018-10-25T19:41:52Z</DateUtc></StartTime><FrequencyChanges><FrequencyChange><Frequency dt:dt=""r8"">3215292</Frequency><Timestamp dt:dt=""r8"">1606224572912</Timestamp><Current dt:dt=""r8"">0</Current><DateUtc dt:dt=""string"">2018-10-25T19:41:52Z</DateUtc></FrequencyChange></FrequencyChanges></Clock>\n",KW_Experiment5A-45-1,59.946,1.0.0.105,2,-92575700,Professional,2.0.10.353,2.0.10.353,10/25/2018,10/25/2018 19:41,15:41:52,2.0.10.248,3,2,1,3,,,,,,,,TrainingProc,BlockList,25,1,Distractor2.bmp,2,0,,1,0,346367,601,,0,0,yellow,600,3,600,,vertical,yellow,Distractor1.bmp,cyan,Distractor1.bmp,lime,Distractor2.bmp,purple,Distractor1.bmp,red,Target1.bmp,blue,Distractor2.bmp,,,,TrialProc,2,TrainingTrialList,1,1,-999999,1,346968,0,1,460,347428,Target1.bmp,red,1,,,,11,5,73
KW_Experiment5A,45,1,"<?xml version=""1.0""?>\n<Clock xmlns:dt=""urn:schemas-microsoft-com:datatypes""><Description dt:dt=""string"">E-Prime Primary Realtime Clock</Description><StartTime><Timestamp dt:dt=""int"">0</Timestamp><DateUtc dt:dt=""string"">2018-10-25T19:41:52Z</DateUtc></StartTime><FrequencyChanges><FrequencyChange><Frequency dt:dt=""r8"">3215292</Frequency><Timestamp dt:dt=""r8"">1606224572912</Timestamp><Current dt:dt=""r8"">0</Current><DateUtc dt:dt=""string"">2018-10-25T19:41:52Z</DateUtc></FrequencyChange></FrequencyChanges></Clock>\n",KW_Experiment5A-45-1,59.946,1.0.0.105,2,-92575700,Professional,2.0.10.353,2.0.10.353,10/25/2018,10/25/2018 19:41,15:41:52,2.0.10.248,3,2,1,3,,,,,,,,TrainingProc,BlockList,26,2,Distractor2.bmp,2,0,,0,1,348453,600,,0,0,cyan,600,3,600,,horizontal,cyan,Distractor2.bmp,yellow,Distractor1.bmp,blue,Distractor2.bmp,purple,Distractor1.bmp,lime,Distractor1.bmp,red,Target2.bmp,,,,TrialProc,4,TrainingTrialList,1,2,-999999,0,349053,0,2,575,349628,Target2.bmp,red,2,,,,12,5,74
KW_Experiment5A,45,1,"<?xml version=""1.0""?>\n<Clock xmlns:dt=""urn:schemas-microsoft-com:datatypes""><Description dt:dt=""string"">E-Prime Primary Realtime Clock</Description><StartTime><Timestamp dt:dt=""int"">0</Timestamp><DateUtc dt:dt=""string"">2018-10-25T19:41:52Z</DateUtc></StartTime><FrequencyChanges><FrequencyChange><Frequency dt:dt=""r8"">3215292</Frequency><Timestamp dt:dt=""r8"">1606224572912</Timestamp><Current dt:dt=""r8"">0</Current><DateUtc dt:dt=""string"">2018-10-25T19:41:52Z</DateUtc></FrequencyChange></FrequencyChanges></Clock>\n",KW_Experiment5A-45-1,59.946,1.0.0.105,2,-92575700,Professional,2.0.10.353,2.0.10.353,10/25/2018,10/25/2018 19:41,15:41:52,2.0.10.248,3,2,1,3,,,,,,,,TrainingProc,BlockList,27,2,Distractor1.bmp,1,0,,0,1,350638,400,,0,0,lime,400,1,400,,horizontal,lime,Distractor1.bmp,yellow,Distractor2.bmp,cyan,Distractor1.bmp,red,Target2.bmp,blue,Distractor1.bmp,purple,Distractor2.bmp,,,,TrialProc,6,TrainingTrialList,1,2,-999999,0,351038,0,2,686,351724,Target2.bmp,red,2,,,,10,5,75
KW_Experiment5A,45,1,"<?xml version=""1.0""?>\n<Clock xmlns:dt=""urn:schemas-microsoft-com:datatypes""><Description dt:dt=""string"">E-Prime Primary Realtime Clock</Description><StartTime><Timestamp dt:dt=""int"">0</Timestamp><DateUtc dt:dt=""string"">2018-10-25T19:41:52Z</DateUtc></StartTime><FrequencyChanges><FrequencyChange><Frequency dt:dt=""r8"">3215292</Frequency><Timestamp dt:dt=""r8"">1606224572912</Timestamp><Current dt:dt=""r8"">0</Current><DateUtc dt:dt=""string"">2018-10-25T19:41:52Z</DateUtc></FrequencyChange></FrequencyChanges></Clock>\n",KW_Experiment5A-45-1,59.946,1.0.0.105,2,-92575700,Professional,2.0.10.353,2.0.10.353,10/25/2018,10/25/2018 19:41,15:41:52,2.0.10.248,3,2,1,3,,,,,,,,TrainingProc,BlockList,28,2,Distractor1.bmp,1,0,,0,1,352740,500,,0,0,purple,500,2,500,,horizontal,purple,Distractor1.bmp,lime,Distractor1.bmp,red,Target2.bmp,yellow,Distractor1.bmp,cyan,Distractor1.bmp,blue,Distractor2.bmp,,,,TrialProc,5,TrainingTrialList,1,2,-999999,0,353240,0,2,412,353652,Target2.bmp,red,2,,,,9,5,76
KW_Experiment5A,45,1,"<?xml version=""1.0""?>\n<Clock xmlns:dt=""urn:schemas-microsoft-com:datatypes""><Description dt:dt=""string"">E-Prime Primary Realtime Clock</Description><StartTime><Timestamp dt:dt=""int"">0</Timestamp><DateUtc dt:dt=""string"">2018-10-25T19:41:52Z</DateUtc></StartTime><FrequencyChanges><FrequencyChange><Frequency dt:dt=""r8"">3215292</Frequency><Timestamp dt:dt=""r8"">1606224572912</Timestamp><Current dt:dt=""r8"">0</Current><DateUtc dt:dt=""string"">2018-10-25T19:41:52Z</DateUtc></FrequencyChange></FrequencyChanges></Clock>\n",KW_Experiment5A-45-1,59.946,1.0.0.105,2,-92575700,Professional,2.0.10.353,2.0.10.353,10/25/2018,10/25/2018 19:41,15:41:52,2.0.10.248,3,2,1,3,,,,,,,,TrainingProc,BlockList,29,2,Distractor2.bmp,2,0,,0,1,354675,500,,0,0,yellow,500,2,500,,horizontal,yellow,Distractor2.bmp,purple,Distractor2.bmp,cyan,Distractor1.bmp,red,Target2.bmp,blue,Distractor2.bmp,lime,Distractor1.bmp,,,,TrialProc,2,TrainingTrialList,1,2,-999999,0,355175,0,2,493,355668,Target2.bmp,red,2,,,,10,5,77
KW_Experiment5A,45,1,"<?xml version=""1.0""?>\n<Clock xmlns:dt=""urn:schemas-microsoft-com:datatypes""><Description dt:dt=""string"">E-Prime Primary Realtime Clock</Description><StartTime><Timestamp dt:dt=""int"">0</Timestamp><DateUtc dt:dt=""string"">2018-10-25T19:41:52Z</DateUtc></StartTime><FrequencyChanges><FrequencyChange><Frequency dt:dt=""r8"">3215292</Frequency><Timestamp dt:dt=""r8"">1606224572912</Timestamp><Current dt:dt=""r8"">0</Current><DateUtc dt:dt=""string"">2018-10-25T19:41:52Z</DateUtc></FrequencyChange></FrequencyChanges></Clock>\n",KW_Experiment5A-45-1,59.946,1.0.0.105,2,-92575700,Professional,2.0.10.353,2.0.10.353,10/25/2018,10/25/2018 19:41,15:41:52,2.0.10.248,3,2,1,3,,,,,,,,TrainingProc,BlockList,30,2,Distractor2.bmp,2,0,,0,1,356677,600,,0,0,yellow,600,3,600,,horizontal,yellow,Distractor2.bmp,red,Target2.bmp,purple,Distractor2.bmp,blue,Distractor2.bmp,lime,Distractor1.bmp,cyan,Distractor1.bmp,,,,TrialProc,2,TrainingTrialList,1,2,-999999,0,357277,0,2,447,357724,Target2.bmp,red,2,,,,8,5,78
KW_Experiment5A,45,1,"<?xml version=""1.0""?>\n<Clock xmlns:dt=""urn:schemas-microsoft-com:datatypes""><Description dt:dt=""string"">E-Prime Primary Realtime Clock</Description><StartTime><Timestamp dt:dt=""int"">0</Timestamp><DateUtc dt:dt=""string"">2018-10-25T19:41:52Z</DateUtc></StartTime><FrequencyChanges><FrequencyChange><Frequency dt:dt=""r8"">3215292</Frequency><Timestamp dt:dt=""r8"">1606224572912</Timestamp><Current dt:dt=""r8"">0</Current><DateUtc dt:dt=""string"">2018-10-25T19:41:52Z</DateUtc></FrequencyChange></FrequencyChanges></Clock>\n",KW_Experiment5A-45-1,59.946,1.0.0.105,2,-92575700,Professional,2.0.10.353,2.0.10.353,10/25/2018,10/25/2018 19:41,15:41:52,2.0.10.248,3,2,1,3,,,,,,,,TrainingProc,BlockList,31,2,Distractor1.bmp,1,0,,0,1,358745,601,,0,0,purple,600,3,600,,horizontal,purple,Distractor1.bmp,yellow,Distractor2.bmp,blue,Distractor1.bmp,cyan,Distractor1.bmp,lime,Distractor1.bmp,red,Target2.bmp,,,,TrialProc,5,TrainingTrialList,0,2,-999999,1,359346,0,1,442,359788,Target2.bmp,red,2,,,,12,5,79
KW_Experiment5A,45,1,"<?xml version=""1.0""?>\n<Clock xmlns:dt=""urn:schemas-microsoft-com:datatypes""><Description dt:dt=""string"">E-Prime Primary Realtime Clock</Description><StartTime><Timestamp dt:dt=""int"">0</Timestamp><DateUtc dt:dt=""string"">2018-10-25T19:41:52Z</DateUtc></StartTime><FrequencyChanges><FrequencyChange><Frequency dt:dt=""r8"">3215292</Frequency><Timestamp dt:dt=""r8"">1606224572912</Timestamp><Current dt:dt=""r8"">0</Current><DateUtc dt:dt=""string"">2018-10-25T19:41:52Z</DateUtc></FrequencyChange></FrequencyChanges></Clock>\n",KW_Experiment5A-45-1,59.946,1.0.0.105,2,-92575700,Professional,2.0.10.353,2.0.10.353,10/25/2018,10/25/2018 19:41,15:41:52,2.0.10.248,3,2,1,3,,,,,,,,TrainingProc,BlockList,32,2,Distractor1.bmp,1,0,,0,1,360814,500,,0,0,purple,500,2,500,5,horizontal,purple,Distractor2.bmp,lime,Target2.bmp,red,Distractor1.bmp,yellow,Distractor2.bmp,cyan,Distractor2.bmp,blue,Distractor1.bmp,,,,TrialProc,,TrainingTrialList,1,2,-999999,0,361314,0,2,497,361811,Target2.bmp,lime,2,,,,2,5,80
KW_Experiment5A,45,1,"<?xml version=""1.0""?>\n<Clock xmlns:dt=""urn:schemas-microsoft-com:datatypes""><Description dt:dt=""string"">E-Prime Primary Realtime Clock</Description><StartTime><Timestamp dt:dt=""int"">0</Timestamp><DateUtc dt:dt=""string"">2018-10-25T19:41:52Z</DateUtc></StartTime><FrequencyChanges><FrequencyChange><Frequency dt:dt=""r8"">3215292</Frequency><Timestamp dt:dt=""r8"">1606224572912</Timestamp><Current dt:dt=""r8"">0</Current><DateUtc dt:dt=""string"">2018-10-25T19:41:52Z</DateUtc></FrequencyChange></FrequencyChanges></Clock>\n",KW_Experiment5A-45-1,59.946,1.0.0.105,2,-92575700,Professional,2.0.10.353,2.0.10.353,10/25/2018,10/25/2018 19:41,15:41:52,2.0.10.248,3,2,1,3,,,,,,,,TrainingProc,BlockList,33,2,Distractor2.bmp,2,0,,0,1,362832,501,,0,0,lime,500,2,500,,horizontal,lime,Distractor2.bmp,blue,Distractor2.bmp,purple,Distractor2.bmp,cyan,Distractor2.bmp,yellow,Distractor2.bmp,red,Target2.bmp,,,,TrialProc,6,TrainingTrialList,1,2,-999999,1,363333,0,2,598,363931,Target2.bmp,red,2,,,,12,5,81
KW_Experiment5A,45,1,"<?xml version=""1.0""?>\n<Clock xmlns:dt=""urn:schemas-microsoft-com:datatypes""><Description dt:dt=""string"">E-Prime Primary Realtime Clock</Description><StartTime><Timestamp dt:dt=""int"">0</Timestamp><DateUtc dt:dt=""string"">2018-10-25T19:41:52Z</DateUtc></StartTime><FrequencyChanges><FrequencyChange><Frequency dt:dt=""r8"">3215292</Frequency><Timestamp dt:dt=""r8"">1606224572912</Timestamp><Current dt:dt=""r8"">0</Current><DateUtc dt:dt=""string"">2018-10-25T19:41:52Z</DateUtc></FrequencyChange></FrequencyChanges></Clock>\n",KW_Experiment5A-45-1,59.946,1.0.0.105,2,-92575700,Professional,2.0.10.353,2.0.10.353,10/25/2018,10/25/2018 19:41,15:41:52,2.0.10.248,3,2,1,3,,,,,,,,TrainingProc,BlockList,34,1,Distractor1.bmp,1,0,,0,1,364951,500,,0,0,yellow,500,2,500,2,vertical,yellow,Distractor2.bmp,cyan,Distractor1.bmp,lime,Target1.bmp,red,Distractor1.bmp,blue,Distractor1.bmp,purple,Distractor2.bmp,,,,TrialProc,,TrainingTrialList,1,1,-999999,0,365451,0,1,1304,366755,Target1.bmp,lime,1,,,,3,5,82
KW_Experiment5A,45,1,"<?xml version=""1.0""?>\n<Clock xmlns:dt=""urn:schemas-microsoft-com:datatypes""><Description dt:dt=""string"">E-Prime Primary Realtime Clock</Description><StartTime><Timestamp dt:dt=""int"">0</Timestamp><DateUtc dt:dt=""string"">2018-10-25T19:41:52Z</DateUtc></StartTime><FrequencyChanges><FrequencyChange><Frequency dt:dt=""r8"">3215292</Frequency><Timestamp dt:dt=""r8"">1606224572912</Timestamp><Current dt:dt=""r8"">0</Current><DateUtc dt:dt=""string"">2018-10-25T19:41:52Z</DateUtc></FrequencyChange></FrequencyChanges></Clock>\n",KW_Experiment5A-45-1,59.946,1.0.0.105,2,-92575700,Professional,2.0.10.353,2.0.10.353,10/25/2018,10/25/2018 19:41,15:41:52,2.0.10.248,3,2,1,3,,,,,,,,TrainingProc,BlockList,35,1,Distractor1.bmp,1,0,,0,1,367770,401,,0,0,purple,400,1,400,,vertical,red,Target1.bmp,cyan,Distractor1.bmp,blue,Distractor2.bmp,yellow,Distractor1.bmp,lime,Distractor1.bmp,purple,Distractor2.bmp,,,,TrialProc,5,TrainingTrialList,1,1,-999999,1,368171,0,1,624,368795,Target1.bmp,red,1,,,,7,5,83
KW_Experiment5A,45,1,"<?xml version=""1.0""?>\n<Clock xmlns:dt=""urn:schemas-microsoft-com:datatypes""><Description dt:dt=""string"">E-Prime Primary Realtime Clock</Description><StartTime><Timestamp dt:dt=""int"">0</Timestamp><DateUtc dt:dt=""string"">2018-10-25T19:41:52Z</DateUtc></StartTime><FrequencyChanges><FrequencyChange><Frequency dt:dt=""r8"">3215292</Frequency><Timestamp dt:dt=""r8"">1606224572912</Timestamp><Current dt:dt=""r8"">0</Current><DateUtc dt:dt=""string"">2018-10-25T19:41:52Z</DateUtc></FrequencyChange></FrequencyChanges></Clock>\n",KW_Experiment5A-45-1,59.946,1.0.0.105,2,-92575700,Professional,2.0.10.353,2.0.10.353,10/25/2018,10/25/2018 19:41,15:41:52,2.0.10.248,3,2,1,3,,,,,,,,TrainingProc,BlockList,36,1,Distractor2.bmp,2,0,,0,1,369805,401,,0,0,lime,400,1,400,,vertical,red,Target1.bmp,yellow,Distractor2.bmp,blue,Distractor1.bmp,purple,Distractor1.bmp,cyan,Distractor1.bmp,lime,Distractor1.bmp,,,,TrialProc,6,TrainingTrialList,1,1,-999999,1,370206,0,1,501,370707,Target1.bmp,red,1,,,,7,5,84
KW_Experiment5A,45,1,"<?xml version=""1.0""?>\n<Clock xmlns:dt=""urn:schemas-microsoft-com:datatypes""><Description dt:dt=""string"">E-Prime Primary Realtime Clock</Description><StartTime><Timestamp dt:dt=""int"">0</Timestamp><DateUtc dt:dt=""string"">2018-10-25T19:41:52Z</DateUtc></StartTime><FrequencyChanges><FrequencyChange><Frequency dt:dt=""r8"">3215292</Frequency><Timestamp dt:dt=""r8"">1606224572912</Timestamp><Current dt:dt=""r8"">0</Current><DateUtc dt:dt=""string"">2018-10-25T19:41:52Z</DateUtc></FrequencyChange></FrequencyChanges></Clock>\n",KW_Experiment5A-45-1,59.946,1.0.0.105,2,-92575700,Professional,2.0.10.353,2.0.10.353,10/25/2018,10/25/2018 19:41,15:41:52,2.0.10.248,3,2,1,3,,,,,,,,TrainingProc,BlockList,37,2,Distractor1.bmp,1,0,,0,1,371724,500,,0,0,blue,500,2,500,,horizontal,blue,Distractor2.bmp,yellow,Distractor1.bmp,cyan,Distractor1.bmp,purple,Distractor2.bmp,red,Target2.bmp,lime,Distractor1.bmp,,,,TrialProc,3,TrainingTrialList,1,2,-999999,0,372224,0,2,627,372851,Target2.bmp,red,2,,,,11,5,85
KW_Experiment5A,45,1,"<?xml version=""1.0""?>\n<Clock xmlns:dt=""urn:schemas-microsoft-com:datatypes""><Description dt:dt=""string"">E-Prime Primary Realtime Clock</Description><StartTime><Timestamp dt:dt=""int"">0</Timestamp><DateUtc dt:dt=""string"">2018-10-25T19:41:52Z</DateUtc></StartTime><FrequencyChanges><FrequencyChange><Frequency dt:dt=""r8"">3215292</Frequency><Timestamp dt:dt=""r8"">1606224572912</Timestamp><Current dt:dt=""r8"">0</Current><DateUtc dt:dt=""string"">2018-10-25T19:41:52Z</DateUtc></FrequencyChange></FrequencyChanges></Clock>\n",KW_Experiment5A-45-1,59.946,1.0.0.105,2,-92575700,Professional,2.0.10.353,2.0.10.353,10/25/2018,10/25/2018 19:41,15:41:52,2.0.10.248,3,2,1,3,,,,,,,,TrainingProc,BlockList,38,1,Distractor2.bmp,2,0,,0,1,373876,500,,0,0,lime,500,2,500,,vertical,lime,Distractor1.bmp,red,Target1.bmp,yellow,Distractor2.bmp,cyan,Distractor2.bmp,blue,Distractor1.bmp,purple,Distractor1.bmp,,,,TrialProc,6,TrainingTrialList,0,1,-999999,0,374376,0,2,371,374747,Target1.bmp,red,1,,,,8,5,86
KW_Experiment5A,45,1,"<?xml version=""1.0""?>\n<Clock xmlns:dt=""urn:schemas-microsoft-com:datatypes""><Description dt:dt=""string"">E-Prime Primary Realtime Clock</Description><StartTime><Timestamp dt:dt=""int"">0</Timestamp><DateUtc dt:dt=""string"">2018-10-25T19:41:52Z</DateUtc></StartTime><FrequencyChanges><FrequencyChange><Frequency dt:dt=""r8"">3215292</Frequency><Timestamp dt:dt=""r8"">1606224572912</Timestamp><Current dt:dt=""r8"">0</Current><DateUtc dt:dt=""string"">2018-10-25T19:41:52Z</DateUtc></FrequencyChange></FrequencyChanges></Clock>\n",KW_Experiment5A-45-1,59.946,1.0.0.105,2,-92575700,Professional,2.0.10.353,2.0.10.353,10/25/2018,10/25/2018 19:41,15:41:52,2.0.10.248,3,2,1,3,,,,,,,,TrainingProc,BlockList,39,2,Distractor1.bmp,1,0,,0,1,375761,500,,0,0,purple,500,2,500,,horizontal,purple,Distractor1.bmp,yellow,Distractor2.bmp,cyan,Distractor1.bmp,red,Target2.bmp,lime,Distractor1.bmp,blue,Distractor2.bmp,,,,TrialProc,5,TrainingTrialList,1,2,-999999,0,376261,0,2,558,376819,Target2.bmp,red,2,,,,10,5,87
KW_Experiment5A,45,1,"<?xml version=""1.0""?>\n<Clock xmlns:dt=""urn:schemas-microsoft-com:datatypes""><Description dt:dt=""string"">E-Prime Primary Realtime Clock</Description><StartTime><Timestamp dt:dt=""int"">0</Timestamp><DateUtc dt:dt=""string"">2018-10-25T19:41:52Z</DateUtc></StartTime><FrequencyChanges><FrequencyChange><Frequency dt:dt=""r8"">3215292</Frequency><Timestamp dt:dt=""r8"">1606224572912</Timestamp><Current dt:dt=""r8"">0</Current><DateUtc dt:dt=""string"">2018-10-25T19:41:52Z</DateUtc></FrequencyChange></FrequencyChanges></Clock>\n",KW_Experiment5A-45-1,59.946,1.0.0.105,2,-92575700,Professional,2.0.10.353,2.0.10.353,10/25/2018,10/25/2018 19:41,15:41:52,2.0.10.248,3,2,1,3,,,,,,,,TrainingProc,BlockList,40,2,Distractor2.bmp,2,0,,0,1,377829,401,,0,0,blue,400,1,400,,horizontal,blue,Distractor2.bmp,red,Target2.bmp,cyan,Distractor2.bmp,yellow,Distractor1.bmp,lime,Distractor1.bmp,purple,Distractor1.bmp,,,,TrialProc,3,TrainingTrialList,1,2,-999999,1,378230,0,2,445,378675,Target2.bmp,red,2,,,,8,5,88
KW_Experiment5A,45,1,"<?xml version=""1.0""?>\n<Clock xmlns:dt=""urn:schemas-microsoft-com:datatypes""><Description dt:dt=""string"">E-Prime Primary Realtime Clock</Description><StartTime><Timestamp dt:dt=""int"">0</Timestamp><DateUtc dt:dt=""string"">2018-10-25T19:41:52Z</DateUtc></StartTime><FrequencyChanges><FrequencyChange><Frequency dt:dt=""r8"">3215292</Frequency><Timestamp dt:dt=""r8"">1606224572912</Timestamp><Current dt:dt=""r8"">0</Current><DateUtc dt:dt=""string"">2018-10-25T19:41:52Z</DateUtc></FrequencyChange></FrequencyChanges></Clock>\n",KW_Experiment5A-45-1,59.946,1.0.0.105,2,-92575700,Professional,2.0.10.353,2.0.10.353,10/25/2018,10/25/2018 19:41,15:41:52,2.0.10.248,3,2,1,3,,,,,,,,TrainingProc,BlockList,41,1,Distractor2.bmp,2,0,,0,1,379698,400,,0,0,lime,400,1,400,,vertical,red,Target1.bmp,blue,Distractor2.bmp,yellow,Distractor2.bmp,cyan,Distractor1.bmp,purple,Distractor2.bmp,lime,Distractor1.bmp,,,,TrialProc,6,TrainingTrialList,1,1,-999999,0,380098,0,1,665,380763,Target1.bmp,red,1,,,,7,5,89
KW_Experiment5A,45,1,"<?xml version=""1.0""?>\n<Clock xmlns:dt=""urn:schemas-microsoft-com:datatypes""><Description dt:dt=""string"">E-Prime Primary Realtime Clock</Description><StartTime><Timestamp dt:dt=""int"">0</Timestamp><DateUtc dt:dt=""string"">2018-10-25T19:41:52Z</DateUtc></StartTime><FrequencyChanges><FrequencyChange><Frequency dt:dt=""r8"">3215292</Frequency><Timestamp dt:dt=""r8"">1606224572912</Timestamp><Current dt:dt=""r8"">0</Current><DateUtc dt:dt=""string"">2018-10-25T19:41:52Z</DateUtc></FrequencyChange></FrequencyChanges></Clock>\n",KW_Experiment5A-45-1,59.946,1.0.0.105,2,-92575700,Professional,2.0.10.353,2.0.10.353,10/25/2018,10/25/2018 19:41,15:41:52,2.0.10.248,3,2,1,3,,,,,,,,TrainingProc,BlockList,42,1,Distractor1.bmp,1,0,,0,1,381783,400,,0,0,red,400,1,400,1,vertical,red,Distractor2.bmp,blue,Distractor1.bmp,purple,Distractor2.bmp,yellow,Distractor1.bmp,lime,Target1.bmp,cyan,Distractor1.bmp,,,,TrialProc,,TrainingTrialList,1,1,-999999,0,382183,0,1,492,382675,Target1.bmp,lime,1,,,,5,5,90
